Folder: cryo-il_analysis/Data/GaN_200K_800ms (part 10)

File: GaN_sample F_spot 12_UVVIS_200 K_200um_800 ms 2x2mm1_71.txt
340.368	1	3
341.565	1	1
342.763	1	7
343.960	1	6
345.157	1	1
346.354	1	5
347.552	1	4
348.749	1	-9
349.946	1	9
351.143	1	2
352.340	1	15
353.537	1	13
354.734	1	15
355.931	1	12
357.127	1	16
358.324	1	29
359.521	1	32
360.718	1	36
361.914	1	41
363.111	1	53
364.308	1	82
365.504	1	97
366.701	1	141
367.897	1	175
369.093	1	170
370.290	1	198
371.486	1	178
372.682	1	150
373.879	1	119
375.075	1	96
376.271	1	91
377.467	1	83
378.663	1	63
379.859	1	61
381.055	1	59
382.251	1	40
383.447	1	36
384.643	1	45
385.839	1	27
387.035	1	35
388.230	1	28
389.426	1	17
390.622	1	26
391.817	1	13
393.013	1	17
394.208	1	12
395.404	1	-8
396.599	1	5
397.795	1	9
398.990	1	14
400.186	1	5
401.381	1	12
402.576	1	6
403.771	1	9
404.967	1	9
406.162	1	13
407.357	1	8
408.552	1	7
409.747	1	-6
410.942	1	14
412.137	1	13
413.332	1	0
414.526	1	2
415.721	1	10
416.916	1	-1
418.111	1	11
419.305	1	2
420.500	1	1
421.695	1	-1
422.889	1	-3
424.084	1	4
425.278	1	15
426.472	1	-3
427.667	1	10
428.861	1	4
430.055	1	4
431.250	1	-4
432.444	1	3
433.638	1	-1
434.832	1	3
436.026	1	5
437.220	1	6
438.414	1	4
439.608	1	-5
440.802	1	-5
441.996	1	8
443.190	1	6
444.384	1	-3
445.578	1	-9
446.771	1	9
447.965	1	-4
449.159	1	-6
450.352	1	-4
451.546	1	0
452.739	1	6
453.933	1	-2
455.126	1	-9
456.320	1	0
457.513	1	13
458.706	1	3
459.899	1	4
461.093	1	0
462.286	1	-2
463.479	1	-2
464.672	1	6
465.865	1	6
467.058	1	7
468.251	1	-2
469.444	1	-8
470.637	1	8
471.830	1	-2
473.023	1	6
474.215	1	9
475.408	1	3
476.601	1	-4
477.793	1	3
478.986	1	0
480.179	1	6
481.371	1	7
482.564	1	3
483.756	1	7
484.948	1	-6
486.141	1	1
487.333	1	7
488.525	1	7
489.718	1	10
490.910	1	9
492.102	1	4
493.294	1	2
494.486	1	12
495.678	1	8
496.870	1	15
498.062	1	1
499.254	1	2
500.446	1	5
501.638	1	14
502.829	1	-1
504.021	1	9
505.213	1	12
506.404	1	17
507.596	1	12
508.788	1	30
509.979	1	6
511.171	1	12
512.362	1	4
513.553	1	-2
514.745	1	13
515.936	1	11
517.127	1	6
518.319	1	22
519.510	1	8
520.701	1	13
521.892	1	14
523.083	1	15
524.274	1	13
525.465	1	25
526.656	1	16
527.847	1	18
529.038	1	18
530.229	1	18
531.419	1	23
532.610	1	10
533.801	1	39
534.991	1	17
536.182	1	15
537.373	1	22
538.563	1	26
539.754	1	27
540.944	1	14
542.134	1	18
543.325	1	20
544.515	1	10
545.705	1	17
546.896	1	14
548.086	1	16
549.276	1	14
550.466	1	25
551.656	1	22
552.846	1	19
554.036	1	20
555.226	1	11
556.416	1	11
557.606	1	25
558.796	1	19
559.986	1	15
561.175	1	26
562.365	1	21
563.555	1	21
564.744	1	21
565.934	1	34
567.123	1	22
568.313	1	16
569.502	1	16
570.692	1	22
571.881	1	36
573.070	1	20
574.260	1	36
575.449	1	23
576.638	1	7
577.827	1	11
579.016	1	30
580.205	1	13
581.394	1	16
582.583	1	33
583.772	1	27
584.961	1	19
586.150	1	14
587.339	1	26
588.528	1	12
589.717	1	16
590.905	1	15
592.094	1	16
593.283	1	12
594.471	1	29
595.660	1	17
596.848	1	12
598.037	1	13
599.225	1	7
600.413	1	21
601.602	1	26
602.790	1	18
603.978	1	14
605.166	1	14
606.355	1	20
607.543	1	1
608.731	1	17
609.919	1	23
611.107	1	18
612.295	1	22
613.483	1	21
614.671	1	20
615.858	1	8
617.046	1	9
618.234	1	3
619.422	1	6
620.609	1	13
621.797	1	11
622.985	1	9
624.172	1	15
625.360	1	9
626.547	1	14
627.735	1	20
628.922	1	17
630.109	1	1
631.297	1	5
632.484	1	4
633.671	1	5
634.858	1	7
636.045	1	18
637.232	1	-2
638.419	1	7
639.606	1	7
640.793	1	16
641.980	1	5
643.167	1	4
644.354	1	11
645.541	1	12
646.728	1	6
647.914	1	7
649.101	1	7
650.288	1	21
651.474	1	10
652.661	1	7
653.847	1	5
655.034	1	10
656.220	1	7
657.406	1	8
658.593	1	13
659.779	1	7
660.965	1	14
662.152	1	7
663.338	1	18
664.524	1	10
665.710	1	4
666.896	1	-1
668.082	1	11
669.268	1	-1
670.454	1	2
671.640	1	10
672.826	1	2
674.011	1	9
675.197	1	-2
676.383	1	16
677.569	1	10
678.754	1	9
679.940	1	7
681.125	1	9
682.311	1	16
683.496	1	16
684.682	1	6
685.867	1	6
687.053	1	11
688.238	1	13
688.746	1	9

File: GaN_sample F_spot 12_UVVIS_200 K_200um_800 ms 2x2mm1_72.txt
340.368	1	3
341.565	1	-11
342.763	1	13
343.960	1	5
345.157	1	1
346.354	1	14
347.552	1	0
348.749	1	-4
349.946	1	0
351.143	1	4
352.340	1	13
353.537	1	7
354.734	1	15
355.931	1	10
357.127	1	12
358.324	1	18
359.521	1	36
360.718	1	39
361.914	1	50
363.111	1	61
364.308	1	73
365.504	1	110
366.701	1	132
367.897	1	155
369.093	1	174
370.290	1	189
371.486	1	172
372.682	1	145
373.879	1	120
375.075	1	103
376.271	1	94
377.467	1	78
378.663	1	60
379.859	1	67
381.055	1	60
382.251	1	35
383.447	1	35
384.643	1	42
385.839	1	34
387.035	1	35
388.230	1	38
389.426	1	25
390.622	1	15
391.817	1	21
393.013	1	4
394.208	1	-1
395.404	1	-1
396.599	1	7
397.795	1	2
398.990	1	14
400.186	1	4
401.381	1	10
402.576	1	13
403.771	1	8
404.967	1	11
406.162	1	14
407.357	1	-2
408.552	1	0
409.747	1	3
410.942	1	8
412.137	1	15
413.332	1	10
414.526	1	12
415.721	1	6
416.916	1	0
418.111	1	-1
419.305	1	5
420.500	1	3
421.695	1	7
422.889	1	-8
424.084	1	3
425.278	1	9
426.472	1	1
427.667	1	9
428.861	1	1
430.055	1	4
431.250	1	5
432.444	1	5
433.638	1	1
434.832	1	5
436.026	1	8
437.220	1	11
438.414	1	-5
439.608	1	-11
440.802	1	-1
441.996	1	10
443.190	1	2
444.384	1	-7
445.578	1	-1
446.771	1	14
447.965	1	1
449.159	1	-7
450.352	1	0
451.546	1	9
452.739	1	10
453.933	1	-1
455.126	1	-8
456.320	1	10
457.513	1	8
458.706	1	3
459.899	1	8
461.093	1	7
462.286	1	13
463.479	1	2
464.672	1	1
465.865	1	-2
467.058	1	7
468.251	1	2
469.444	1	4
470.637	1	9
471.830	1	5
473.023	1	7
474.215	1	6
475.408	1	5
476.601	1	0
477.793	1	3
478.986	1	-1
480.179	1	5
481.371	1	8
482.564	1	7
483.756	1	10
484.948	1	-5
486.141	1	4
487.333	1	-6
488.525	1	5
489.718	1	14
490.910	1	4
492.102	1	3
493.294	1	-2
494.486	1	1
495.678	1	-1
496.870	1	11
498.062	1	9
499.254	1	7
500.446	1	-2
501.638	1	2
502.829	1	12
504.021	1	4
505.213	1	18
506.404	1	6
507.596	1	8
508.788	1	15
509.979	1	10
511.171	1	3
512.362	1	18
513.553	1	5
514.745	1	20
515.936	1	10
517.127	1	14
518.319	1	12
519.510	1	17
520.701	1	16
521.892	1	6
523.083	1	12
524.274	1	9
525.465	1	16
526.656	1	20
527.847	1	28
529.038	1	26
530.229	1	17
531.419	1	29
532.610	1	10
533.801	1	42
534.991	1	18
536.182	1	11
537.373	1	17
538.563	1	18
539.754	1	22
540.944	1	6
542.134	1	19
543.325	1	16
544.515	1	17
545.705	1	20
546.896	1	12
548.086	1	18
549.276	1	13
550.466	1	18
551.656	1	29
552.846	1	14
554.036	1	25
555.226	1	13
556.416	1	24
557.606	1	19
558.796	1	10
559.986	1	20
561.175	1	23
562.365	1	19
563.555	1	16
564.744	1	25
565.934	1	27
567.123	1	18
568.313	1	18
569.502	1	6
570.692	1	28
571.881	1	28
573.070	1	19
574.260	1	39
575.449	1	12
576.638	1	10
577.827	1	18
579.016	1	25
580.205	1	9
581.394	1	6
582.583	1	28
583.772	1	19
584.961	1	27
586.150	1	21
587.339	1	19
588.528	1	22
589.717	1	6
590.905	1	16
592.094	1	14
593.283	1	15
594.471	1	22
595.660	1	14
596.848	1	15
598.037	1	24
599.225	1	5
600.413	1	17
601.602	1	16
602.790	1	14
603.978	1	18
605.166	1	14
606.355	1	8
607.543	1	9
608.731	1	11
609.919	1	18
611.107	1	18
612.295	1	13
613.483	1	18
614.671	1	19
615.858	1	27
617.046	1	21
618.234	1	-4
619.422	1	9
620.609	1	22
621.797	1	9
622.985	1	6
624.172	1	7
625.360	1	14
626.547	1	11
627.735	1	14
628.922	1	17
630.109	1	7
631.297	1	6
632.484	1	11
633.671	1	7
634.858	1	9
636.045	1	17
637.232	1	6
638.419	1	-3
639.606	1	9
640.793	1	16
641.980	1	17
643.167	1	7
644.354	1	8
645.541	1	7
646.728	1	5
647.914	1	6
649.101	1	3
650.288	1	8
651.474	1	6
652.661	1	1
653.847	1	17
655.034	1	15
656.220	1	10
657.406	1	7
658.593	1	19
659.779	1	14
660.965	1	11
662.152	1	4
663.338	1	16
664.524	1	10
665.710	1	-3
666.896	1	6
668.082	1	12
669.268	1	9
670.454	1	16
671.640	1	20
672.826	1	10
674.011	1	5
675.197	1	7
676.383	1	16
677.569	1	10
678.754	1	6
679.940	1	1
681.125	1	12
682.311	1	13
683.496	1	14
684.682	1	-1
685.867	1	8
687.053	1	7
688.238	1	-1
688.746	1	14

File: GaN_sample F_spot 12_UVVIS_200 K_200um_800 ms 2x2mm1_73.txt
340.368	1	8
341.565	1	-6
342.763	1	7
343.960	1	4
345.157	1	-1
346.354	1	9
347.552	1	-1
348.749	1	0
349.946	1	-6
351.143	1	5
352.340	1	17
353.537	1	15
354.734	1	22
355.931	1	11
357.127	1	16
358.324	1	17
359.521	1	26
360.718	1	40
361.914	1	48
363.111	1	53
364.308	1	70
365.504	1	106
366.701	1	138
367.897	1	152
369.093	1	190
370.290	1	183
371.486	1	161
372.682	1	140
373.879	1	121
375.075	1	99
376.271	1	97
377.467	1	79
378.663	1	66
379.859	1	55
381.055	1	51
382.251	1	35
383.447	1	34
384.643	1	44
385.839	1	32
387.035	1	24
388.230	1	23
389.426	1	28
390.622	1	9
391.817	1	13
393.013	1	12
394.208	1	11
395.404	1	14
396.599	1	7
397.795	1	3
398.990	1	5
400.186	1	13
401.381	1	6
402.576	1	-2
403.771	1	13
404.967	1	-2
406.162	1	12
407.357	1	7
408.552	1	3
409.747	1	1
410.942	1	8
412.137	1	14
413.332	1	8
414.526	1	4
415.721	1	4
416.916	1	-2
418.111	1	5
419.305	1	7
420.500	1	-7
421.695	1	-5
422.889	1	-1
424.084	1	3
425.278	1	14
426.472	1	4
427.667	1	8
428.861	1	6
430.055	1	13
431.250	1	-5
432.444	1	13
433.638	1	-1
434.832	1	15
436.026	1	6
437.220	1	3
438.414	1	-4
439.608	1	-5
440.802	1	-5
441.996	1	9
443.190	1	1
444.384	1	-2
445.578	1	-3
446.771	1	20
447.965	1	0
449.159	1	-1
450.352	1	6
451.546	1	-3
452.739	1	4
453.933	1	-2
455.126	1	4
456.320	1	6
457.513	1	13
458.706	1	8
459.899	1	6
461.093	1	-2
462.286	1	6
463.479	1	8
464.672	1	3
465.865	1	-6
467.058	1	8
468.251	1	1
469.444	1	3
470.637	1	11
471.830	1	6
473.023	1	10
474.215	1	5
475.408	1	-2
476.601	1	4
477.793	1	11
478.986	1	-6
480.179	1	-2
481.371	1	5
482.564	1	6
483.756	1	10
484.948	1	1
486.141	1	-4
487.333	1	8
488.525	1	3
489.718	1	7
490.910	1	3
492.102	1	-1
493.294	1	4
494.486	1	11
495.678	1	17
496.870	1	11
498.062	1	6
499.254	1	1
500.446	1	-5
501.638	1	5
502.829	1	9
504.021	1	5
505.213	1	16
506.404	1	10
507.596	1	16
508.788	1	27
509.979	1	6
511.171	1	9
512.362	1	3
513.553	1	7
514.745	1	9
515.936	1	20
517.127	1	11
518.319	1	11
519.510	1	18
520.701	1	19
521.892	1	10
523.083	1	15
524.274	1	10
525.465	1	17
526.656	1	10
527.847	1	12
529.038	1	14
530.229	1	20
531.419	1	18
532.610	1	15
533.801	1	26
534.991	1	17
536.182	1	15
537.373	1	14
538.563	1	16
539.754	1	25
540.944	1	20
542.134	1	30
543.325	1	18
544.515	1	12
545.705	1	22
546.896	1	21
548.086	1	22
549.276	1	15
550.466	1	25
551.656	1	25
552.846	1	24
554.036	1	28
555.226	1	23
556.416	1	11
557.606	1	17
558.796	1	13
559.986	1	14
561.175	1	19
562.365	1	24
563.555	1	20
564.744	1	20
565.934	1	30
567.123	1	25
568.313	1	17
569.502	1	14
570.692	1	21
571.881	1	32
573.070	1	8
574.260	1	19
575.449	1	16
576.638	1	9
577.827	1	13
579.016	1	40
580.205	1	17
581.394	1	9
582.583	1	29
583.772	1	10
584.961	1	22
586.150	1	29
587.339	1	18
588.528	1	19
589.717	1	24
590.905	1	6
592.094	1	10
593.283	1	10
594.471	1	22
595.660	1	24
596.848	1	11
598.037	1	17
599.225	1	6
600.413	1	25
601.602	1	18
602.790	1	12
603.978	1	13
605.166	1	17
606.355	1	17
607.543	1	20
608.731	1	10
609.919	1	12
611.107	1	16
612.295	1	3
613.483	1	25
614.671	1	17
615.858	1	15
617.046	1	12
618.234	1	9
619.422	1	3
620.609	1	12
621.797	1	11
622.985	1	5
624.172	1	9
625.360	1	18
626.547	1	10
627.735	1	18
628.922	1	14
630.109	1	-4
631.297	1	14
632.484	1	7
633.671	1	6
634.858	1	0
636.045	1	25
637.232	1	5
638.419	1	2
639.606	1	18
640.793	1	18
641.980	1	8
643.167	1	5
644.354	1	10
645.541	1	5
646.728	1	7
647.914	1	6
649.101	1	6
650.288	1	12
651.474	1	8
652.661	1	3
653.847	1	12
655.034	1	3
656.220	1	2
657.406	1	12
658.593	1	18
659.779	1	10
660.965	1	17
662.152	1	10
663.338	1	7
664.524	1	3
665.710	1	6
666.896	1	3
668.082	1	16
669.268	1	1
670.454	1	17
671.640	1	9
672.826	1	7
674.011	1	8
675.197	1	-8
676.383	1	12
677.569	1	9
678.754	1	7
679.940	1	14
681.125	1	9
682.311	1	10
683.496	1	6
684.682	1	-3
685.867	1	3
687.053	1	10
688.238	1	8
688.746	1	9

File: GaN_sample F_spot 12_UVVIS_200 K_200um_800 ms 2x2mm1_74.txt
340.368	1	10
341.565	1	-3
342.763	1	11
343.960	1	9
345.157	1	2
346.354	1	4
347.552	1	-1
348.749	1	4
349.946	1	3
351.143	1	12
352.340	1	13
353.537	1	12
354.734	1	24
355.931	1	8
357.127	1	7
358.324	1	17
359.521	1	37
360.718	1	36
361.914	1	46
363.111	1	51
364.308	1	68
365.504	1	110
366.701	1	128
367.897	1	157
369.093	1	170
370.290	1	177
371.486	1	154
372.682	1	142
373.879	1	117
375.075	1	100
376.271	1	98
377.467	1	76
378.663	1	60
379.859	1	46
381.055	1	61
382.251	1	37
383.447	1	42
384.643	1	43
385.839	1	30
387.035	1	28
388.230	1	32
389.426	1	19
390.622	1	21
391.817	1	20
393.013	1	25
394.208	1	13
395.404	1	7
396.599	1	7
397.795	1	13
398.990	1	-1
400.186	1	12
401.381	1	9
402.576	1	4
403.771	1	5
404.967	1	2
406.162	1	4
407.357	1	0
408.552	1	2
409.747	1	1
410.942	1	8
412.137	1	7
413.332	1	14
414.526	1	8
415.721	1	4
416.916	1	-1
418.111	1	5
419.305	1	10
420.500	1	1
421.695	1	6
422.889	1	0
424.084	1	2
425.278	1	8
426.472	1	1
427.667	1	10
428.861	1	-3
430.055	1	6
431.250	1	5
432.444	1	14
433.638	1	7
434.832	1	11
436.026	1	5
437.220	1	7
438.414	1	-4
439.608	1	-4
440.802	1	6
441.996	1	5
443.190	1	6
444.384	1	-4
445.578	1	-4
446.771	1	12
447.965	1	7
449.159	1	-2
450.352	1	1
451.546	1	-1
452.739	1	2
453.933	1	3
455.126	1	0
456.320	1	4
457.513	1	13
458.706	1	2
459.899	1	-5
461.093	1	4
462.286	1	2
463.479	1	5
464.672	1	-8
465.865	1	4
467.058	1	0
468.251	1	4
469.444	1	-2
470.637	1	-2
471.830	1	2
473.023	1	1
474.215	1	9
475.408	1	4
476.601	1	1
477.793	1	8
478.986	1	-1
480.179	1	9
481.371	1	9
482.564	1	13
483.756	1	4
484.948	1	-2
486.141	1	-1
487.333	1	10
488.525	1	-1
489.718	1	13
490.910	1	11
492.102	1	11
493.294	1	4
494.486	1	11
495.678	1	8
496.870	1	6
498.062	1	-1
499.254	1	5
500.446	1	0
501.638	1	6
502.829	1	2
504.021	1	15
505.213	1	14
506.404	1	15
507.596	1	13
508.788	1	29
509.979	1	4
511.171	1	1
512.362	1	12
513.553	1	1
514.745	1	5
515.936	1	11
517.127	1	20
518.319	1	19
519.510	1	10
520.701	1	18
521.892	1	10
523.083	1	18
524.274	1	12
525.465	1	20
526.656	1	9
527.847	1	16
529.038	1	22
530.229	1	17
531.419	1	18
532.610	1	6
533.801	1	26
534.991	1	20
536.182	1	18
537.373	1	20
538.563	1	13
539.754	1	25
540.944	1	14
542.134	1	14
543.325	1	19
544.515	1	16
545.705	1	9
546.896	1	13
548.086	1	15
549.276	1	19
550.466	1	17
551.656	1	29
552.846	1	23
554.036	1	22
555.226	1	13
556.416	1	12
557.606	1	20
558.796	1	21
559.986	1	16
561.175	1	15
562.365	1	25
563.555	1	17
564.744	1	9
565.934	1	19
567.123	1	27
568.313	1	20
569.502	1	20
570.692	1	22
571.881	1	31
573.070	1	15
574.260	1	26
575.449	1	14
576.638	1	-2
577.827	1	21
579.016	1	23
580.205	1	28
581.394	1	10
582.583	1	27
583.772	1	24
584.961	1	19
586.150	1	18
587.339	1	22
588.528	1	19
589.717	1	17
590.905	1	17
592.094	1	6
593.283	1	12
594.471	1	29
595.660	1	12
596.848	1	11
598.037	1	13
599.225	1	0
600.413	1	30
601.602	1	22
602.790	1	1
603.978	1	21
605.166	1	15
606.355	1	15
607.543	1	11
608.731	1	17
609.919	1	15
611.107	1	6
612.295	1	11
613.483	1	15
614.671	1	15
615.858	1	23
617.046	1	11
618.234	1	1
619.422	1	8
620.609	1	15
621.797	1	8
622.985	1	7
624.172	1	13
625.360	1	16
626.547	1	10
627.735	1	19
628.922	1	12
630.109	1	3
631.297	1	12
632.484	1	10
633.671	1	5
634.858	1	3
636.045	1	14
637.232	1	2
638.419	1	-2
639.606	1	13
640.793	1	12
641.980	1	15
643.167	1	0
644.354	1	8
645.541	1	6
646.728	1	11
647.914	1	5
649.101	1	8
650.288	1	13
651.474	1	6
652.661	1	0
653.847	1	8
655.034	1	6
656.220	1	-4
657.406	1	15
658.593	1	13
659.779	1	11
660.965	1	14
662.152	1	11
663.338	1	14
664.524	1	10
665.710	1	9
666.896	1	-4
668.082	1	-1
669.268	1	7
670.454	1	3
671.640	1	7
672.826	1	13
674.011	1	4
675.197	1	-1
676.383	1	11
677.569	1	1
678.754	1	11
679.940	1	7
681.125	1	8
682.311	1	12
683.496	1	7
684.682	1	4
685.867	1	10
687.053	1	18
688.238	1	12
688.746	1	5

File: GaN_sample F_spot 12_UVVIS_200 K_200um_800 ms 2x2mm1_75.txt
340.368	1	2
341.565	1	-8
342.763	1	8
343.960	1	6
345.157	1	-2
346.354	1	4
347.552	1	5
348.749	1	2
349.946	1	7
351.143	1	9
352.340	1	16
353.537	1	9
354.734	1	24
355.931	1	9
357.127	1	12
358.324	1	9
359.521	1	19
360.718	1	34
361.914	1	45
363.111	1	63
364.308	1	72
365.504	1	105
366.701	1	134
367.897	1	150
369.093	1	159
370.290	1	171
371.486	1	161
372.682	1	135
373.879	1	107
375.075	1	98
376.271	1	90
377.467	1	61
378.663	1	66
379.859	1	49
381.055	1	52
382.251	1	36
383.447	1	35
384.643	1	41
385.839	1	16
387.035	1	26
388.230	1	27
389.426	1	19
390.622	1	24
391.817	1	17
393.013	1	7
394.208	1	9
395.404	1	5
396.599	1	1
397.795	1	9
398.990	1	6
400.186	1	5
401.381	1	9
402.576	1	14
403.771	1	9
404.967	1	14
406.162	1	5
407.357	1	-5
408.552	1	4
409.747	1	6
410.942	1	14
412.137	1	10
413.332	1	7
414.526	1	4
415.721	1	-2
416.916	1	1
418.111	1	4
419.305	1	3
420.500	1	-3
421.695	1	1
422.889	1	-5
424.084	1	-2
425.278	1	9
426.472	1	1
427.667	1	15
428.861	1	-1
430.055	1	7
431.250	1	4
432.444	1	7
433.638	1	2
434.832	1	4
436.026	1	8
437.220	1	16
438.414	1	-4
439.608	1	-5
440.802	1	0
441.996	1	5
443.190	1	-6
444.384	1	-4
445.578	1	-11
446.771	1	12
447.965	1	6
449.159	1	5
450.352	1	5
451.546	1	-9
452.739	1	2
453.933	1	-3
455.126	1	9
456.320	1	1
457.513	1	13
458.706	1	5
459.899	1	1
461.093	1	10
462.286	1	-2
463.479	1	-8
464.672	1	3
465.865	1	2
467.058	1	5
468.251	1	4
469.444	1	1
470.637	1	5
471.830	1	-1
473.023	1	7
474.215	1	15
475.408	1	14
476.601	1	8
477.793	1	7
478.986	1	7
480.179	1	1
481.371	1	6
482.564	1	14
483.756	1	11
484.948	1	-1
486.141	1	0
487.333	1	5
488.525	1	5
489.718	1	5
490.910	1	-4
492.102	1	5
493.294	1	-6
494.486	1	1
495.678	1	7
496.870	1	11
498.062	1	12
499.254	1	11
500.446	1	2
501.638	1	1
502.829	1	10
504.021	1	16
505.213	1	19
506.404	1	16
507.596	1	10
508.788	1	27
509.979	1	3
511.171	1	4
512.362	1	0
513.553	1	-3
514.745	1	8
515.936	1	2
517.127	1	4
518.319	1	15
519.510	1	16
520.701	1	16
521.892	1	13
523.083	1	6
524.274	1	19
525.465	1	17
526.656	1	11
527.847	1	13
529.038	1	17
530.229	1	14
531.419	1	16
532.610	1	12
533.801	1	30
534.991	1	13
536.182	1	27
537.373	1	24
538.563	1	15
539.754	1	15
540.944	1	14
542.134	1	14
543.325	1	19
544.515	1	21
545.705	1	24
546.896	1	12
548.086	1	8
549.276	1	19
550.466	1	7
551.656	1	31
552.846	1	11
554.036	1	22
555.226	1	11
556.416	1	13
557.606	1	21
558.796	1	15
559.986	1	14
561.175	1	15
562.365	1	22
563.555	1	14
564.744	1	22
565.934	1	19
567.123	1	16
568.313	1	21
569.502	1	16
570.692	1	25
571.881	1	23
573.070	1	17
574.260	1	23
575.449	1	7
576.638	1	9
577.827	1	15
579.016	1	17
580.205	1	18
581.394	1	18
582.583	1	26
583.772	1	22
584.961	1	14
586.150	1	7
587.339	1	13
588.528	1	10
589.717	1	7
590.905	1	14
592.094	1	12
593.283	1	17
594.471	1	25
595.660	1	13
596.848	1	10
598.037	1	11
599.225	1	6
600.413	1	20
601.602	1	27
602.790	1	16
603.978	1	18
605.166	1	17
606.355	1	28
607.543	1	8
608.731	1	15
609.919	1	20
611.107	1	6
612.295	1	5
613.483	1	13
614.671	1	15
615.858	1	13
617.046	1	18
618.234	1	2
619.422	1	11
620.609	1	13
621.797	1	9
622.985	1	13
624.172	1	0
625.360	1	18
626.547	1	13
627.735	1	16
628.922	1	12
630.109	1	-3
631.297	1	12
632.484	1	15
633.671	1	-8
634.858	1	8
636.045	1	21
637.232	1	-3
638.419	1	14
639.606	1	10
640.793	1	9
641.980	1	9
643.167	1	7
644.354	1	14
645.541	1	9
646.728	1	6
647.914	1	-8
649.101	1	8
650.288	1	7
651.474	1	11
652.661	1	6
653.847	1	14
655.034	1	9
656.220	1	-4
657.406	1	5
658.593	1	15
659.779	1	4
660.965	1	7
662.152	1	14
663.338	1	12
664.524	1	11
665.710	1	2
666.896	1	2
668.082	1	1
669.268	1	-1
670.454	1	13
671.640	1	5
672.826	1	5
674.011	1	10
675.197	1	12
676.383	1	7
677.569	1	2
678.754	1	2
679.940	1	-2
681.125	1	14
682.311	1	11
683.496	1	9
684.682	1	0
685.867	1	8
687.053	1	15
688.238	1	8
688.746	1	1

File: GaN_sample F_spot 12_UVVIS_200 K_200um_800 ms 2x2mm1_76.txt
340.368	1	8
341.565	1	-3
342.763	1	5
343.960	1	3
345.157	1	4
346.354	1	0
347.552	1	1
348.749	1	1
349.946	1	1
351.143	1	2
352.340	1	14
353.537	1	3
354.734	1	15
355.931	1	12
357.127	1	19
358.324	1	22
359.521	1	29
360.718	1	46
361.914	1	41
363.111	1	52
364.308	1	69
365.504	1	95
366.701	1	119
367.897	1	158
369.093	1	165
370.290	1	170
371.486	1	162
372.682	1	135
373.879	1	108
375.075	1	103
376.271	1	98
377.467	1	76
378.663	1	61
379.859	1	52
381.055	1	47
382.251	1	32
383.447	1	35
384.643	1	33
385.839	1	25
387.035	1	31
388.230	1	17
389.426	1	9
390.622	1	16
391.817	1	16
393.013	1	11
394.208	1	11
395.404	1	12
396.599	1	3
397.795	1	13
398.990	1	7
400.186	1	16
401.381	1	5
402.576	1	-3
403.771	1	8
404.967	1	2
406.162	1	3
407.357	1	5
408.552	1	3
409.747	1	7
410.942	1	7
412.137	1	3
413.332	1	12
414.526	1	-3
415.721	1	-4
416.916	1	-4
418.111	1	8
419.305	1	9
420.500	1	-1
421.695	1	-2
422.889	1	-2
424.084	1	4
425.278	1	16
426.472	1	6
427.667	1	13
428.861	1	0
430.055	1	9
431.250	1	-1
432.444	1	16
433.638	1	10
434.832	1	3
436.026	1	12
437.220	1	7
438.414	1	-1
439.608	1	-7
440.802	1	0
441.996	1	6
443.190	1	-5
444.384	1	1
445.578	1	2
446.771	1	10
447.965	1	0
449.159	1	3
450.352	1	6
451.546	1	11
452.739	1	5
453.933	1	2
455.126	1	-2
456.320	1	2
457.513	1	16
458.706	1	-7
459.899	1	-2
461.093	1	6
462.286	1	0
463.479	1	4
464.672	1	3
465.865	1	-4
467.058	1	3
468.251	1	1
469.444	1	-6
470.637	1	10
471.830	1	-5
473.023	1	0
474.215	1	7
475.408	1	-1
476.601	1	4
477.793	1	3
478.986	1	-7
480.179	1	4
481.371	1	0
482.564	1	-5
483.756	1	20
484.948	1	0
486.141	1	0
487.333	1	9
488.525	1	6
489.718	1	1
490.910	1	7
492.102	1	-3
493.294	1	2
494.486	1	12
495.678	1	-5
496.870	1	-1
498.062	1	10
499.254	1	9
500.446	1	-6
501.638	1	6
502.829	1	2
504.021	1	7
505.213	1	13
506.404	1	11
507.596	1	12
508.788	1	26
509.979	1	5
511.171	1	12
512.362	1	8
513.553	1	-7
514.745	1	10
515.936	1	11
517.127	1	11
518.319	1	7
519.510	1	14
520.701	1	22
521.892	1	12
523.083	1	9
524.274	1	16
525.465	1	11
526.656	1	7
527.847	1	24
529.038	1	17
530.229	1	10
531.419	1	17
532.610	1	4
533.801	1	37
534.991	1	21
536.182	1	12
537.373	1	14
538.563	1	19
539.754	1	24
540.944	1	15
542.134	1	11
543.325	1	21
544.515	1	10
545.705	1	14
546.896	1	24
548.086	1	16
549.276	1	17
550.466	1	23
551.656	1	20
552.846	1	20
554.036	1	22
555.226	1	16
556.416	1	20
557.606	1	31
558.796	1	23
559.986	1	10
561.175	1	26
562.365	1	20
563.555	1	7
564.744	1	18
565.934	1	24
567.123	1	17
568.313	1	21
569.502	1	20
570.692	1	31
571.881	1	20
573.070	1	14
574.260	1	26
575.449	1	10
576.638	1	15
577.827	1	11
579.016	1	33
580.205	1	19
581.394	1	15
582.583	1	24
583.772	1	21
584.961	1	20
586.150	1	16
587.339	1	11
588.528	1	16
589.717	1	26
590.905	1	13
592.094	1	9
593.283	1	14
594.471	1	17
595.660	1	13
596.848	1	11
598.037	1	8
599.225	1	1
600.413	1	18
601.602	1	28
602.790	1	13
603.978	1	11
605.166	1	22
606.355	1	20
607.543	1	4
608.731	1	5
609.919	1	17
611.107	1	12
612.295	1	12
613.483	1	23
614.671	1	9
615.858	1	2
617.046	1	15
618.234	1	12
619.422	1	6
620.609	1	8
621.797	1	4
622.985	1	16
624.172	1	1
625.360	1	3
626.547	1	10
627.735	1	11
628.922	1	17
630.109	1	-3
631.297	1	5
632.484	1	7
633.671	1	3
634.858	1	8
636.045	1	21
637.232	1	9
638.419	1	1
639.606	1	12
640.793	1	13
641.980	1	13
643.167	1	6
644.354	1	11
645.541	1	10
646.728	1	0
647.914	1	2
649.101	1	8
650.288	1	15
651.474	1	10
652.661	1	7
653.847	1	20
655.034	1	8
656.220	1	3
657.406	1	15
658.593	1	11
659.779	1	10
660.965	1	7
662.152	1	6
663.338	1	16
664.524	1	10
665.710	1	8
666.896	1	1
668.082	1	10
669.268	1	9
670.454	1	11
671.640	1	4
672.826	1	0
674.011	1	10
675.197	1	3
676.383	1	15
677.569	1	9
678.754	1	11
679.940	1	6
681.125	1	11
682.311	1	11
683.496	1	16
684.682	1	-2
685.867	1	-4
687.053	1	12
688.238	1	8
688.746	1	10