Folder: cryo-il_analysis/Data/GaN_200K_800ms (part 7)

File: GaN_sample F_spot 12_UVVIS_200 K_200um_800 ms 2x2mm1_53.txt
340.368	1	6
341.565	1	-9
342.763	1	5
343.960	1	6
345.157	1	5
346.354	1	8
347.552	1	1
348.749	1	2
349.946	1	3
351.143	1	13
352.340	1	11
353.537	1	15
354.734	1	20
355.931	1	20
357.127	1	29
358.324	1	36
359.521	1	51
360.718	1	60
361.914	1	77
363.111	1	106
364.308	1	164
365.504	1	240
366.701	1	281
367.897	1	364
369.093	1	414
370.290	1	409
371.486	1	373
372.682	1	313
373.879	1	268
375.075	1	221
376.271	1	191
377.467	1	162
378.663	1	128
379.859	1	102
381.055	1	93
382.251	1	70
383.447	1	67
384.643	1	67
385.839	1	59
387.035	1	41
388.230	1	43
389.426	1	37
390.622	1	34
391.817	1	36
393.013	1	30
394.208	1	24
395.404	1	19
396.599	1	19
397.795	1	17
398.990	1	15
400.186	1	22
401.381	1	10
402.576	1	19
403.771	1	9
404.967	1	13
406.162	1	19
407.357	1	12
408.552	1	2
409.747	1	6
410.942	1	20
412.137	1	12
413.332	1	12
414.526	1	8
415.721	1	7
416.916	1	3
418.111	1	8
419.305	1	4
420.500	1	4
421.695	1	5
422.889	1	0
424.084	1	3
425.278	1	10
426.472	1	9
427.667	1	12
428.861	1	4
430.055	1	11
431.250	1	4
432.444	1	12
433.638	1	6
434.832	1	9
436.026	1	3
437.220	1	8
438.414	1	-7
439.608	1	-6
440.802	1	2
441.996	1	8
443.190	1	6
444.384	1	1
445.578	1	-8
446.771	1	18
447.965	1	2
449.159	1	3
450.352	1	9
451.546	1	1
452.739	1	7
453.933	1	10
455.126	1	5
456.320	1	-1
457.513	1	9
458.706	1	-2
459.899	1	-8
461.093	1	5
462.286	1	10
463.479	1	-5
464.672	1	8
465.865	1	-1
467.058	1	-3
468.251	1	9
469.444	1	-1
470.637	1	13
471.830	1	5
473.023	1	4
474.215	1	17
475.408	1	8
476.601	1	9
477.793	1	3
478.986	1	6
480.179	1	5
481.371	1	16
482.564	1	12
483.756	1	8
484.948	1	-4
486.141	1	5
487.333	1	1
488.525	1	9
489.718	1	11
490.910	1	6
492.102	1	10
493.294	1	4
494.486	1	12
495.678	1	12
496.870	1	11
498.062	1	18
499.254	1	13
500.446	1	6
501.638	1	15
502.829	1	13
504.021	1	16
505.213	1	28
506.404	1	21
507.596	1	29
508.788	1	27
509.979	1	26
511.171	1	9
512.362	1	21
513.553	1	8
514.745	1	26
515.936	1	25
517.127	1	18
518.319	1	30
519.510	1	24
520.701	1	24
521.892	1	28
523.083	1	26
524.274	1	25
525.465	1	41
526.656	1	29
527.847	1	33
529.038	1	36
530.229	1	36
531.419	1	41
532.610	1	22
533.801	1	50
534.991	1	37
536.182	1	28
537.373	1	36
538.563	1	41
539.754	1	30
540.944	1	24
542.134	1	36
543.325	1	38
544.515	1	32
545.705	1	35
546.896	1	35
548.086	1	34
549.276	1	26
550.466	1	47
551.656	1	44
552.846	1	34
554.036	1	38
555.226	1	23
556.416	1	30
557.606	1	42
558.796	1	29
559.986	1	26
561.175	1	46
562.365	1	33
563.555	1	36
564.744	1	46
565.934	1	42
567.123	1	33
568.313	1	42
569.502	1	34
570.692	1	46
571.881	1	45
573.070	1	39
574.260	1	41
575.449	1	32
576.638	1	37
577.827	1	28
579.016	1	38
580.205	1	30
581.394	1	44
582.583	1	41
583.772	1	35
584.961	1	38
586.150	1	22
587.339	1	34
588.528	1	36
589.717	1	20
590.905	1	37
592.094	1	32
593.283	1	25
594.471	1	27
595.660	1	30
596.848	1	24
598.037	1	26
599.225	1	29
600.413	1	29
601.602	1	31
602.790	1	35
603.978	1	29
605.166	1	31
606.355	1	33
607.543	1	28
608.731	1	30
609.919	1	37
611.107	1	17
612.295	1	16
613.483	1	18
614.671	1	26
615.858	1	23
617.046	1	19
618.234	1	14
619.422	1	20
620.609	1	34
621.797	1	13
622.985	1	15
624.172	1	13
625.360	1	28
626.547	1	19
627.735	1	12
628.922	1	19
630.109	1	19
631.297	1	11
632.484	1	11
633.671	1	8
634.858	1	10
636.045	1	26
637.232	1	14
638.419	1	13
639.606	1	20
640.793	1	21
641.980	1	20
643.167	1	10
644.354	1	13
645.541	1	10
646.728	1	7
647.914	1	9
649.101	1	12
650.288	1	19
651.474	1	2
652.661	1	12
653.847	1	19
655.034	1	14
656.220	1	8
657.406	1	11
658.593	1	23
659.779	1	7
660.965	1	19
662.152	1	5
663.338	1	19
664.524	1	12
665.710	1	9
666.896	1	-4
668.082	1	17
669.268	1	-4
670.454	1	20
671.640	1	13
672.826	1	9
674.011	1	11
675.197	1	0
676.383	1	8
677.569	1	4
678.754	1	6
679.940	1	-2
681.125	1	15
682.311	1	9
683.496	1	17
684.682	1	5
685.867	1	5
687.053	1	14
688.238	1	11
688.746	1	13

File: GaN_sample F_spot 12_UVVIS_200 K_200um_800 ms 2x2mm1_54.txt
340.368	1	6
341.565	1	2
342.763	1	9
343.960	1	4
345.157	1	-2
346.354	1	0
347.552	1	3
348.749	1	4
349.946	1	-2
351.143	1	10
352.340	1	14
353.537	1	9
354.734	1	13
355.931	1	19
357.127	1	25
358.324	1	36
359.521	1	45
360.718	1	63
361.914	1	69
363.111	1	108
364.308	1	129
365.504	1	216
366.701	1	273
367.897	1	340
369.093	1	389
370.290	1	378
371.486	1	357
372.682	1	303
373.879	1	236
375.075	1	213
376.271	1	187
377.467	1	139
378.663	1	114
379.859	1	95
381.055	1	94
382.251	1	73
383.447	1	66
384.643	1	66
385.839	1	54
387.035	1	47
388.230	1	48
389.426	1	35
390.622	1	28
391.817	1	28
393.013	1	30
394.208	1	26
395.404	1	21
396.599	1	17
397.795	1	19
398.990	1	12
400.186	1	16
401.381	1	3
402.576	1	5
403.771	1	13
404.967	1	15
406.162	1	12
407.357	1	11
408.552	1	-6
409.747	1	12
410.942	1	12
412.137	1	12
413.332	1	8
414.526	1	-2
415.721	1	3
416.916	1	6
418.111	1	6
419.305	1	5
420.500	1	6
421.695	1	4
422.889	1	-3
424.084	1	5
425.278	1	14
426.472	1	9
427.667	1	8
428.861	1	-2
430.055	1	14
431.250	1	4
432.444	1	8
433.638	1	4
434.832	1	4
436.026	1	10
437.220	1	8
438.414	1	-8
439.608	1	3
440.802	1	-1
441.996	1	9
443.190	1	11
444.384	1	-3
445.578	1	-6
446.771	1	14
447.965	1	8
449.159	1	1
450.352	1	2
451.546	1	3
452.739	1	12
453.933	1	10
455.126	1	1
456.320	1	3
457.513	1	11
458.706	1	2
459.899	1	5
461.093	1	2
462.286	1	6
463.479	1	2
464.672	1	7
465.865	1	9
467.058	1	6
468.251	1	5
469.444	1	-3
470.637	1	3
471.830	1	9
473.023	1	11
474.215	1	14
475.408	1	1
476.601	1	0
477.793	1	0
478.986	1	-5
480.179	1	5
481.371	1	13
482.564	1	5
483.756	1	13
484.948	1	3
486.141	1	4
487.333	1	11
488.525	1	10
489.718	1	5
490.910	1	3
492.102	1	-2
493.294	1	5
494.486	1	15
495.678	1	8
496.870	1	16
498.062	1	8
499.254	1	9
500.446	1	14
501.638	1	7
502.829	1	9
504.021	1	11
505.213	1	32
506.404	1	12
507.596	1	27
508.788	1	36
509.979	1	10
511.171	1	15
512.362	1	23
513.553	1	2
514.745	1	12
515.936	1	25
517.127	1	18
518.319	1	11
519.510	1	32
520.701	1	32
521.892	1	25
523.083	1	26
524.274	1	28
525.465	1	33
526.656	1	29
527.847	1	36
529.038	1	30
530.229	1	25
531.419	1	44
532.610	1	31
533.801	1	48
534.991	1	30
536.182	1	24
537.373	1	39
538.563	1	32
539.754	1	31
540.944	1	26
542.134	1	43
543.325	1	31
544.515	1	31
545.705	1	34
546.896	1	28
548.086	1	23
549.276	1	37
550.466	1	33
551.656	1	40
552.846	1	46
554.036	1	29
555.226	1	31
556.416	1	26
557.606	1	30
558.796	1	29
559.986	1	35
561.175	1	36
562.365	1	32
563.555	1	32
564.744	1	36
565.934	1	41
567.123	1	45
568.313	1	43
569.502	1	37
570.692	1	37
571.881	1	52
573.070	1	34
574.260	1	43
575.449	1	28
576.638	1	32
577.827	1	15
579.016	1	42
580.205	1	32
581.394	1	23
582.583	1	40
583.772	1	37
584.961	1	28
586.150	1	25
587.339	1	32
588.528	1	33
589.717	1	32
590.905	1	26
592.094	1	31
593.283	1	24
594.471	1	31
595.660	1	24
596.848	1	22
598.037	1	22
599.225	1	17
600.413	1	23
601.602	1	40
602.790	1	29
603.978	1	20
605.166	1	33
606.355	1	33
607.543	1	27
608.731	1	22
609.919	1	24
611.107	1	28
612.295	1	21
613.483	1	28
614.671	1	16
615.858	1	13
617.046	1	18
618.234	1	19
619.422	1	9
620.609	1	21
621.797	1	8
622.985	1	29
624.172	1	19
625.360	1	24
626.547	1	27
627.735	1	19
628.922	1	18
630.109	1	-1
631.297	1	19
632.484	1	17
633.671	1	14
634.858	1	15
636.045	1	23
637.232	1	12
638.419	1	13
639.606	1	20
640.793	1	26
641.980	1	14
643.167	1	14
644.354	1	10
645.541	1	10
646.728	1	17
647.914	1	7
649.101	1	14
650.288	1	20
651.474	1	10
652.661	1	11
653.847	1	21
655.034	1	6
656.220	1	2
657.406	1	13
658.593	1	15
659.779	1	11
660.965	1	17
662.152	1	14
663.338	1	19
664.524	1	14
665.710	1	6
666.896	1	-3
668.082	1	11
669.268	1	-3
670.454	1	11
671.640	1	14
672.826	1	4
674.011	1	10
675.197	1	11
676.383	1	9
677.569	1	-6
678.754	1	10
679.940	1	11
681.125	1	11
682.311	1	12
683.496	1	15
684.682	1	6
685.867	1	9
687.053	1	18
688.238	1	12
688.746	1	9

File: GaN_sample F_spot 12_UVVIS_200 K_200um_800 ms 2x2mm1_55.txt
340.368	1	-1
341.565	1	-3
342.763	1	15
343.960	1	-6
345.157	1	-5
346.354	1	10
347.552	1	13
348.749	1	2
349.946	1	6
351.143	1	12
352.340	1	13
353.537	1	11
354.734	1	17
355.931	1	15
357.127	1	20
358.324	1	24
359.521	1	52
360.718	1	61
361.914	1	77
363.111	1	90
364.308	1	138
365.504	1	204
366.701	1	255
367.897	1	336
369.093	1	363
370.290	1	392
371.486	1	331
372.682	1	271
373.879	1	222
375.075	1	192
376.271	1	162
377.467	1	134
378.663	1	119
379.859	1	93
381.055	1	100
382.251	1	73
383.447	1	66
384.643	1	58
385.839	1	44
387.035	1	47
388.230	1	41
389.426	1	32
390.622	1	29
391.817	1	34
393.013	1	33
394.208	1	30
395.404	1	15
396.599	1	13
397.795	1	16
398.990	1	14
400.186	1	18
401.381	1	5
402.576	1	6
403.771	1	14
404.967	1	9
406.162	1	14
407.357	1	9
408.552	1	8
409.747	1	14
410.942	1	16
412.137	1	8
413.332	1	10
414.526	1	2
415.721	1	2
416.916	1	0
418.111	1	12
419.305	1	3
420.500	1	2
421.695	1	6
422.889	1	-4
424.084	1	8
425.278	1	14
426.472	1	2
427.667	1	8
428.861	1	1
430.055	1	11
431.250	1	6
432.444	1	12
433.638	1	5
434.832	1	7
436.026	1	12
437.220	1	10
438.414	1	-6
439.608	1	-6
440.802	1	1
441.996	1	10
443.190	1	2
444.384	1	-1
445.578	1	-6
446.771	1	11
447.965	1	6
449.159	1	0
450.352	1	7
451.546	1	10
452.739	1	10
453.933	1	-9
455.126	1	13
456.320	1	3
457.513	1	12
458.706	1	0
459.899	1	10
461.093	1	8
462.286	1	8
463.479	1	-7
464.672	1	-1
465.865	1	8
467.058	1	4
468.251	1	-1
469.444	1	0
470.637	1	6
471.830	1	-2
473.023	1	-1
474.215	1	25
475.408	1	2
476.601	1	14
477.793	1	3
478.986	1	-2
480.179	1	5
481.371	1	13
482.564	1	0
483.756	1	9
484.948	1	1
486.141	1	-2
487.333	1	17
488.525	1	12
489.718	1	12
490.910	1	13
492.102	1	4
493.294	1	8
494.486	1	13
495.678	1	13
496.870	1	12
498.062	1	11
499.254	1	7
500.446	1	5
501.638	1	8
502.829	1	13
504.021	1	14
505.213	1	27
506.404	1	20
507.596	1	21
508.788	1	25
509.979	1	16
511.171	1	9
512.362	1	8
513.553	1	4
514.745	1	16
515.936	1	24
517.127	1	9
518.319	1	19
519.510	1	16
520.701	1	17
521.892	1	26
523.083	1	32
524.274	1	29
525.465	1	44
526.656	1	29
527.847	1	28
529.038	1	26
530.229	1	29
531.419	1	32
532.610	1	32
533.801	1	44
534.991	1	34
536.182	1	34
537.373	1	38
538.563	1	31
539.754	1	32
540.944	1	20
542.134	1	21
543.325	1	30
544.515	1	30
545.705	1	23
546.896	1	33
548.086	1	39
549.276	1	29
550.466	1	37
551.656	1	38
552.846	1	37
554.036	1	39
555.226	1	33
556.416	1	23
557.606	1	37
558.796	1	30
559.986	1	32
561.175	1	30
562.365	1	34
563.555	1	31
564.744	1	37
565.934	1	44
567.123	1	35
568.313	1	36
569.502	1	24
570.692	1	43
571.881	1	41
573.070	1	35
574.260	1	31
575.449	1	33
576.638	1	21
577.827	1	28
579.016	1	35
580.205	1	29
581.394	1	30
582.583	1	38
583.772	1	42
584.961	1	25
586.150	1	28
587.339	1	40
588.528	1	25
589.717	1	31
590.905	1	29
592.094	1	32
593.283	1	24
594.471	1	35
595.660	1	16
596.848	1	32
598.037	1	23
599.225	1	18
600.413	1	29
601.602	1	29
602.790	1	26
603.978	1	16
605.166	1	36
606.355	1	26
607.543	1	34
608.731	1	26
609.919	1	32
611.107	1	20
612.295	1	16
613.483	1	31
614.671	1	18
615.858	1	27
617.046	1	34
618.234	1	30
619.422	1	12
620.609	1	21
621.797	1	15
622.985	1	23
624.172	1	11
625.360	1	18
626.547	1	18
627.735	1	5
628.922	1	22
630.109	1	10
631.297	1	23
632.484	1	10
633.671	1	20
634.858	1	19
636.045	1	22
637.232	1	6
638.419	1	4
639.606	1	27
640.793	1	24
641.980	1	9
643.167	1	6
644.354	1	19
645.541	1	15
646.728	1	8
647.914	1	11
649.101	1	7
650.288	1	16
651.474	1	7
652.661	1	4
653.847	1	16
655.034	1	8
656.220	1	4
657.406	1	15
658.593	1	10
659.779	1	11
660.965	1	19
662.152	1	18
663.338	1	9
664.524	1	9
665.710	1	16
666.896	1	4
668.082	1	17
669.268	1	6
670.454	1	16
671.640	1	7
672.826	1	4
674.011	1	15
675.197	1	-4
676.383	1	10
677.569	1	4
678.754	1	8
679.940	1	4
681.125	1	7
682.311	1	16
683.496	1	15
684.682	1	1
685.867	1	3
687.053	1	12
688.238	1	19
688.746	1	19

File: GaN_sample F_spot 12_UVVIS_200 K_200um_800 ms 2x2mm1_56.txt
340.368	1	12
341.565	1	-8
342.763	1	-2
343.960	1	1
345.157	1	-1
346.354	1	5
347.552	1	5
348.749	1	4
349.946	1	-3
351.143	1	14
352.340	1	17
353.537	1	23
354.734	1	13
355.931	1	18
357.127	1	30
358.324	1	22
359.521	1	44
360.718	1	53
361.914	1	69
363.111	1	100
364.308	1	132
365.504	1	188
366.701	1	244
367.897	1	303
369.093	1	346
370.290	1	339
371.486	1	313
372.682	1	271
373.879	1	228
375.075	1	194
376.271	1	161
377.467	1	124
378.663	1	110
379.859	1	97
381.055	1	87
382.251	1	66
383.447	1	61
384.643	1	60
385.839	1	51
387.035	1	42
388.230	1	44
389.426	1	24
390.622	1	20
391.817	1	23
393.013	1	30
394.208	1	24
395.404	1	17
396.599	1	22
397.795	1	17
398.990	1	20
400.186	1	15
401.381	1	7
402.576	1	13
403.771	1	16
404.967	1	7
406.162	1	13
407.357	1	16
408.552	1	5
409.747	1	3
410.942	1	7
412.137	1	15
413.332	1	7
414.526	1	14
415.721	1	5
416.916	1	5
418.111	1	5
419.305	1	9
420.500	1	3
421.695	1	1
422.889	1	2
424.084	1	2
425.278	1	7
426.472	1	1
427.667	1	13
428.861	1	5
430.055	1	10
431.250	1	9
432.444	1	13
433.638	1	16
434.832	1	7
436.026	1	13
437.220	1	12
438.414	1	-16
439.608	1	-5
440.802	1	-2
441.996	1	5
443.190	1	5
444.384	1	1
445.578	1	-6
446.771	1	15
447.965	1	2
449.159	1	0
450.352	1	5
451.546	1	-3
452.739	1	1
453.933	1	5
455.126	1	4
456.320	1	8
457.513	1	15
458.706	1	5
459.899	1	6
461.093	1	7
462.286	1	5
463.479	1	-2
464.672	1	-5
465.865	1	-3
467.058	1	6
468.251	1	1
469.444	1	-9
470.637	1	-1
471.830	1	-7
473.023	1	7
474.215	1	16
475.408	1	9
476.601	1	1
477.793	1	8
478.986	1	5
480.179	1	1
481.371	1	2
482.564	1	4
483.756	1	15
484.948	1	0
486.141	1	8
487.333	1	4
488.525	1	7
489.718	1	17
490.910	1	6
492.102	1	6
493.294	1	6
494.486	1	16
495.678	1	7
496.870	1	14
498.062	1	4
499.254	1	7
500.446	1	-3
501.638	1	16
502.829	1	25
504.021	1	7
505.213	1	21
506.404	1	16
507.596	1	16
508.788	1	20
509.979	1	12
511.171	1	13
512.362	1	4
513.553	1	10
514.745	1	16
515.936	1	8
517.127	1	22
518.319	1	19
519.510	1	23
520.701	1	17
521.892	1	24
523.083	1	19
524.274	1	24
525.465	1	35
526.656	1	22
527.847	1	27
529.038	1	30
530.229	1	24
531.419	1	31
532.610	1	23
533.801	1	43
534.991	1	22
536.182	1	30
537.373	1	22
538.563	1	42
539.754	1	34
540.944	1	25
542.134	1	34
543.325	1	34
544.515	1	24
545.705	1	30
546.896	1	31
548.086	1	34
549.276	1	40
550.466	1	43
551.656	1	39
552.846	1	34
554.036	1	31
555.226	1	26
556.416	1	27
557.606	1	34
558.796	1	30
559.986	1	33
561.175	1	30
562.365	1	27
563.555	1	28
564.744	1	28
565.934	1	49
567.123	1	32
568.313	1	28
569.502	1	21
570.692	1	19
571.881	1	38
573.070	1	40
574.260	1	42
575.449	1	23
576.638	1	23
577.827	1	33
579.016	1	41
580.205	1	30
581.394	1	30
582.583	1	38
583.772	1	32
584.961	1	41
586.150	1	26
587.339	1	30
588.528	1	24
589.717	1	27
590.905	1	16
592.094	1	29
593.283	1	26
594.471	1	34
595.660	1	22
596.848	1	17
598.037	1	14
599.225	1	14
600.413	1	31
601.602	1	36
602.790	1	22
603.978	1	20
605.166	1	29
606.355	1	26
607.543	1	24
608.731	1	16
609.919	1	36
611.107	1	25
612.295	1	19
613.483	1	33
614.671	1	29
615.858	1	20
617.046	1	16
618.234	1	13
619.422	1	8
620.609	1	23
621.797	1	17
622.985	1	10
624.172	1	18
625.360	1	17
626.547	1	10
627.735	1	21
628.922	1	12
630.109	1	8
631.297	1	11
632.484	1	4
633.671	1	11
634.858	1	15
636.045	1	20
637.232	1	9
638.419	1	11
639.606	1	18
640.793	1	24
641.980	1	21
643.167	1	7
644.354	1	4
645.541	1	10
646.728	1	10
647.914	1	10
649.101	1	13
650.288	1	21
651.474	1	4
652.661	1	5
653.847	1	12
655.034	1	12
656.220	1	5
657.406	1	23
658.593	1	19
659.779	1	11
660.965	1	10
662.152	1	7
663.338	1	15
664.524	1	10
665.710	1	13
666.896	1	4
668.082	1	10
669.268	1	8
670.454	1	11
671.640	1	9
672.826	1	0
674.011	1	10
675.197	1	7
676.383	1	11
677.569	1	10
678.754	1	13
679.940	1	11
681.125	1	12
682.311	1	8
683.496	1	10
684.682	1	3
685.867	1	9
687.053	1	16
688.238	1	17
688.746	1	10

File: GaN_sample F_spot 12_UVVIS_200 K_200um_800 ms 2x2mm1_57.txt
340.368	1	9
341.565	1	0
342.763	1	6
343.960	1	13
345.157	1	-2
346.354	1	5
347.552	1	6
348.749	1	0
349.946	1	3
351.143	1	13
352.340	1	9
353.537	1	6
354.734	1	8
355.931	1	18
357.127	1	35
358.324	1	32
359.521	1	57
360.718	1	47
361.914	1	70
363.111	1	90
364.308	1	125
365.504	1	182
366.701	1	237
367.897	1	284
369.093	1	327
370.290	1	323
371.486	1	296
372.682	1	253
373.879	1	213
375.075	1	171
376.271	1	157
377.467	1	134
378.663	1	108
379.859	1	85
381.055	1	84
382.251	1	65
383.447	1	60
384.643	1	42
385.839	1	53
387.035	1	40
388.230	1	41
389.426	1	31
390.622	1	28
391.817	1	25
393.013	1	19
394.208	1	19
395.404	1	15
396.599	1	15
397.795	1	14
398.990	1	11
400.186	1	13
401.381	1	3
402.576	1	10
403.771	1	13
404.967	1	20
406.162	1	20
407.357	1	2
408.552	1	-3
409.747	1	14
410.942	1	11
412.137	1	12
413.332	1	7
414.526	1	-1
415.721	1	5
416.916	1	-1
418.111	1	9
419.305	1	3
420.500	1	-1
421.695	1	1
422.889	1	0
424.084	1	13
425.278	1	23
426.472	1	7
427.667	1	0
428.861	1	3
430.055	1	7
431.250	1	-3
432.444	1	14
433.638	1	5
434.832	1	6
436.026	1	9
437.220	1	11
438.414	1	5
439.608	1	2
440.802	1	-1
441.996	1	9
443.190	1	8
444.384	1	4
445.578	1	2
446.771	1	12
447.965	1	3
449.159	1	2
450.352	1	-2
451.546	1	3
452.739	1	18
453.933	1	-5
455.126	1	-10
456.320	1	0
457.513	1	9
458.706	1	5
459.899	1	-8
461.093	1	15
462.286	1	7
463.479	1	1
464.672	1	12
465.865	1	4
467.058	1	-1
468.251	1	0
469.444	1	-5
470.637	1	5
471.830	1	7
473.023	1	3
474.215	1	18
475.408	1	2
476.601	1	5
477.793	1	6
478.986	1	-2
480.179	1	9
481.371	1	7
482.564	1	7
483.756	1	16
484.948	1	1
486.141	1	5
487.333	1	5
488.525	1	7
489.718	1	9
490.910	1	14
492.102	1	4
493.294	1	5
494.486	1	10
495.678	1	8
496.870	1	11
498.062	1	18
499.254	1	13
500.446	1	9
501.638	1	-2
502.829	1	17
504.021	1	16
505.213	1	25
506.404	1	18
507.596	1	18
508.788	1	24
509.979	1	13
511.171	1	9
512.362	1	4
513.553	1	5
514.745	1	13
515.936	1	19
517.127	1	21
518.319	1	18
519.510	1	25
520.701	1	15
521.892	1	18
523.083	1	12
524.274	1	30
525.465	1	36
526.656	1	29
527.847	1	27
529.038	1	26
530.229	1	35
531.419	1	37
532.610	1	20
533.801	1	44
534.991	1	28
536.182	1	21
537.373	1	28
538.563	1	30
539.754	1	33
540.944	1	19
542.134	1	28
543.325	1	38
544.515	1	13
545.705	1	32
546.896	1	23
548.086	1	39
549.276	1	35
550.466	1	42
551.656	1	39
552.846	1	35
554.036	1	37
555.226	1	20
556.416	1	30
557.606	1	46
558.796	1	32
559.986	1	22
561.175	1	31
562.365	1	34
563.555	1	28
564.744	1	39
565.934	1	36
567.123	1	33
568.313	1	27
569.502	1	32
570.692	1	45
571.881	1	38
573.070	1	27
574.260	1	40
575.449	1	25
576.638	1	24
577.827	1	34
579.016	1	31
580.205	1	28
581.394	1	30
582.583	1	47
583.772	1	40
584.961	1	28
586.150	1	28
587.339	1	25
588.528	1	33
589.717	1	26
590.905	1	19
592.094	1	18
593.283	1	17
594.471	1	35
595.660	1	25
596.848	1	21
598.037	1	24
599.225	1	-1
600.413	1	28
601.602	1	28
602.790	1	22
603.978	1	25
605.166	1	18
606.355	1	33
607.543	1	23
608.731	1	23
609.919	1	35
611.107	1	14
612.295	1	22
613.483	1	27
614.671	1	14
615.858	1	26
617.046	1	18
618.234	1	15
619.422	1	12
620.609	1	21
621.797	1	12
622.985	1	11
624.172	1	2
625.360	1	19
626.547	1	12
627.735	1	10
628.922	1	12
630.109	1	4
631.297	1	9
632.484	1	7
633.671	1	10
634.858	1	12
636.045	1	21
637.232	1	10
638.419	1	0
639.606	1	17
640.793	1	24
641.980	1	15
643.167	1	11
644.354	1	19
645.541	1	11
646.728	1	10
647.914	1	17
649.101	1	4
650.288	1	12
651.474	1	3
652.661	1	6
653.847	1	24
655.034	1	7
656.220	1	6
657.406	1	16
658.593	1	18
659.779	1	15
660.965	1	18
662.152	1	1
663.338	1	19
664.524	1	-1
665.710	1	3
666.896	1	9
668.082	1	11
669.268	1	1
670.454	1	18
671.640	1	7
672.826	1	10
674.011	1	10
675.197	1	4
676.383	1	6
677.569	1	1
678.754	1	5
679.940	1	9
681.125	1	21
682.311	1	12
683.496	1	13
684.682	1	4
685.867	1	5
687.053	1	16
688.238	1	15
688.746	1	5

File: GaN_sample F_spot 12_UVVIS_200 K_200um_800 ms 2x2mm1_58.txt
340.368	1	5
341.565	1	1
342.763	1	10
343.960	1	-2
345.157	1	0
346.354	1	11
347.552	1	5
348.749	1	-7
349.946	1	7
351.143	1	8
352.340	1	9
353.537	1	9
354.734	1	23
355.931	1	17
357.127	1	32
358.324	1	29
359.521	1	43
360.718	1	46
361.914	1	68
363.111	1	98
364.308	1	118
365.504	1	177
366.701	1	228
367.897	1	268
369.093	1	302
370.290	1	318
371.486	1	309
372.682	1	256
373.879	1	202
375.075	1	179
376.271	1	147
377.467	1	117
378.663	1	103
379.859	1	80
381.055	1	90
382.251	1	73
383.447	1	56
384.643	1	56
385.839	1	43
387.035	1	45
388.230	1	47
389.426	1	33
390.622	1	26
391.817	1	29
393.013	1	20
394.208	1	18
395.404	1	19
396.599	1	12
397.795	1	14
398.990	1	18
400.186	1	12
401.381	1	-1
402.576	1	10
403.771	1	10
404.967	1	13
406.162	1	16
407.357	1	10
408.552	1	-1
409.747	1	15
410.942	1	16
412.137	1	12
413.332	1	12
414.526	1	-1
415.721	1	6
416.916	1	7
418.111	1	5
419.305	1	9
420.500	1	1
421.695	1	4
422.889	1	-9
424.084	1	-1
425.278	1	11
426.472	1	6
427.667	1	15
428.861	1	0
430.055	1	9
431.250	1	2
432.444	1	17
433.638	1	-3
434.832	1	6
436.026	1	8
437.220	1	2
438.414	1	-1
439.608	1	0
440.802	1	-2
441.996	1	11
443.190	1	3
444.384	1	-8
445.578	1	-4
446.771	1	12
447.965	1	5
449.159	1	8
450.352	1	2
451.546	1	6
452.739	1	9
453.933	1	0
455.126	1	-4
456.320	1	12
457.513	1	10
458.706	1	11
459.899	1	2
461.093	1	6
462.286	1	8
463.479	1	0
464.672	1	2
465.865	1	9
467.058	1	4
468.251	1	0
469.444	1	-1
470.637	1	2
471.830	1	-2
473.023	1	14
474.215	1	19
475.408	1	4
476.601	1	3
477.793	1	8
478.986	1	-1
480.179	1	7
481.371	1	-2
482.564	1	6
483.756	1	10
484.948	1	1
486.141	1	-2
487.333	1	11
488.525	1	9
489.718	1	3
490.910	1	-6
492.102	1	6
493.294	1	1
494.486	1	12
495.678	1	7
496.870	1	10
498.062	1	3
499.254	1	4
500.446	1	-3
501.638	1	8
502.829	1	12
504.021	1	11
505.213	1	17
506.404	1	22
507.596	1	24
508.788	1	28
509.979	1	20
511.171	1	8
512.362	1	14
513.553	1	2
514.745	1	9
515.936	1	12
517.127	1	23
518.319	1	21
519.510	1	17
520.701	1	11
521.892	1	16
523.083	1	20
524.274	1	27
525.465	1	15
526.656	1	18
527.847	1	29
529.038	1	32
530.229	1	18
531.419	1	25
532.610	1	21
533.801	1	32
534.991	1	25
536.182	1	18
537.373	1	25
538.563	1	31
539.754	1	24
540.944	1	30
542.134	1	36
543.325	1	21
544.515	1	23
545.705	1	31
546.896	1	28
548.086	1	27
549.276	1	30
550.466	1	32
551.656	1	32
552.846	1	39
554.036	1	32
555.226	1	19
556.416	1	30
557.606	1	35
558.796	1	27
559.986	1	29
561.175	1	23
562.365	1	35
563.555	1	28
564.744	1	27
565.934	1	32
567.123	1	35
568.313	1	43
569.502	1	33
570.692	1	31
571.881	1	38
573.070	1	28
574.260	1	39
575.449	1	30
576.638	1	22
577.827	1	27
579.016	1	31
580.205	1	26
581.394	1	34
582.583	1	38
583.772	1	39
584.961	1	39
586.150	1	21
587.339	1	36
588.528	1	29
589.717	1	25
590.905	1	20
592.094	1	22
593.283	1	15
594.471	1	34
595.660	1	13
596.848	1	27
598.037	1	23
599.225	1	7
600.413	1	22
601.602	1	38
602.790	1	25
603.978	1	21
605.166	1	30
606.355	1	20
607.543	1	17
608.731	1	21
609.919	1	36
611.107	1	13
612.295	1	8
613.483	1	16
614.671	1	29
615.858	1	22
617.046	1	20
618.234	1	19
619.422	1	5
620.609	1	20
621.797	1	14
622.985	1	10
624.172	1	21
625.360	1	18
626.547	1	25
627.735	1	20
628.922	1	23
630.109	1	11
631.297	1	12
632.484	1	11
633.671	1	12
634.858	1	12
636.045	1	23
637.232	1	7
638.419	1	7
639.606	1	16
640.793	1	13
641.980	1	19
643.167	1	6
644.354	1	20
645.541	1	6
646.728	1	8
647.914	1	4
649.101	1	9
650.288	1	10
651.474	1	9
652.661	1	14
653.847	1	15
655.034	1	5
656.220	1	-4
657.406	1	16
658.593	1	18
659.779	1	10
660.965	1	16
662.152	1	12
663.338	1	12
664.524	1	5
665.710	1	6
666.896	1	8
668.082	1	11
669.268	1	11
670.454	1	11
671.640	1	10
672.826	1	15
674.011	1	9
675.197	1	1
676.383	1	2
677.569	1	1
678.754	1	5
679.940	1	2
681.125	1	12
682.311	1	12
683.496	1	12
684.682	1	-1
685.867	1	11
687.053	1	10
688.238	1	11
688.746	1	20