Folder: cryo-il_analysis/Data/GaN_200K_800ms (part 11)

File: GaN_sample F_spot 12_UVVIS_200 K_200um_800 ms 2x2mm1_77.txt
340.368	1	-2
341.565	1	-6
342.763	1	5
343.960	1	3
345.157	1	-5
346.354	1	13
347.552	1	-2
348.749	1	-4
349.946	1	1
351.143	1	5
352.340	1	5
353.537	1	8
354.734	1	14
355.931	1	11
357.127	1	9
358.324	1	20
359.521	1	26
360.718	1	30
361.914	1	42
363.111	1	49
364.308	1	66
365.504	1	94
366.701	1	120
367.897	1	145
369.093	1	146
370.290	1	165
371.486	1	151
372.682	1	139
373.879	1	115
375.075	1	90
376.271	1	86
377.467	1	71
378.663	1	61
379.859	1	52
381.055	1	49
382.251	1	28
383.447	1	29
384.643	1	40
385.839	1	27
387.035	1	33
388.230	1	41
389.426	1	18
390.622	1	6
391.817	1	18
393.013	1	7
394.208	1	13
395.404	1	4
396.599	1	-1
397.795	1	9
398.990	1	11
400.186	1	15
401.381	1	-3
402.576	1	2
403.771	1	10
404.967	1	10
406.162	1	9
407.357	1	-6
408.552	1	4
409.747	1	-3
410.942	1	6
412.137	1	7
413.332	1	4
414.526	1	7
415.721	1	6
416.916	1	-12
418.111	1	5
419.305	1	5
420.500	1	1
421.695	1	1
422.889	1	-1
424.084	1	9
425.278	1	14
426.472	1	0
427.667	1	10
428.861	1	2
430.055	1	10
431.250	1	6
432.444	1	7
433.638	1	4
434.832	1	19
436.026	1	8
437.220	1	6
438.414	1	-1
439.608	1	-1
440.802	1	2
441.996	1	6
443.190	1	6
444.384	1	-2
445.578	1	-9
446.771	1	8
447.965	1	9
449.159	1	-8
450.352	1	6
451.546	1	6
452.739	1	3
453.933	1	1
455.126	1	-1
456.320	1	2
457.513	1	8
458.706	1	7
459.899	1	0
461.093	1	-4
462.286	1	6
463.479	1	10
464.672	1	3
465.865	1	1
467.058	1	6
468.251	1	1
469.444	1	-3
470.637	1	1
471.830	1	2
473.023	1	14
474.215	1	7
475.408	1	9
476.601	1	5
477.793	1	0
478.986	1	-1
480.179	1	5
481.371	1	5
482.564	1	13
483.756	1	15
484.948	1	-5
486.141	1	1
487.333	1	10
488.525	1	3
489.718	1	-1
490.910	1	10
492.102	1	5
493.294	1	4
494.486	1	12
495.678	1	8
496.870	1	15
498.062	1	1
499.254	1	10
500.446	1	-2
501.638	1	9
502.829	1	5
504.021	1	6
505.213	1	11
506.404	1	10
507.596	1	15
508.788	1	23
509.979	1	11
511.171	1	-2
512.362	1	3
513.553	1	2
514.745	1	4
515.936	1	17
517.127	1	4
518.319	1	4
519.510	1	6
520.701	1	15
521.892	1	13
523.083	1	9
524.274	1	8
525.465	1	12
526.656	1	11
527.847	1	14
529.038	1	21
530.229	1	11
531.419	1	20
532.610	1	15
533.801	1	34
534.991	1	14
536.182	1	13
537.373	1	22
538.563	1	26
539.754	1	20
540.944	1	13
542.134	1	15
543.325	1	13
544.515	1	8
545.705	1	11
546.896	1	16
548.086	1	17
549.276	1	20
550.466	1	8
551.656	1	15
552.846	1	14
554.036	1	12
555.226	1	8
556.416	1	17
557.606	1	16
558.796	1	17
559.986	1	11
561.175	1	17
562.365	1	19
563.555	1	19
564.744	1	22
565.934	1	23
567.123	1	19
568.313	1	29
569.502	1	16
570.692	1	24
571.881	1	25
573.070	1	14
574.260	1	23
575.449	1	12
576.638	1	10
577.827	1	9
579.016	1	20
580.205	1	20
581.394	1	21
582.583	1	32
583.772	1	28
584.961	1	21
586.150	1	26
587.339	1	31
588.528	1	16
589.717	1	18
590.905	1	15
592.094	1	17
593.283	1	22
594.471	1	21
595.660	1	18
596.848	1	15
598.037	1	10
599.225	1	6
600.413	1	31
601.602	1	28
602.790	1	5
603.978	1	24
605.166	1	16
606.355	1	24
607.543	1	19
608.731	1	17
609.919	1	25
611.107	1	12
612.295	1	11
613.483	1	7
614.671	1	16
615.858	1	12
617.046	1	11
618.234	1	18
619.422	1	1
620.609	1	12
621.797	1	8
622.985	1	3
624.172	1	-1
625.360	1	15
626.547	1	14
627.735	1	9
628.922	1	17
630.109	1	-4
631.297	1	11
632.484	1	11
633.671	1	6
634.858	1	8
636.045	1	15
637.232	1	9
638.419	1	-1
639.606	1	10
640.793	1	12
641.980	1	13
643.167	1	5
644.354	1	7
645.541	1	14
646.728	1	-1
647.914	1	8
649.101	1	13
650.288	1	10
651.474	1	5
652.661	1	-1
653.847	1	8
655.034	1	4
656.220	1	0
657.406	1	17
658.593	1	9
659.779	1	5
660.965	1	15
662.152	1	10
663.338	1	12
664.524	1	0
665.710	1	7
666.896	1	1
668.082	1	20
669.268	1	7
670.454	1	15
671.640	1	7
672.826	1	11
674.011	1	6
675.197	1	-4
676.383	1	7
677.569	1	-2
678.754	1	6
679.940	1	3
681.125	1	6
682.311	1	13
683.496	1	6
684.682	1	3
685.867	1	3
687.053	1	5
688.238	1	8
688.746	1	11

File: GaN_sample F_spot 12_UVVIS_200 K_200um_800 ms 2x2mm1_78.txt
340.368	1	0
341.565	1	-12
342.763	1	13
343.960	1	3
345.157	1	-6
346.354	1	7
347.552	1	-5
348.749	1	3
349.946	1	2
351.143	1	5
352.340	1	14
353.537	1	16
354.734	1	14
355.931	1	10
357.127	1	14
358.324	1	19
359.521	1	33
360.718	1	29
361.914	1	45
363.111	1	53
364.308	1	66
365.504	1	90
366.701	1	102
367.897	1	147
369.093	1	150
370.290	1	145
371.486	1	145
372.682	1	121
373.879	1	102
375.075	1	88
376.271	1	88
377.467	1	83
378.663	1	55
379.859	1	43
381.055	1	50
382.251	1	32
383.447	1	33
384.643	1	39
385.839	1	26
387.035	1	24
388.230	1	25
389.426	1	24
390.622	1	17
391.817	1	13
393.013	1	13
394.208	1	11
395.404	1	7
396.599	1	4
397.795	1	7
398.990	1	11
400.186	1	-1
401.381	1	-8
402.576	1	9
403.771	1	8
404.967	1	10
406.162	1	19
407.357	1	3
408.552	1	-6
409.747	1	4
410.942	1	5
412.137	1	8
413.332	1	2
414.526	1	3
415.721	1	-2
416.916	1	1
418.111	1	1
419.305	1	10
420.500	1	1
421.695	1	3
422.889	1	-2
424.084	1	3
425.278	1	16
426.472	1	-1
427.667	1	9
428.861	1	-4
430.055	1	-7
431.250	1	0
432.444	1	14
433.638	1	-2
434.832	1	4
436.026	1	9
437.220	1	8
438.414	1	-3
439.608	1	-5
440.802	1	2
441.996	1	10
443.190	1	6
444.384	1	-4
445.578	1	-7
446.771	1	11
447.965	1	7
449.159	1	0
450.352	1	-1
451.546	1	2
452.739	1	3
453.933	1	3
455.126	1	-2
456.320	1	-2
457.513	1	7
458.706	1	2
459.899	1	-2
461.093	1	1
462.286	1	3
463.479	1	-5
464.672	1	3
465.865	1	3
467.058	1	4
468.251	1	3
469.444	1	1
470.637	1	6
471.830	1	4
473.023	1	5
474.215	1	9
475.408	1	2
476.601	1	0
477.793	1	1
478.986	1	2
480.179	1	6
481.371	1	2
482.564	1	8
483.756	1	15
484.948	1	5
486.141	1	3
487.333	1	-1
488.525	1	8
489.718	1	9
490.910	1	-2
492.102	1	-10
493.294	1	8
494.486	1	4
495.678	1	0
496.870	1	2
498.062	1	6
499.254	1	2
500.446	1	2
501.638	1	3
502.829	1	13
504.021	1	9
505.213	1	9
506.404	1	12
507.596	1	10
508.788	1	23
509.979	1	12
511.171	1	10
512.362	1	6
513.553	1	1
514.745	1	3
515.936	1	7
517.127	1	8
518.319	1	9
519.510	1	5
520.701	1	18
521.892	1	13
523.083	1	9
524.274	1	2
525.465	1	19
526.656	1	9
527.847	1	18
529.038	1	17
530.229	1	13
531.419	1	20
532.610	1	5
533.801	1	24
534.991	1	7
536.182	1	14
537.373	1	13
538.563	1	14
539.754	1	21
540.944	1	13
542.134	1	15
543.325	1	14
544.515	1	21
545.705	1	8
546.896	1	18
548.086	1	16
549.276	1	11
550.466	1	21
551.656	1	23
552.846	1	28
554.036	1	15
555.226	1	5
556.416	1	6
557.606	1	15
558.796	1	16
559.986	1	12
561.175	1	24
562.365	1	17
563.555	1	9
564.744	1	21
565.934	1	21
567.123	1	13
568.313	1	23
569.502	1	21
570.692	1	23
571.881	1	31
573.070	1	11
574.260	1	26
575.449	1	18
576.638	1	12
577.827	1	8
579.016	1	21
580.205	1	10
581.394	1	3
582.583	1	26
583.772	1	15
584.961	1	11
586.150	1	11
587.339	1	15
588.528	1	20
589.717	1	15
590.905	1	12
592.094	1	4
593.283	1	6
594.471	1	18
595.660	1	8
596.848	1	8
598.037	1	17
599.225	1	2
600.413	1	17
601.602	1	23
602.790	1	17
603.978	1	11
605.166	1	12
606.355	1	15
607.543	1	4
608.731	1	12
609.919	1	9
611.107	1	9
612.295	1	1
613.483	1	11
614.671	1	13
615.858	1	10
617.046	1	11
618.234	1	15
619.422	1	-1
620.609	1	13
621.797	1	5
622.985	1	8
624.172	1	16
625.360	1	16
626.547	1	5
627.735	1	9
628.922	1	16
630.109	1	-7
631.297	1	5
632.484	1	5
633.671	1	3
634.858	1	9
636.045	1	13
637.232	1	14
638.419	1	3
639.606	1	8
640.793	1	15
641.980	1	6
643.167	1	5
644.354	1	8
645.541	1	7
646.728	1	2
647.914	1	9
649.101	1	4
650.288	1	9
651.474	1	-2
652.661	1	1
653.847	1	10
655.034	1	15
656.220	1	5
657.406	1	7
658.593	1	19
659.779	1	14
660.965	1	10
662.152	1	13
663.338	1	6
664.524	1	7
665.710	1	1
666.896	1	-5
668.082	1	10
669.268	1	10
670.454	1	12
671.640	1	5
672.826	1	3
674.011	1	13
675.197	1	5
676.383	1	8
677.569	1	5
678.754	1	4
679.940	1	4
681.125	1	3
682.311	1	14
683.496	1	10
684.682	1	-2
685.867	1	3
687.053	1	6
688.238	1	13
688.746	1	13

File: GaN_sample F_spot 12_UVVIS_200 K_200um_800 ms 2x2mm1_79.txt
340.368	1	4
341.565	1	-7
342.763	1	8
343.960	1	12
345.157	1	-3
346.354	1	4
347.552	1	3
348.749	1	1
349.946	1	-6
351.143	1	0
352.340	1	6
353.537	1	7
354.734	1	8
355.931	1	14
357.127	1	21
358.324	1	17
359.521	1	32
360.718	1	34
361.914	1	38
363.111	1	51
364.308	1	58
365.504	1	91
366.701	1	105
367.897	1	129
369.093	1	139
370.290	1	132
371.486	1	149
372.682	1	125
373.879	1	108
375.075	1	92
376.271	1	72
377.467	1	70
378.663	1	51
379.859	1	52
381.055	1	49
382.251	1	27
383.447	1	33
384.643	1	34
385.839	1	31
387.035	1	25
388.230	1	22
389.426	1	21
390.622	1	16
391.817	1	11
393.013	1	18
394.208	1	10
395.404	1	3
396.599	1	9
397.795	1	11
398.990	1	14
400.186	1	8
401.381	1	0
402.576	1	-8
403.771	1	11
404.967	1	13
406.162	1	12
407.357	1	4
408.552	1	11
409.747	1	2
410.942	1	5
412.137	1	11
413.332	1	6
414.526	1	3
415.721	1	3
416.916	1	-7
418.111	1	2
419.305	1	11
420.500	1	5
421.695	1	3
422.889	1	-16
424.084	1	4
425.278	1	14
426.472	1	-4
427.667	1	12
428.861	1	-1
430.055	1	8
431.250	1	-1
432.444	1	1
433.638	1	5
434.832	1	9
436.026	1	13
437.220	1	3
438.414	1	4
439.608	1	-5
440.802	1	5
441.996	1	7
443.190	1	2
444.384	1	-4
445.578	1	-4
446.771	1	15
447.965	1	7
449.159	1	-7
450.352	1	1
451.546	1	2
452.739	1	7
453.933	1	3
455.126	1	-9
456.320	1	-1
457.513	1	9
458.706	1	8
459.899	1	7
461.093	1	2
462.286	1	6
463.479	1	-10
464.672	1	4
465.865	1	2
467.058	1	8
468.251	1	-5
469.444	1	3
470.637	1	6
471.830	1	5
473.023	1	6
474.215	1	17
475.408	1	7
476.601	1	4
477.793	1	1
478.986	1	2
480.179	1	1
481.371	1	1
482.564	1	11
483.756	1	13
484.948	1	-6
486.141	1	2
487.333	1	4
488.525	1	3
489.718	1	4
490.910	1	8
492.102	1	-1
493.294	1	3
494.486	1	13
495.678	1	-2
496.870	1	7
498.062	1	10
499.254	1	4
500.446	1	-3
501.638	1	1
502.829	1	6
504.021	1	7
505.213	1	12
506.404	1	16
507.596	1	14
508.788	1	25
509.979	1	2
511.171	1	6
512.362	1	3
513.553	1	-5
514.745	1	0
515.936	1	8
517.127	1	9
518.319	1	15
519.510	1	13
520.701	1	13
521.892	1	4
523.083	1	9
524.274	1	7
525.465	1	14
526.656	1	16
527.847	1	12
529.038	1	16
530.229	1	5
531.419	1	10
532.610	1	0
533.801	1	24
534.991	1	12
536.182	1	9
537.373	1	8
538.563	1	22
539.754	1	7
540.944	1	17
542.134	1	18
543.325	1	7
544.515	1	8
545.705	1	13
546.896	1	12
548.086	1	14
549.276	1	16
550.466	1	10
551.656	1	22
552.846	1	29
554.036	1	18
555.226	1	3
556.416	1	8
557.606	1	18
558.796	1	16
559.986	1	9
561.175	1	12
562.365	1	15
563.555	1	8
564.744	1	13
565.934	1	18
567.123	1	10
568.313	1	22
569.502	1	12
570.692	1	20
571.881	1	15
573.070	1	2
574.260	1	15
575.449	1	4
576.638	1	12
577.827	1	8
579.016	1	17
580.205	1	13
581.394	1	11
582.583	1	16
583.772	1	14
584.961	1	10
586.150	1	9
587.339	1	9
588.528	1	18
589.717	1	15
590.905	1	12
592.094	1	8
593.283	1	12
594.471	1	28
595.660	1	13
596.848	1	8
598.037	1	11
599.225	1	-4
600.413	1	20
601.602	1	17
602.790	1	20
603.978	1	16
605.166	1	26
606.355	1	13
607.543	1	12
608.731	1	17
609.919	1	22
611.107	1	15
612.295	1	7
613.483	1	15
614.671	1	12
615.858	1	11
617.046	1	10
618.234	1	8
619.422	1	11
620.609	1	18
621.797	1	-1
622.985	1	9
624.172	1	15
625.360	1	12
626.547	1	9
627.735	1	21
628.922	1	16
630.109	1	-4
631.297	1	6
632.484	1	5
633.671	1	1
634.858	1	5
636.045	1	24
637.232	1	2
638.419	1	8
639.606	1	10
640.793	1	16
641.980	1	15
643.167	1	-5
644.354	1	7
645.541	1	6
646.728	1	13
647.914	1	3
649.101	1	11
650.288	1	7
651.474	1	1
652.661	1	2
653.847	1	7
655.034	1	7
656.220	1	5
657.406	1	9
658.593	1	13
659.779	1	10
660.965	1	17
662.152	1	6
663.338	1	12
664.524	1	4
665.710	1	5
666.896	1	8
668.082	1	10
669.268	1	10
670.454	1	7
671.640	1	0
672.826	1	12
674.011	1	12
675.197	1	-7
676.383	1	15
677.569	1	0
678.754	1	-2
679.940	1	3
681.125	1	11
682.311	1	10
683.496	1	6
684.682	1	1
685.867	1	2
687.053	1	4
688.238	1	2
688.746	1	6

File: GaN_sample F_spot 12_UVVIS_200 K_200um_800 ms 2x2mm1_80.txt
340.368	1	4
341.565	1	-6
342.763	1	5
343.960	1	7
345.157	1	3
346.354	1	11
347.552	1	-6
348.749	1	1
349.946	1	6
351.143	1	-3
352.340	1	9
353.537	1	7
354.734	1	9
355.931	1	11
357.127	1	12
358.324	1	14
359.521	1	32
360.718	1	39
361.914	1	39
363.111	1	49
364.308	1	66
365.504	1	80
366.701	1	115
367.897	1	132
369.093	1	139
370.290	1	140
371.486	1	141
372.682	1	116
373.879	1	92
375.075	1	82
376.271	1	76
377.467	1	57
378.663	1	54
379.859	1	51
381.055	1	42
382.251	1	31
383.447	1	29
384.643	1	42
385.839	1	21
387.035	1	15
388.230	1	30
389.426	1	16
390.622	1	13
391.817	1	17
393.013	1	12
394.208	1	8
395.404	1	3
396.599	1	4
397.795	1	11
398.990	1	6
400.186	1	15
401.381	1	4
402.576	1	-1
403.771	1	12
404.967	1	2
406.162	1	9
407.357	1	9
408.552	1	-8
409.747	1	2
410.942	1	15
412.137	1	10
413.332	1	5
414.526	1	3
415.721	1	13
416.916	1	-1
418.111	1	10
419.305	1	7
420.500	1	3
421.695	1	-6
422.889	1	-5
424.084	1	3
425.278	1	10
426.472	1	-1
427.667	1	6
428.861	1	0
430.055	1	-3
431.250	1	-10
432.444	1	14
433.638	1	-7
434.832	1	13
436.026	1	12
437.220	1	6
438.414	1	-10
439.608	1	-4
440.802	1	4
441.996	1	7
443.190	1	-3
444.384	1	5
445.578	1	0
446.771	1	17
447.965	1	8
449.159	1	1
450.352	1	-2
451.546	1	-4
452.739	1	2
453.933	1	3
455.126	1	1
456.320	1	2
457.513	1	0
458.706	1	12
459.899	1	1
461.093	1	-3
462.286	1	7
463.479	1	-2
464.672	1	3
465.865	1	-5
467.058	1	-4
468.251	1	-3
469.444	1	-7
470.637	1	9
471.830	1	2
473.023	1	6
474.215	1	18
475.408	1	-3
476.601	1	-5
477.793	1	4
478.986	1	2
480.179	1	1
481.371	1	9
482.564	1	12
483.756	1	13
484.948	1	-1
486.141	1	3
487.333	1	0
488.525	1	5
489.718	1	7
490.910	1	-1
492.102	1	-2
493.294	1	2
494.486	1	7
495.678	1	2
496.870	1	7
498.062	1	11
499.254	1	7
500.446	1	-2
501.638	1	-2
502.829	1	12
504.021	1	-2
505.213	1	19
506.404	1	14
507.596	1	14
508.788	1	20
509.979	1	5
511.171	1	1
512.362	1	9
513.553	1	-1
514.745	1	10
515.936	1	0
517.127	1	9
518.319	1	11
519.510	1	10
520.701	1	12
521.892	1	12
523.083	1	4
524.274	1	9
525.465	1	22
526.656	1	8
527.847	1	10
529.038	1	21
530.229	1	10
531.419	1	16
532.610	1	8
533.801	1	16
534.991	1	23
536.182	1	21
537.373	1	12
538.563	1	22
539.754	1	21
540.944	1	13
542.134	1	22
543.325	1	20
544.515	1	4
545.705	1	16
546.896	1	9
548.086	1	16
549.276	1	9
550.466	1	19
551.656	1	23
552.846	1	14
554.036	1	14
555.226	1	9
556.416	1	13
557.606	1	18
558.796	1	10
559.986	1	8
561.175	1	12
562.365	1	16
563.555	1	8
564.744	1	25
565.934	1	17
567.123	1	15
568.313	1	20
569.502	1	9
570.692	1	19
571.881	1	22
573.070	1	11
574.260	1	25
575.449	1	16
576.638	1	7
577.827	1	13
579.016	1	25
580.205	1	14
581.394	1	14
582.583	1	32
583.772	1	19
584.961	1	25
586.150	1	13
587.339	1	15
588.528	1	19
589.717	1	17
590.905	1	11
592.094	1	12
593.283	1	16
594.471	1	19
595.660	1	12
596.848	1	12
598.037	1	8
599.225	1	2
600.413	1	22
601.602	1	22
602.790	1	13
603.978	1	18
605.166	1	10
606.355	1	14
607.543	1	12
608.731	1	17
609.919	1	17
611.107	1	9
612.295	1	4
613.483	1	12
614.671	1	12
615.858	1	13
617.046	1	6
618.234	1	15
619.422	1	-3
620.609	1	11
621.797	1	9
622.985	1	11
624.172	1	6
625.360	1	14
626.547	1	9
627.735	1	9
628.922	1	7
630.109	1	3
631.297	1	4
632.484	1	4
633.671	1	7
634.858	1	8
636.045	1	23
637.232	1	2
638.419	1	11
639.606	1	13
640.793	1	15
641.980	1	14
643.167	1	8
644.354	1	9
645.541	1	18
646.728	1	8
647.914	1	8
649.101	1	1
650.288	1	5
651.474	1	7
652.661	1	5
653.847	1	12
655.034	1	11
656.220	1	1
657.406	1	11
658.593	1	17
659.779	1	4
660.965	1	10
662.152	1	13
663.338	1	18
664.524	1	5
665.710	1	10
666.896	1	-3
668.082	1	4
669.268	1	9
670.454	1	10
671.640	1	9
672.826	1	1
674.011	1	7
675.197	1	-5
676.383	1	14
677.569	1	4
678.754	1	-4
679.940	1	0
681.125	1	10
682.311	1	10
683.496	1	8
684.682	1	-8
685.867	1	20
687.053	1	3
688.238	1	12
688.746	1	15

File: GaN_sample F_spot 12_UVVIS_200 K_200um_800 ms 2x2mm1_81.txt
340.368	1	-2
341.565	1	0
342.763	1	1
343.960	1	-1
345.157	1	-3
346.354	1	-3
347.552	1	-1
348.749	1	11
349.946	1	5
351.143	1	7
352.340	1	21
353.537	1	10
354.734	1	10
355.931	1	10
357.127	1	12
358.324	1	24
359.521	1	20
360.718	1	28
361.914	1	48
363.111	1	44
364.308	1	58
365.504	1	87
366.701	1	108
367.897	1	132
369.093	1	128
370.290	1	141
371.486	1	138
372.682	1	126
373.879	1	93
375.075	1	70
376.271	1	81
377.467	1	65
378.663	1	44
379.859	1	46
381.055	1	49
382.251	1	31
383.447	1	22
384.643	1	42
385.839	1	27
387.035	1	33
388.230	1	22
389.426	1	11
390.622	1	13
391.817	1	14
393.013	1	9
394.208	1	4
395.404	1	0
396.599	1	0
397.795	1	10
398.990	1	8
400.186	1	6
401.381	1	-6
402.576	1	-5
403.771	1	13
404.967	1	12
406.162	1	11
407.357	1	9
408.552	1	7
409.747	1	13
410.942	1	11
412.137	1	6
413.332	1	-6
414.526	1	-8
415.721	1	8
416.916	1	-4
418.111	1	-4
419.305	1	-10
420.500	1	-1
421.695	1	3
422.889	1	-5
424.084	1	0
425.278	1	16
426.472	1	4
427.667	1	12
428.861	1	-1
430.055	1	-8
431.250	1	5
432.444	1	12
433.638	1	4
434.832	1	3
436.026	1	6
437.220	1	7
438.414	1	2
439.608	1	-1
440.802	1	0
441.996	1	4
443.190	1	7
444.384	1	-5
445.578	1	-7
446.771	1	13
447.965	1	3
449.159	1	-7
450.352	1	-2
451.546	1	7
452.739	1	6
453.933	1	2
455.126	1	0
456.320	1	2
457.513	1	3
458.706	1	8
459.899	1	-1
461.093	1	2
462.286	1	4
463.479	1	2
464.672	1	6
465.865	1	-3
467.058	1	6
468.251	1	9
469.444	1	-4
470.637	1	0
471.830	1	3
473.023	1	9
474.215	1	12
475.408	1	6
476.601	1	1
477.793	1	2
478.986	1	0
480.179	1	1
481.371	1	4
482.564	1	7
483.756	1	12
484.948	1	-4
486.141	1	-3
487.333	1	8
488.525	1	13
489.718	1	9
490.910	1	1
492.102	1	-2
493.294	1	1
494.486	1	8
495.678	1	1
496.870	1	11
498.062	1	6
499.254	1	9
500.446	1	-1
501.638	1	10
502.829	1	7
504.021	1	6
505.213	1	10
506.404	1	14
507.596	1	16
508.788	1	18
509.979	1	9
511.171	1	9
512.362	1	6
513.553	1	-4
514.745	1	4
515.936	1	5
517.127	1	14
518.319	1	1
519.510	1	12
520.701	1	16
521.892	1	15
523.083	1	10
524.274	1	5
525.465	1	11
526.656	1	14
527.847	1	8
529.038	1	20
530.229	1	3
531.419	1	16
532.610	1	13
533.801	1	25
534.991	1	20
536.182	1	14
537.373	1	13
538.563	1	15
539.754	1	13
540.944	1	16
542.134	1	23
543.325	1	14
544.515	1	5
545.705	1	11
546.896	1	6
548.086	1	23
549.276	1	9
550.466	1	16
551.656	1	25
552.846	1	21
554.036	1	6
555.226	1	14
556.416	1	14
557.606	1	20
558.796	1	16
559.986	1	6
561.175	1	23
562.365	1	22
563.555	1	18
564.744	1	20
565.934	1	20
567.123	1	22
568.313	1	25
569.502	1	14
570.692	1	19
571.881	1	21
573.070	1	8
574.260	1	20
575.449	1	6
576.638	1	18
577.827	1	15
579.016	1	23
580.205	1	6
581.394	1	10
582.583	1	24
583.772	1	16
584.961	1	14
586.150	1	8
587.339	1	21
588.528	1	12
589.717	1	14
590.905	1	3
592.094	1	9
593.283	1	16
594.471	1	18
595.660	1	19
596.848	1	22
598.037	1	16
599.225	1	2
600.413	1	13
601.602	1	20
602.790	1	8
603.978	1	15
605.166	1	8
606.355	1	16
607.543	1	17
608.731	1	8
609.919	1	23
611.107	1	13
612.295	1	7
613.483	1	11
614.671	1	7
615.858	1	12
617.046	1	9
618.234	1	8
619.422	1	0
620.609	1	18
621.797	1	6
622.985	1	10
624.172	1	10
625.360	1	8
626.547	1	13
627.735	1	12
628.922	1	12
630.109	1	1
631.297	1	10
632.484	1	10
633.671	1	9
634.858	1	4
636.045	1	16
637.232	1	9
638.419	1	6
639.606	1	5
640.793	1	13
641.980	1	6
643.167	1	1
644.354	1	6
645.541	1	10
646.728	1	4
647.914	1	11
649.101	1	5
650.288	1	10
651.474	1	-3
652.661	1	11
653.847	1	15
655.034	1	6
656.220	1	5
657.406	1	11
658.593	1	4
659.779	1	-1
660.965	1	3
662.152	1	4
663.338	1	16
664.524	1	0
665.710	1	9
666.896	1	1
668.082	1	-2
669.268	1	6
670.454	1	7
671.640	1	9
672.826	1	3
674.011	1	1
675.197	1	5
676.383	1	8
677.569	1	6
678.754	1	5
679.940	1	2
681.125	1	7
682.311	1	8
683.496	1	13
684.682	1	1
685.867	1	5
687.053	1	14
688.238	1	17
688.746	1	5

File: GaN_sample F_spot 12_UVVIS_200 K_200um_800 ms 2x2mm1_82.txt
340.368	1	8
341.565	1	-3
342.763	1	10
343.960	1	2
345.157	1	1
346.354	1	9
347.552	1	4
348.749	1	2
349.946	1	-4
351.143	1	-1
352.340	1	5
353.537	1	4
354.734	1	19
355.931	1	9
357.127	1	17
358.324	1	6
359.521	1	27
360.718	1	34
361.914	1	33
363.111	1	49
364.308	1	63
365.504	1	82
366.701	1	100
367.897	1	115
369.093	1	142
370.290	1	139
371.486	1	127
372.682	1	115
373.879	1	98
375.075	1	79
376.271	1	76
377.467	1	59
378.663	1	54
379.859	1	51
381.055	1	43
382.251	1	35
383.447	1	28
384.643	1	37
385.839	1	24
387.035	1	10
388.230	1	24
389.426	1	9
390.622	1	16
391.817	1	20
393.013	1	7
394.208	1	5
395.404	1	8
396.599	1	3
397.795	1	7
398.990	1	15
400.186	1	3
401.381	1	-6
402.576	1	4
403.771	1	9
404.967	1	7
406.162	1	13
407.357	1	10
408.552	1	2
409.747	1	4
410.942	1	9
412.137	1	9
413.332	1	8
414.526	1	2
415.721	1	1
416.916	1	1
418.111	1	4
419.305	1	7
420.500	1	2
421.695	1	-4
422.889	1	0
424.084	1	3
425.278	1	7
426.472	1	4
427.667	1	13
428.861	1	4
430.055	1	8
431.250	1	0
432.444	1	10
433.638	1	12
434.832	1	2
436.026	1	6
437.220	1	5
438.414	1	-1
439.608	1	-2
440.802	1	-3
441.996	1	12
443.190	1	7
444.384	1	-9
445.578	1	-14
446.771	1	8
447.965	1	8
449.159	1	-2
450.352	1	6
451.546	1	-2
452.739	1	5
453.933	1	0
455.126	1	-3
456.320	1	-1
457.513	1	10
458.706	1	9
459.899	1	-2
461.093	1	6
462.286	1	4
463.479	1	1
464.672	1	-4
465.865	1	3
467.058	1	10
468.251	1	6
469.444	1	4
470.637	1	1
471.830	1	2
473.023	1	10
474.215	1	9
475.408	1	-7
476.601	1	-2
477.793	1	5
478.986	1	-3
480.179	1	14
481.371	1	3
482.564	1	6
483.756	1	8
484.948	1	3
486.141	1	-2
487.333	1	-2
488.525	1	-4
489.718	1	0
490.910	1	6
492.102	1	2
493.294	1	0
494.486	1	10
495.678	1	5
496.870	1	15
498.062	1	-1
499.254	1	6
500.446	1	0
501.638	1	1
502.829	1	9
504.021	1	4
505.213	1	14
506.404	1	6
507.596	1	3
508.788	1	16
509.979	1	8
511.171	1	6
512.362	1	3
513.553	1	-7
514.745	1	9
515.936	1	6
517.127	1	11
518.319	1	13
519.510	1	10
520.701	1	16
521.892	1	16
523.083	1	8
524.274	1	8
525.465	1	20
526.656	1	13
527.847	1	12
529.038	1	14
530.229	1	13
531.419	1	10
532.610	1	12
533.801	1	18
534.991	1	19
536.182	1	19
537.373	1	12
538.563	1	16
539.754	1	22
540.944	1	12
542.134	1	21
543.325	1	4
544.515	1	4
545.705	1	6
546.896	1	11
548.086	1	11
549.276	1	5
550.466	1	16
551.656	1	14
552.846	1	23
554.036	1	22
555.226	1	4
556.416	1	8
557.606	1	16
558.796	1	12
559.986	1	6
561.175	1	23
562.365	1	8
563.555	1	18
564.744	1	11
565.934	1	28
567.123	1	13
568.313	1	18
569.502	1	9
570.692	1	27
571.881	1	38
573.070	1	8
574.260	1	24
575.449	1	13
576.638	1	19
577.827	1	13
579.016	1	18
580.205	1	4
581.394	1	4
582.583	1	27
583.772	1	30
584.961	1	15
586.150	1	13
587.339	1	22
588.528	1	17
589.717	1	15
590.905	1	10
592.094	1	11
593.283	1	12
594.471	1	22
595.660	1	15
596.848	1	17
598.037	1	16
599.225	1	4
600.413	1	24
601.602	1	21
602.790	1	10
603.978	1	6
605.166	1	14
606.355	1	10
607.543	1	18
608.731	1	15
609.919	1	12
611.107	1	18
612.295	1	17
613.483	1	4
614.671	1	14
615.858	1	13
617.046	1	11
618.234	1	7
619.422	1	2
620.609	1	13
621.797	1	4
622.985	1	9
624.172	1	3
625.360	1	7
626.547	1	0
627.735	1	17
628.922	1	14
630.109	1	0
631.297	1	12
632.484	1	3
633.671	1	13
634.858	1	8
636.045	1	14
637.232	1	6
638.419	1	6
639.606	1	11
640.793	1	12
641.980	1	15
643.167	1	4
644.354	1	4
645.541	1	11
646.728	1	12
647.914	1	0
649.101	1	8
650.288	1	8
651.474	1	2
652.661	1	5
653.847	1	18
655.034	1	11
656.220	1	-8
657.406	1	17
658.593	1	11
659.779	1	7
660.965	1	5
662.152	1	12
663.338	1	14
664.524	1	9
665.710	1	2
666.896	1	-1
668.082	1	6
669.268	1	3
670.454	1	10
671.640	1	8
672.826	1	9
674.011	1	2
675.197	1	6
676.383	1	9
677.569	1	-1
678.754	1	4
679.940	1	0
681.125	1	8
682.311	1	14
683.496	1	5
684.682	1	8
685.867	1	-1
687.053	1	6
688.238	1	5
688.746	1	7