Folder: cryo-il_analysis/Data/GaN_200K_800ms (part 17)

File: GaN_sample F_spot 12_UVVIS_200 K_200um_800 ms 2x2mm1_127.txt
340.368	1	-1
341.565	1	2
342.763	1	4
343.960	1	5
345.157	1	-7
346.354	1	-6
347.552	1	0
348.749	1	-2
349.946	1	4
351.143	1	2
352.340	1	-1
353.537	1	6
354.734	1	10
355.931	1	2
357.127	1	0
358.324	1	14
359.521	1	15
360.718	1	9
361.914	1	17
363.111	1	13
364.308	1	27
365.504	1	42
366.701	1	62
367.897	1	60
369.093	1	65
370.290	1	67
371.486	1	69
372.682	1	59
373.879	1	51
375.075	1	35
376.271	1	45
377.467	1	33
378.663	1	32
379.859	1	20
381.055	1	34
382.251	1	21
383.447	1	16
384.643	1	12
385.839	1	17
387.035	1	11
388.230	1	20
389.426	1	10
390.622	1	6
391.817	1	12
393.013	1	8
394.208	1	9
395.404	1	-3
396.599	1	4
397.795	1	3
398.990	1	5
400.186	1	-3
401.381	1	1
402.576	1	-2
403.771	1	5
404.967	1	0
406.162	1	9
407.357	1	10
408.552	1	4
409.747	1	6
410.942	1	10
412.137	1	9
413.332	1	8
414.526	1	2
415.721	1	1
416.916	1	-6
418.111	1	0
419.305	1	3
420.500	1	0
421.695	1	4
422.889	1	-1
424.084	1	0
425.278	1	7
426.472	1	2
427.667	1	6
428.861	1	-5
430.055	1	4
431.250	1	-4
432.444	1	12
433.638	1	3
434.832	1	2
436.026	1	9
437.220	1	7
438.414	1	-10
439.608	1	-4
440.802	1	3
441.996	1	1
443.190	1	-4
444.384	1	-1
445.578	1	-6
446.771	1	10
447.965	1	-1
449.159	1	4
450.352	1	-12
451.546	1	3
452.739	1	10
453.933	1	2
455.126	1	-10
456.320	1	-10
457.513	1	1
458.706	1	-4
459.899	1	0
461.093	1	-2
462.286	1	-1
463.479	1	5
464.672	1	-4
465.865	1	2
467.058	1	6
468.251	1	-3
469.444	1	-6
470.637	1	8
471.830	1	10
473.023	1	-4
474.215	1	7
475.408	1	3
476.601	1	2
477.793	1	1
478.986	1	5
480.179	1	4
481.371	1	1
482.564	1	6
483.756	1	13
484.948	1	-11
486.141	1	4
487.333	1	1
488.525	1	0
489.718	1	8
490.910	1	10
492.102	1	-2
493.294	1	5
494.486	1	6
495.678	1	7
496.870	1	10
498.062	1	6
499.254	1	3
500.446	1	2
501.638	1	4
502.829	1	-2
504.021	1	-2
505.213	1	15
506.404	1	5
507.596	1	7
508.788	1	10
509.979	1	2
511.171	1	-3
512.362	1	4
513.553	1	0
514.745	1	2
515.936	1	9
517.127	1	5
518.319	1	6
519.510	1	5
520.701	1	7
521.892	1	6
523.083	1	1
524.274	1	6
525.465	1	10
526.656	1	8
527.847	1	15
529.038	1	3
530.229	1	10
531.419	1	8
532.610	1	4
533.801	1	17
534.991	1	5
536.182	1	12
537.373	1	7
538.563	1	12
539.754	1	9
540.944	1	11
542.134	1	11
543.325	1	-2
544.515	1	-6
545.705	1	3
546.896	1	10
548.086	1	12
549.276	1	-2
550.466	1	6
551.656	1	6
552.846	1	8
554.036	1	8
555.226	1	-5
556.416	1	4
557.606	1	7
558.796	1	5
559.986	1	9
561.175	1	10
562.365	1	2
563.555	1	-3
564.744	1	10
565.934	1	14
567.123	1	2
568.313	1	9
569.502	1	-5
570.692	1	8
571.881	1	24
573.070	1	-2
574.260	1	13
575.449	1	-2
576.638	1	-3
577.827	1	7
579.016	1	15
580.205	1	7
581.394	1	12
582.583	1	17
583.772	1	4
584.961	1	10
586.150	1	-7
587.339	1	8
588.528	1	10
589.717	1	1
590.905	1	2
592.094	1	2
593.283	1	12
594.471	1	13
595.660	1	4
596.848	1	-7
598.037	1	6
599.225	1	-6
600.413	1	9
601.602	1	14
602.790	1	5
603.978	1	10
605.166	1	14
606.355	1	9
607.543	1	6
608.731	1	4
609.919	1	9
611.107	1	-1
612.295	1	-4
613.483	1	8
614.671	1	-2
615.858	1	4
617.046	1	-2
618.234	1	2
619.422	1	0
620.609	1	5
621.797	1	6
622.985	1	8
624.172	1	4
625.360	1	5
626.547	1	8
627.735	1	7
628.922	1	6
630.109	1	-10
631.297	1	5
632.484	1	6
633.671	1	1
634.858	1	8
636.045	1	13
637.232	1	-1
638.419	1	-1
639.606	1	9
640.793	1	9
641.980	1	10
643.167	1	-4
644.354	1	2
645.541	1	2
646.728	1	10
647.914	1	-7
649.101	1	-2
650.288	1	7
651.474	1	-6
652.661	1	-3
653.847	1	16
655.034	1	-1
656.220	1	2
657.406	1	9
658.593	1	6
659.779	1	12
660.965	1	13
662.152	1	10
663.338	1	11
664.524	1	3
665.710	1	10
666.896	1	-3
668.082	1	0
669.268	1	2
670.454	1	5
671.640	1	1
672.826	1	0
674.011	1	-7
675.197	1	-1
676.383	1	8
677.569	1	-5
678.754	1	-4
679.940	1	9
681.125	1	12
682.311	1	10
683.496	1	-3
684.682	1	-5
685.867	1	6
687.053	1	1
688.238	1	4
688.746	1	8

File: GaN_sample F_spot 12_UVVIS_200 K_200um_800 ms 2x2mm1_128.txt
340.368	1	4
341.565	1	-6
342.763	1	2
343.960	1	1
345.157	1	11
346.354	1	-2
347.552	1	2
348.749	1	-2
349.946	1	0
351.143	1	-5
352.340	1	4
353.537	1	10
354.734	1	1
355.931	1	5
357.127	1	4
358.324	1	7
359.521	1	19
360.718	1	16
361.914	1	13
363.111	1	21
364.308	1	25
365.504	1	44
366.701	1	50
367.897	1	58
369.093	1	59
370.290	1	70
371.486	1	66
372.682	1	46
373.879	1	44
375.075	1	36
376.271	1	44
377.467	1	31
378.663	1	31
379.859	1	23
381.055	1	22
382.251	1	13
383.447	1	11
384.643	1	27
385.839	1	8
387.035	1	14
388.230	1	23
389.426	1	5
390.622	1	-1
391.817	1	12
393.013	1	1
394.208	1	6
395.404	1	0
396.599	1	-2
397.795	1	5
398.990	1	4
400.186	1	8
401.381	1	-2
402.576	1	3
403.771	1	-1
404.967	1	7
406.162	1	2
407.357	1	3
408.552	1	-3
409.747	1	6
410.942	1	10
412.137	1	7
413.332	1	0
414.526	1	0
415.721	1	-5
416.916	1	-7
418.111	1	1
419.305	1	3
420.500	1	-2
421.695	1	3
422.889	1	-3
424.084	1	-3
425.278	1	11
426.472	1	1
427.667	1	3
428.861	1	5
430.055	1	4
431.250	1	-2
432.444	1	8
433.638	1	-5
434.832	1	0
436.026	1	5
437.220	1	4
438.414	1	-7
439.608	1	-10
440.802	1	-2
441.996	1	-4
443.190	1	11
444.384	1	-8
445.578	1	-11
446.771	1	14
447.965	1	2
449.159	1	-4
450.352	1	2
451.546	1	-1
452.739	1	3
453.933	1	5
455.126	1	-6
456.320	1	-2
457.513	1	15
458.706	1	6
459.899	1	-4
461.093	1	2
462.286	1	8
463.479	1	-11
464.672	1	5
465.865	1	0
467.058	1	9
468.251	1	2
469.444	1	-9
470.637	1	7
471.830	1	0
473.023	1	5
474.215	1	3
475.408	1	-1
476.601	1	-4
477.793	1	1
478.986	1	-1
480.179	1	0
481.371	1	11
482.564	1	5
483.756	1	9
484.948	1	-2
486.141	1	-1
487.333	1	3
488.525	1	0
489.718	1	4
490.910	1	-1
492.102	1	0
493.294	1	-2
494.486	1	3
495.678	1	-4
496.870	1	2
498.062	1	4
499.254	1	5
500.446	1	-6
501.638	1	6
502.829	1	3
504.021	1	1
505.213	1	10
506.404	1	4
507.596	1	-4
508.788	1	14
509.979	1	4
511.171	1	-5
512.362	1	0
513.553	1	-9
514.745	1	3
515.936	1	1
517.127	1	12
518.319	1	7
519.510	1	9
520.701	1	8
521.892	1	6
523.083	1	0
524.274	1	15
525.465	1	11
526.656	1	8
527.847	1	4
529.038	1	5
530.229	1	10
531.419	1	10
532.610	1	1
533.801	1	23
534.991	1	5
536.182	1	-1
537.373	1	3
538.563	1	17
539.754	1	19
540.944	1	7
542.134	1	15
543.325	1	4
544.515	1	3
545.705	1	5
546.896	1	3
548.086	1	7
549.276	1	9
550.466	1	5
551.656	1	11
552.846	1	6
554.036	1	8
555.226	1	10
556.416	1	-8
557.606	1	9
558.796	1	9
559.986	1	0
561.175	1	14
562.365	1	11
563.555	1	7
564.744	1	3
565.934	1	11
567.123	1	10
568.313	1	11
569.502	1	0
570.692	1	9
571.881	1	16
573.070	1	2
574.260	1	10
575.449	1	0
576.638	1	-6
577.827	1	3
579.016	1	19
580.205	1	-1
581.394	1	8
582.583	1	11
583.772	1	9
584.961	1	9
586.150	1	6
587.339	1	5
588.528	1	0
589.717	1	7
590.905	1	-6
592.094	1	-8
593.283	1	15
594.471	1	12
595.660	1	5
596.848	1	-3
598.037	1	7
599.225	1	-4
600.413	1	17
601.602	1	12
602.790	1	8
603.978	1	4
605.166	1	6
606.355	1	6
607.543	1	8
608.731	1	5
609.919	1	17
611.107	1	0
612.295	1	3
613.483	1	12
614.671	1	14
615.858	1	1
617.046	1	1
618.234	1	-10
619.422	1	-10
620.609	1	10
621.797	1	5
622.985	1	8
624.172	1	1
625.360	1	3
626.547	1	5
627.735	1	6
628.922	1	1
630.109	1	-5
631.297	1	-2
632.484	1	-3
633.671	1	-5
634.858	1	2
636.045	1	14
637.232	1	-5
638.419	1	3
639.606	1	7
640.793	1	9
641.980	1	13
643.167	1	-2
644.354	1	-4
645.541	1	6
646.728	1	-2
647.914	1	3
649.101	1	-12
650.288	1	4
651.474	1	4
652.661	1	4
653.847	1	6
655.034	1	13
656.220	1	2
657.406	1	3
658.593	1	12
659.779	1	5
660.965	1	20
662.152	1	2
663.338	1	6
664.524	1	3
665.710	1	6
666.896	1	-5
668.082	1	0
669.268	1	-5
670.454	1	5
671.640	1	3
672.826	1	8
674.011	1	-3
675.197	1	-1
676.383	1	4
677.569	1	-3
678.754	1	0
679.940	1	-3
681.125	1	8
682.311	1	12
683.496	1	8
684.682	1	-7
685.867	1	4
687.053	1	0
688.238	1	11
688.746	1	13

File: GaN_sample F_spot 12_UVVIS_200 K_200um_800 ms 2x2mm1_131.txt
340.368	1	4
341.565	1	-12
342.763	1	4
343.960	1	7
345.157	1	-11
346.354	1	5
347.552	1	1
348.749	1	-3
349.946	1	-4
351.143	1	3
352.340	1	5
353.537	1	3
354.734	1	11
355.931	1	-4
357.127	1	1
358.324	1	5
359.521	1	13
360.718	1	18
361.914	1	17
363.111	1	29
364.308	1	25
365.504	1	48
366.701	1	44
367.897	1	52
369.093	1	55
370.290	1	62
371.486	1	64
372.682	1	56
373.879	1	42
375.075	1	40
376.271	1	45
377.467	1	30
378.663	1	23
379.859	1	22
381.055	1	23
382.251	1	7
383.447	1	1
384.643	1	12
385.839	1	7
387.035	1	11
388.230	1	20
389.426	1	7
390.622	1	3
391.817	1	12
393.013	1	4
394.208	1	0
395.404	1	-6
396.599	1	-4
397.795	1	5
398.990	1	-2
400.186	1	0
401.381	1	-4
402.576	1	2
403.771	1	11
404.967	1	4
406.162	1	13
407.357	1	5
408.552	1	-13
409.747	1	5
410.942	1	12
412.137	1	6
413.332	1	5
414.526	1	-1
415.721	1	5
416.916	1	-4
418.111	1	6
419.305	1	3
420.500	1	11
421.695	1	-1
422.889	1	-10
424.084	1	7
425.278	1	12
426.472	1	11
427.667	1	14
428.861	1	3
430.055	1	0
431.250	1	-6
432.444	1	6
433.638	1	-1
434.832	1	7
436.026	1	11
437.220	1	4
438.414	1	-9
439.608	1	-7
440.802	1	-4
441.996	1	2
443.190	1	3
444.384	1	-8
445.578	1	-2
446.771	1	8
447.965	1	1
449.159	1	-3
450.352	1	1
451.546	1	1
452.739	1	4
453.933	1	-8
455.126	1	-6
456.320	1	5
457.513	1	10
458.706	1	3
459.899	1	0
461.093	1	-3
462.286	1	9
463.479	1	-2
464.672	1	11
465.865	1	0
467.058	1	-1
468.251	1	-3
469.444	1	0
470.637	1	2
471.830	1	2
473.023	1	7
474.215	1	11
475.408	1	-4
476.601	1	5
477.793	1	-4
478.986	1	1
480.179	1	3
481.371	1	8
482.564	1	-3
483.756	1	16
484.948	1	-10
486.141	1	0
487.333	1	-1
488.525	1	2
489.718	1	3
490.910	1	5
492.102	1	-1
493.294	1	-3
494.486	1	11
495.678	1	6
496.870	1	10
498.062	1	2
499.254	1	0
500.446	1	-1
501.638	1	-4
502.829	1	5
504.021	1	-3
505.213	1	8
506.404	1	0
507.596	1	3
508.788	1	16
509.979	1	-1
511.171	1	2
512.362	1	2
513.553	1	-5
514.745	1	-2
515.936	1	6
517.127	1	3
518.319	1	9
519.510	1	10
520.701	1	10
521.892	1	8
523.083	1	0
524.274	1	-1
525.465	1	6
526.656	1	1
527.847	1	7
529.038	1	14
530.229	1	9
531.419	1	7
532.610	1	3
533.801	1	15
534.991	1	7
536.182	1	-3
537.373	1	-3
538.563	1	16
539.754	1	16
540.944	1	7
542.134	1	9
543.325	1	17
544.515	1	-2
545.705	1	6
546.896	1	2
548.086	1	4
549.276	1	4
550.466	1	18
551.656	1	12
552.846	1	3
554.036	1	6
555.226	1	-1
556.416	1	8
557.606	1	6
558.796	1	9
559.986	1	-2
561.175	1	10
562.365	1	11
563.555	1	8
564.744	1	20
565.934	1	14
567.123	1	3
568.313	1	11
569.502	1	5
570.692	1	7
571.881	1	21
573.070	1	5
574.260	1	16
575.449	1	10
576.638	1	0
577.827	1	2
579.016	1	12
580.205	1	1
581.394	1	1
582.583	1	12
583.772	1	7
584.961	1	8
586.150	1	15
587.339	1	7
588.528	1	9
589.717	1	7
590.905	1	0
592.094	1	6
593.283	1	2
594.471	1	19
595.660	1	12
596.848	1	3
598.037	1	5
599.225	1	2
600.413	1	11
601.602	1	16
602.790	1	8
603.978	1	8
605.166	1	14
606.355	1	3
607.543	1	4
608.731	1	-1
609.919	1	12
611.107	1	5
612.295	1	-1
613.483	1	12
614.671	1	10
615.858	1	5
617.046	1	5
618.234	1	0
619.422	1	0
620.609	1	5
621.797	1	5
622.985	1	7
624.172	1	6
625.360	1	2
626.547	1	5
627.735	1	9
628.922	1	11
630.109	1	3
631.297	1	-4
632.484	1	5
633.671	1	-6
634.858	1	-2
636.045	1	14
637.232	1	4
638.419	1	-2
639.606	1	4
640.793	1	5
641.980	1	9
643.167	1	-1
644.354	1	0
645.541	1	3
646.728	1	-3
647.914	1	-9
649.101	1	-2
650.288	1	8
651.474	1	8
652.661	1	-1
653.847	1	6
655.034	1	13
656.220	1	-7
657.406	1	11
658.593	1	12
659.779	1	8
660.965	1	5
662.152	1	0
663.338	1	16
664.524	1	9
665.710	1	1
666.896	1	0
668.082	1	4
669.268	1	5
670.454	1	8
671.640	1	10
672.826	1	-3
674.011	1	-1
675.197	1	-2
676.383	1	1
677.569	1	-4
678.754	1	-4
679.940	1	1
681.125	1	12
682.311	1	3
683.496	1	9
684.682	1	-10
685.867	1	-5
687.053	1	9
688.238	1	15
688.746	1	2

File: GaN_sample F_spot 12_UVVIS_200 K_200um_800 ms 2x2mm1_132.txt
340.368	1	-1
341.565	1	-8
342.763	1	18
343.960	1	-3
345.157	1	1
346.354	1	3
347.552	1	-8
348.749	1	-5
349.946	1	-3
351.143	1	9
352.340	1	13
353.537	1	2
354.734	1	11
355.931	1	9
357.127	1	4
358.324	1	-1
359.521	1	14
360.718	1	12
361.914	1	17
363.111	1	25
364.308	1	19
365.504	1	42
366.701	1	49
367.897	1	60
369.093	1	53
370.290	1	54
371.486	1	65
372.682	1	54
373.879	1	41
375.075	1	40
376.271	1	40
377.467	1	23
378.663	1	27
379.859	1	21
381.055	1	31
382.251	1	7
383.447	1	12
384.643	1	30
385.839	1	10
387.035	1	8
388.230	1	19
389.426	1	1
390.622	1	3
391.817	1	5
393.013	1	8
394.208	1	16
395.404	1	4
396.599	1	-5
397.795	1	12
398.990	1	11
400.186	1	5
401.381	1	-6
402.576	1	8
403.771	1	5
404.967	1	7
406.162	1	4
407.357	1	-1
408.552	1	-5
409.747	1	4
410.942	1	8
412.137	1	9
413.332	1	4
414.526	1	4
415.721	1	-4
416.916	1	-8
418.111	1	7
419.305	1	5
420.500	1	1
421.695	1	3
422.889	1	-3
424.084	1	-3
425.278	1	16
426.472	1	8
427.667	1	1
428.861	1	-7
430.055	1	5
431.250	1	5
432.444	1	9
433.638	1	-4
434.832	1	10
436.026	1	1
437.220	1	5
438.414	1	-5
439.608	1	-10
440.802	1	5
441.996	1	2
443.190	1	7
444.384	1	-10
445.578	1	-7
446.771	1	17
447.965	1	7
449.159	1	-6
450.352	1	3
451.546	1	1
452.739	1	8
453.933	1	-5
455.126	1	-4
456.320	1	5
457.513	1	4
458.706	1	8
459.899	1	-1
461.093	1	3
462.286	1	6
463.479	1	3
464.672	1	-2
465.865	1	0
467.058	1	6
468.251	1	2
469.444	1	-1
470.637	1	3
471.830	1	-7
473.023	1	10
474.215	1	10
475.408	1	-2
476.601	1	5
477.793	1	-1
478.986	1	0
480.179	1	3
481.371	1	7
482.564	1	9
483.756	1	7
484.948	1	-7
486.141	1	-2
487.333	1	8
488.525	1	7
489.718	1	2
490.910	1	2
492.102	1	6
493.294	1	2
494.486	1	7
495.678	1	5
496.870	1	14
498.062	1	10
499.254	1	4
500.446	1	-1
501.638	1	-10
502.829	1	0
504.021	1	2
505.213	1	10
506.404	1	3
507.596	1	3
508.788	1	11
509.979	1	-4
511.171	1	-5
512.362	1	-4
513.553	1	-11
514.745	1	-7
515.936	1	8
517.127	1	1
518.319	1	11
519.510	1	-1
520.701	1	4
521.892	1	13
523.083	1	7
524.274	1	3
525.465	1	14
526.656	1	-6
527.847	1	3
529.038	1	-2
530.229	1	6
531.419	1	13
532.610	1	4
533.801	1	13
534.991	1	5
536.182	1	4
537.373	1	15
538.563	1	12
539.754	1	11
540.944	1	1
542.134	1	11
543.325	1	-5
544.515	1	7
545.705	1	10
546.896	1	5
548.086	1	8
549.276	1	4
550.466	1	8
551.656	1	9
552.846	1	2
554.036	1	7
555.226	1	-12
556.416	1	0
557.606	1	16
558.796	1	11
559.986	1	8
561.175	1	5
562.365	1	11
563.555	1	-4
564.744	1	15
565.934	1	11
567.123	1	4
568.313	1	10
569.502	1	8
570.692	1	10
571.881	1	24
573.070	1	6
574.260	1	9
575.449	1	0
576.638	1	7
577.827	1	-8
579.016	1	24
580.205	1	9
581.394	1	4
582.583	1	15
583.772	1	10
584.961	1	10
586.150	1	5
587.339	1	4
588.528	1	4
589.717	1	10
590.905	1	-1
592.094	1	10
593.283	1	1
594.471	1	12
595.660	1	8
596.848	1	7
598.037	1	6
599.225	1	-1
600.413	1	16
601.602	1	4
602.790	1	8
603.978	1	4
605.166	1	14
606.355	1	12
607.543	1	-7
608.731	1	6
609.919	1	20
611.107	1	5
612.295	1	-2
613.483	1	11
614.671	1	12
615.858	1	-3
617.046	1	8
618.234	1	3
619.422	1	-2
620.609	1	12
621.797	1	5
622.985	1	8
624.172	1	-3
625.360	1	8
626.547	1	-2
627.735	1	10
628.922	1	11
630.109	1	-8
631.297	1	-6
632.484	1	-9
633.671	1	0
634.858	1	-4
636.045	1	17
637.232	1	0
638.419	1	4
639.606	1	11
640.793	1	7
641.980	1	4
643.167	1	2
644.354	1	2
645.541	1	2
646.728	1	3
647.914	1	1
649.101	1	5
650.288	1	6
651.474	1	3
652.661	1	6
653.847	1	8
655.034	1	4
656.220	1	-8
657.406	1	5
658.593	1	4
659.779	1	-2
660.965	1	9
662.152	1	3
663.338	1	4
664.524	1	1
665.710	1	11
666.896	1	3
668.082	1	-4
669.268	1	1
670.454	1	2
671.640	1	9
672.826	1	-11
674.011	1	3
675.197	1	-5
676.383	1	0
677.569	1	-1
678.754	1	-3
679.940	1	5
681.125	1	7
682.311	1	9
683.496	1	-3
684.682	1	-13
685.867	1	10
687.053	1	15
688.238	1	6
688.746	1	-1

File: GaN_sample F_spot 12_UVVIS_200 K_200um_800 ms 2x2mm1_135.txt
340.368	1	6
341.565	1	-11
342.763	1	13
343.960	1	2
345.157	1	-9
346.354	1	8
347.552	1	0
348.749	1	-8
349.946	1	-1
351.143	1	6
352.340	1	5
353.537	1	16
354.734	1	13
355.931	1	6
357.127	1	9
358.324	1	9
359.521	1	11
360.718	1	20
361.914	1	8
363.111	1	21
364.308	1	27
365.504	1	45
366.701	1	47
367.897	1	41
369.093	1	67
370.290	1	53
371.486	1	59
372.682	1	61
373.879	1	37
375.075	1	33
376.271	1	39
377.467	1	36
378.663	1	18
379.859	1	23
381.055	1	23
382.251	1	9
383.447	1	18
384.643	1	18
385.839	1	13
387.035	1	9
388.230	1	16
389.426	1	10
390.622	1	2
391.817	1	9
393.013	1	-7
394.208	1	7
395.404	1	7
396.599	1	0
397.795	1	-3
398.990	1	4
400.186	1	-4
401.381	1	5
402.576	1	7
403.771	1	-1
404.967	1	7
406.162	1	9
407.357	1	-2
408.552	1	6
409.747	1	-1
410.942	1	9
412.137	1	10
413.332	1	9
414.526	1	-2
415.721	1	3
416.916	1	-1
418.111	1	-2
419.305	1	4
420.500	1	1
421.695	1	1
422.889	1	-10
424.084	1	4
425.278	1	11
426.472	1	-7
427.667	1	2
428.861	1	-7
430.055	1	5
431.250	1	4
432.444	1	5
433.638	1	-1
434.832	1	3
436.026	1	0
437.220	1	11
438.414	1	-3
439.608	1	-7
440.802	1	0
441.996	1	-1
443.190	1	0
444.384	1	-13
445.578	1	1
446.771	1	13
447.965	1	1
449.159	1	-5
450.352	1	-1
451.546	1	1
452.739	1	8
453.933	1	2
455.126	1	-1
456.320	1	1
457.513	1	8
458.706	1	3
459.899	1	2
461.093	1	0
462.286	1	-2
463.479	1	-1
464.672	1	-1
465.865	1	2
467.058	1	10
468.251	1	8
469.444	1	-1
470.637	1	-4
471.830	1	6
473.023	1	4
474.215	1	7
475.408	1	10
476.601	1	1
477.793	1	2
478.986	1	-4
480.179	1	-4
481.371	1	-3
482.564	1	10
483.756	1	2
484.948	1	4
486.141	1	-6
487.333	1	2
488.525	1	4
489.718	1	-8
490.910	1	2
492.102	1	2
493.294	1	-2
494.486	1	16
495.678	1	6
496.870	1	2
498.062	1	6
499.254	1	0
500.446	1	-4
501.638	1	-3
502.829	1	7
504.021	1	10
505.213	1	11
506.404	1	6
507.596	1	3
508.788	1	18
509.979	1	1
511.171	1	-3
512.362	1	-2
513.553	1	-4
514.745	1	-3
515.936	1	4
517.127	1	3
518.319	1	0
519.510	1	2
520.701	1	6
521.892	1	1
523.083	1	-4
524.274	1	8
525.465	1	13
526.656	1	5
527.847	1	6
529.038	1	2
530.229	1	3
531.419	1	12
532.610	1	3
533.801	1	13
534.991	1	6
536.182	1	6
537.373	1	0
538.563	1	6
539.754	1	7
540.944	1	13
542.134	1	10
543.325	1	5
544.515	1	3
545.705	1	1
546.896	1	8
548.086	1	8
549.276	1	-4
550.466	1	3
551.656	1	3
552.846	1	9
554.036	1	-2
555.226	1	-6
556.416	1	8
557.606	1	7
558.796	1	8
559.986	1	4
561.175	1	12
562.365	1	9
563.555	1	6
564.744	1	9
565.934	1	5
567.123	1	10
568.313	1	10
569.502	1	2
570.692	1	15
571.881	1	7
573.070	1	6
574.260	1	10
575.449	1	6
576.638	1	1
577.827	1	-1
579.016	1	20
580.205	1	3
581.394	1	2
582.583	1	19
583.772	1	3
584.961	1	2
586.150	1	5
587.339	1	11
588.528	1	12
589.717	1	13
590.905	1	8
592.094	1	-2
593.283	1	10
594.471	1	17
595.660	1	8
596.848	1	6
598.037	1	10
599.225	1	2
600.413	1	10
601.602	1	10
602.790	1	5
603.978	1	-2
605.166	1	3
606.355	1	4
607.543	1	1
608.731	1	5
609.919	1	19
611.107	1	4
612.295	1	7
613.483	1	7
614.671	1	4
615.858	1	10
617.046	1	7
618.234	1	0
619.422	1	4
620.609	1	10
621.797	1	5
622.985	1	0
624.172	1	3
625.360	1	13
626.547	1	9
627.735	1	10
628.922	1	0
630.109	1	-8
631.297	1	5
632.484	1	-3
633.671	1	-1
634.858	1	8
636.045	1	12
637.232	1	-5
638.419	1	-3
639.606	1	9
640.793	1	9
641.980	1	12
643.167	1	-4
644.354	1	-4
645.541	1	2
646.728	1	9
647.914	1	-8
649.101	1	-5
650.288	1	4
651.474	1	3
652.661	1	-4
653.847	1	7
655.034	1	8
656.220	1	7
657.406	1	9
658.593	1	9
659.779	1	4
660.965	1	7
662.152	1	1
663.338	1	11
664.524	1	-3
665.710	1	1
666.896	1	-5
668.082	1	10
669.268	1	-4
670.454	1	5
671.640	1	6
672.826	1	-9
674.011	1	0
675.197	1	-4
676.383	1	0
677.569	1	0
678.754	1	-3
679.940	1	1
681.125	1	8
682.311	1	17
683.496	1	8
684.682	1	-7
685.867	1	-5
687.053	1	4
688.238	1	6
688.746	1	-2

File: GaN_sample F_spot 12_UVVIS_200 K_200um_800 ms 2x2mm1_138.txt
340.368	1	3
341.565	1	-8
342.763	1	12
343.960	1	-6
345.157	1	-2
346.354	1	4
347.552	1	-5
348.749	1	3
349.946	1	1
351.143	1	8
352.340	1	0
353.537	1	4
354.734	1	13
355.931	1	5
357.127	1	0
358.324	1	4
359.521	1	17
360.718	1	18
361.914	1	18
363.111	1	15
364.308	1	24
365.504	1	41
366.701	1	35
367.897	1	50
369.093	1	54
370.290	1	54
371.486	1	49
372.682	1	55
373.879	1	27
375.075	1	29
376.271	1	41
377.467	1	30
378.663	1	25
379.859	1	26
381.055	1	29
382.251	1	7
383.447	1	3
384.643	1	27
385.839	1	3
387.035	1	8
388.230	1	19
389.426	1	5
390.622	1	11
391.817	1	15
393.013	1	0
394.208	1	3
395.404	1	-4
396.599	1	2
397.795	1	8
398.990	1	0
400.186	1	4
401.381	1	5
402.576	1	2
403.771	1	6
404.967	1	8
406.162	1	9
407.357	1	1
408.552	1	3
409.747	1	0
410.942	1	9
412.137	1	11
413.332	1	1
414.526	1	3
415.721	1	-1
416.916	1	-1
418.111	1	3
419.305	1	-1
420.500	1	-4
421.695	1	-2
422.889	1	-12
424.084	1	7
425.278	1	10
426.472	1	2
427.667	1	12
428.861	1	0
430.055	1	4
431.250	1	5
432.444	1	11
433.638	1	-7
434.832	1	7
436.026	1	9
437.220	1	3
438.414	1	-6
439.608	1	-2
440.802	1	-2
441.996	1	6
443.190	1	4
444.384	1	-4
445.578	1	0
446.771	1	8
447.965	1	1
449.159	1	-6
450.352	1	4
451.546	1	7
452.739	1	5
453.933	1	-4
455.126	1	-4
456.320	1	1
457.513	1	4
458.706	1	-5
459.899	1	-9
461.093	1	0
462.286	1	-1
463.479	1	-6
464.672	1	4
465.865	1	0
467.058	1	-10
468.251	1	4
469.444	1	2
470.637	1	6
471.830	1	0
473.023	1	0
474.215	1	9
475.408	1	14
476.601	1	4
477.793	1	7
478.986	1	0
480.179	1	6
481.371	1	5
482.564	1	0
483.756	1	3
484.948	1	-3
486.141	1	-5
487.333	1	2
488.525	1	3
489.718	1	5
490.910	1	7
492.102	1	-2
493.294	1	-8
494.486	1	-2
495.678	1	-2
496.870	1	8
498.062	1	-5
499.254	1	-5
500.446	1	-5
501.638	1	-5
502.829	1	4
504.021	1	2
505.213	1	11
506.404	1	15
507.596	1	0
508.788	1	17
509.979	1	10
511.171	1	6
512.362	1	-2
513.553	1	-1
514.745	1	-1
515.936	1	-2
517.127	1	5
518.319	1	6
519.510	1	4
520.701	1	11
521.892	1	-4
523.083	1	-1
524.274	1	6
525.465	1	9
526.656	1	-3
527.847	1	2
529.038	1	4
530.229	1	3
531.419	1	3
532.610	1	4
533.801	1	4
534.991	1	-1
536.182	1	3
537.373	1	-1
538.563	1	11
539.754	1	5
540.944	1	3
542.134	1	16
543.325	1	7
544.515	1	4
545.705	1	11
546.896	1	4
548.086	1	6
549.276	1	1
550.466	1	8
551.656	1	16
552.846	1	0
554.036	1	-2
555.226	1	-8
556.416	1	4
557.606	1	12
558.796	1	8
559.986	1	-1
561.175	1	12
562.365	1	9
563.555	1	0
564.744	1	10
565.934	1	15
567.123	1	14
568.313	1	6
569.502	1	7
570.692	1	10
571.881	1	16
573.070	1	-1
574.260	1	13
575.449	1	4
576.638	1	2
577.827	1	-3
579.016	1	17
580.205	1	9
581.394	1	0
582.583	1	11
583.772	1	13
584.961	1	11
586.150	1	2
587.339	1	9
588.528	1	10
589.717	1	3
590.905	1	-5
592.094	1	-2
593.283	1	6
594.471	1	14
595.660	1	8
596.848	1	5
598.037	1	9
599.225	1	-2
600.413	1	3
601.602	1	18
602.790	1	3
603.978	1	5
605.166	1	6
606.355	1	9
607.543	1	9
608.731	1	2
609.919	1	4
611.107	1	12
612.295	1	-1
613.483	1	4
614.671	1	9
615.858	1	13
617.046	1	9
618.234	1	0
619.422	1	-5
620.609	1	10
621.797	1	1
622.985	1	13
624.172	1	-4
625.360	1	-1
626.547	1	-4
627.735	1	5
628.922	1	4
630.109	1	0
631.297	1	11
632.484	1	0
633.671	1	-1
634.858	1	3
636.045	1	10
637.232	1	1
638.419	1	0
639.606	1	6
640.793	1	7
641.980	1	12
643.167	1	-7
644.354	1	2
645.541	1	11
646.728	1	6
647.914	1	0
649.101	1	-2
650.288	1	11
651.474	1	1
652.661	1	4
653.847	1	9
655.034	1	3
656.220	1	-1
657.406	1	9
658.593	1	3
659.779	1	2
660.965	1	9
662.152	1	0
663.338	1	8
664.524	1	-1
665.710	1	4
666.896	1	-9
668.082	1	3
669.268	1	-9
670.454	1	3
671.640	1	2
672.826	1	3
674.011	1	-1
675.197	1	-4
676.383	1	-5
677.569	1	-1
678.754	1	-4
679.940	1	2
681.125	1	4
682.311	1	3
683.496	1	2
684.682	1	-9
685.867	1	8
687.053	1	5
688.238	1	1
688.746	1	-5