Folder: cryo-il_analysis/Data/GaN_170K_550ms (part 26)

File: GaN_sample D_spot 18_UVVIS_170 K_200um_550 ms 2x2mm1_312.txt
340.368	1	-6
341.565	1	1
342.763	1	1
343.960	1	7
345.157	1	-7
346.354	1	-6
347.552	1	8
348.749	1	7
349.946	1	12
351.143	1	-4
352.340	1	0
353.537	1	0
354.734	1	9
355.931	1	3
357.127	1	3
358.324	1	7
359.521	1	-4
360.718	1	1
361.914	1	-5
363.111	1	11
364.308	1	11
365.504	1	-1
366.701	1	10
367.897	1	10
369.093	1	4
370.290	1	7
371.486	1	4
372.682	1	4
373.879	1	3
375.075	1	2
376.271	1	7
377.467	1	6
378.663	1	7
379.859	1	10
381.055	1	1
382.251	1	4
383.447	1	1
384.643	1	-1
385.839	1	-3
387.035	1	2
388.230	1	1
389.426	1	9
390.622	1	-2
391.817	1	6
393.013	1	-6
394.208	1	8
395.404	1	7
396.599	1	-6
397.795	1	0
398.990	1	-1
400.186	1	0
401.381	1	9
402.576	1	3
403.771	1	0
404.967	1	2
406.162	1	7
407.357	1	-1
408.552	1	-5
409.747	1	-3
410.942	1	2
412.137	1	-4
413.332	1	-4
414.526	1	4
415.721	1	-3
416.916	1	0
418.111	1	3
419.305	1	-4
420.500	1	-5
421.695	1	-4
422.889	1	4
424.084	1	8
425.278	1	-3
426.472	1	3
427.667	1	0
428.861	1	2
430.055	1	1
431.250	1	11
432.444	1	5
433.638	1	11
434.832	1	7
436.026	1	-9
437.220	1	1
438.414	1	-2
439.608	1	-1
440.802	1	11
441.996	1	0
443.190	1	2
444.384	1	-4
445.578	1	-3
446.771	1	-9
447.965	1	4
449.159	1	-1
450.352	1	-5
451.546	1	-14
452.739	1	-2
453.933	1	4
455.126	1	9
456.320	1	1
457.513	1	3
458.706	1	4
459.899	1	-4
461.093	1	7
462.286	1	-7
463.479	1	-13
464.672	1	-3
465.865	1	0
467.058	1	3
468.251	1	-2
469.444	1	3
470.637	1	-2
471.830	1	4
473.023	1	3
474.215	1	4
475.408	1	-1
476.601	1	-2
477.793	1	8
478.986	1	5
480.179	1	-8
481.371	1	-9
482.564	1	6
483.756	1	3
484.948	1	0
486.141	1	11
487.333	1	-5
488.525	1	2
489.718	1	6
490.910	1	0
492.102	1	-1
493.294	1	-7
494.486	1	7
495.678	1	3
496.870	1	3
498.062	1	-11
499.254	1	12
500.446	1	-1
501.638	1	-10
502.829	1	1
504.021	1	3
505.213	1	-1
506.404	1	6
507.596	1	-4
508.788	1	-5
509.979	1	13
511.171	1	2
512.362	1	-1
513.553	1	-1
514.745	1	-2
515.936	1	-2
517.127	1	8
518.319	1	3
519.510	1	11
520.701	1	9
521.892	1	2
523.083	1	1
524.274	1	0
525.465	1	1
526.656	1	10
527.847	1	-3
529.038	1	5
530.229	1	18
531.419	1	4
532.610	1	1
533.801	1	3
534.991	1	-4
536.182	1	-2
537.373	1	-2
538.563	1	-6
539.754	1	-7
540.944	1	-6
542.134	1	-1
543.325	1	0
544.515	1	-1
545.705	1	8
546.896	1	5
548.086	1	1
549.276	1	5
550.466	1	1
551.656	1	3
552.846	1	0
554.036	1	-3
555.226	1	-7
556.416	1	4
557.606	1	2
558.796	1	4
559.986	1	2
561.175	1	-9
562.365	1	-5
563.555	1	-1
564.744	1	-6
565.934	1	3
567.123	1	0
568.313	1	-9
569.502	1	0
570.692	1	12
571.881	1	-4
573.070	1	8
574.260	1	-4
575.449	1	5
576.638	1	0
577.827	1	-6
579.016	1	0
580.205	1	-4
581.394	1	2
582.583	1	7
583.772	1	-6
584.961	1	-6
586.150	1	-5
587.339	1	-1
588.528	1	0
589.717	1	-1
590.905	1	7
592.094	1	7
593.283	1	-3
594.471	1	14
595.660	1	1
596.848	1	3
598.037	1	1
599.225	1	3
600.413	1	-7
601.602	1	-2
602.790	1	13
603.978	1	3
605.166	1	2
606.355	1	-2
607.543	1	1
608.731	1	2
609.919	1	-2
611.107	1	-8
612.295	1	0
613.483	1	-9
614.671	1	8
615.858	1	-7
617.046	1	-3
618.234	1	-4
619.422	1	-2
620.609	1	2
621.797	1	-5
622.985	1	-6
624.172	1	-3
625.360	1	6
626.547	1	1
627.735	1	-7
628.922	1	0
630.109	1	-7
631.297	1	-1
632.484	1	-9
633.671	1	6
634.858	1	2
636.045	1	4
637.232	1	-4
638.419	1	7
639.606	1	-8
640.793	1	-5
641.980	1	-2
643.167	1	-7
644.354	1	5
645.541	1	10
646.728	1	-4
647.914	1	2
649.101	1	-2
650.288	1	-3
651.474	1	9
652.661	1	0
653.847	1	3
655.034	1	2
656.220	1	5
657.406	1	7
658.593	1	3
659.779	1	-1
660.965	1	19
662.152	1	0
663.338	1	8
664.524	1	1
665.710	1	-1
666.896	1	-1
668.082	1	16
669.268	1	0
670.454	1	-8
671.640	1	3
672.826	1	2
674.011	1	7
675.197	1	6
676.383	1	-2
677.569	1	-8
678.754	1	-7
679.940	1	13
681.125	1	8
682.311	1	0
683.496	1	9
684.682	1	-1
685.867	1	10
687.053	1	-9
688.238	1	-3
688.746	1	-8

File: GaN_sample D_spot 18_UVVIS_170 K_200um_550 ms 2x2mm1_315.txt
340.368	1	1
341.565	1	7
342.763	1	2
343.960	1	-6
345.157	1	4
346.354	1	-10
347.552	1	7
348.749	1	10
349.946	1	11
351.143	1	4
352.340	1	3
353.537	1	3
354.734	1	0
355.931	1	-4
357.127	1	0
358.324	1	12
359.521	1	3
360.718	1	2
361.914	1	6
363.111	1	16
364.308	1	0
365.504	1	1
366.701	1	5
367.897	1	11
369.093	1	-7
370.290	1	8
371.486	1	-6
372.682	1	14
373.879	1	14
375.075	1	-3
376.271	1	15
377.467	1	-2
378.663	1	6
379.859	1	5
381.055	1	3
382.251	1	6
383.447	1	11
384.643	1	2
385.839	1	-3
387.035	1	-7
388.230	1	3
389.426	1	-1
390.622	1	-1
391.817	1	2
393.013	1	4
394.208	1	8
395.404	1	9
396.599	1	0
397.795	1	-4
398.990	1	-5
400.186	1	-3
401.381	1	9
402.576	1	-3
403.771	1	0
404.967	1	4
406.162	1	9
407.357	1	-2
408.552	1	1
409.747	1	2
410.942	1	7
412.137	1	-6
413.332	1	-5
414.526	1	3
415.721	1	-2
416.916	1	-14
418.111	1	9
419.305	1	2
420.500	1	-1
421.695	1	-6
422.889	1	-3
424.084	1	9
425.278	1	1
426.472	1	3
427.667	1	10
428.861	1	3
430.055	1	6
431.250	1	6
432.444	1	-4
433.638	1	7
434.832	1	3
436.026	1	-2
437.220	1	-2
438.414	1	-3
439.608	1	-7
440.802	1	6
441.996	1	-2
443.190	1	7
444.384	1	5
445.578	1	2
446.771	1	-12
447.965	1	-6
449.159	1	-7
450.352	1	-5
451.546	1	-4
452.739	1	11
453.933	1	-6
455.126	1	9
456.320	1	1
457.513	1	8
458.706	1	6
459.899	1	4
461.093	1	6
462.286	1	-3
463.479	1	-1
464.672	1	-2
465.865	1	3
467.058	1	8
468.251	1	-2
469.444	1	5
470.637	1	-3
471.830	1	-5
473.023	1	6
474.215	1	2
475.408	1	1
476.601	1	1
477.793	1	6
478.986	1	-7
480.179	1	-2
481.371	1	-3
482.564	1	-6
483.756	1	3
484.948	1	3
486.141	1	12
487.333	1	5
488.525	1	3
489.718	1	9
490.910	1	1
492.102	1	-3
493.294	1	-1
494.486	1	7
495.678	1	3
496.870	1	-5
498.062	1	-3
499.254	1	3
500.446	1	3
501.638	1	-10
502.829	1	5
504.021	1	-1
505.213	1	-5
506.404	1	4
507.596	1	-1
508.788	1	-4
509.979	1	5
511.171	1	4
512.362	1	-5
513.553	1	4
514.745	1	-3
515.936	1	9
517.127	1	1
518.319	1	5
519.510	1	6
520.701	1	-3
521.892	1	1
523.083	1	-4
524.274	1	1
525.465	1	2
526.656	1	3
527.847	1	-1
529.038	1	-1
530.229	1	6
531.419	1	4
532.610	1	6
533.801	1	5
534.991	1	-4
536.182	1	5
537.373	1	-7
538.563	1	-1
539.754	1	-6
540.944	1	-2
542.134	1	-10
543.325	1	7
544.515	1	-1
545.705	1	3
546.896	1	2
548.086	1	0
549.276	1	8
550.466	1	-4
551.656	1	-2
552.846	1	0
554.036	1	2
555.226	1	-3
556.416	1	-2
557.606	1	0
558.796	1	7
559.986	1	3
561.175	1	-1
562.365	1	9
563.555	1	3
564.744	1	-3
565.934	1	5
567.123	1	0
568.313	1	-5
569.502	1	7
570.692	1	8
571.881	1	-3
573.070	1	2
574.260	1	3
575.449	1	-5
576.638	1	11
577.827	1	-3
579.016	1	-2
580.205	1	0
581.394	1	1
582.583	1	2
583.772	1	1
584.961	1	-4
586.150	1	-4
587.339	1	5
588.528	1	-4
589.717	1	4
590.905	1	7
592.094	1	2
593.283	1	7
594.471	1	6
595.660	1	1
596.848	1	9
598.037	1	-2
599.225	1	3
600.413	1	-8
601.602	1	-8
602.790	1	7
603.978	1	6
605.166	1	4
606.355	1	3
607.543	1	15
608.731	1	-2
609.919	1	-1
611.107	1	-1
612.295	1	-3
613.483	1	-6
614.671	1	7
615.858	1	-8
617.046	1	-6
618.234	1	6
619.422	1	-2
620.609	1	5
621.797	1	-4
622.985	1	2
624.172	1	1
625.360	1	0
626.547	1	-9
627.735	1	-3
628.922	1	-6
630.109	1	-5
631.297	1	4
632.484	1	-3
633.671	1	0
634.858	1	-3
636.045	1	7
637.232	1	4
638.419	1	-3
639.606	1	-13
640.793	1	-1
641.980	1	2
643.167	1	3
644.354	1	9
645.541	1	6
646.728	1	2
647.914	1	1
649.101	1	1
650.288	1	-8
651.474	1	8
652.661	1	-3
653.847	1	-7
655.034	1	-1
656.220	1	-4
657.406	1	4
658.593	1	7
659.779	1	4
660.965	1	16
662.152	1	5
663.338	1	4
664.524	1	6
665.710	1	2
666.896	1	4
668.082	1	1
669.268	1	-6
670.454	1	-3
671.640	1	7
672.826	1	4
674.011	1	12
675.197	1	1
676.383	1	-1
677.569	1	1
678.754	1	5
679.940	1	-2
681.125	1	4
682.311	1	-5
683.496	1	9
684.682	1	3
685.867	1	5
687.053	1	-6
688.238	1	4
688.746	1	-10

File: GaN_sample D_spot 18_UVVIS_170 K_200um_550 ms 2x2mm1_317.txt
340.368	1	-5
341.565	1	6
342.763	1	3
343.960	1	-7
345.157	1	-3
346.354	1	-1
347.552	1	9
348.749	1	7
349.946	1	9
351.143	1	5
352.340	1	2
353.537	1	2
354.734	1	11
355.931	1	-5
357.127	1	-1
358.324	1	7
359.521	1	3
360.718	1	4
361.914	1	-5
363.111	1	3
364.308	1	3
365.504	1	5
366.701	1	8
367.897	1	7
369.093	1	-1
370.290	1	8
371.486	1	-2
372.682	1	8
373.879	1	8
375.075	1	6
376.271	1	13
377.467	1	-3
378.663	1	2
379.859	1	3
381.055	1	-1
382.251	1	7
383.447	1	13
384.643	1	-2
385.839	1	-12
387.035	1	0
388.230	1	-7
389.426	1	5
390.622	1	-11
391.817	1	1
393.013	1	-8
394.208	1	4
395.404	1	10
396.599	1	-1
397.795	1	2
398.990	1	-5
400.186	1	1
401.381	1	7
402.576	1	2
403.771	1	-2
404.967	1	0
406.162	1	2
407.357	1	1
408.552	1	-3
409.747	1	-2
410.942	1	1
412.137	1	-1
413.332	1	-6
414.526	1	-4
415.721	1	-6
416.916	1	-14
418.111	1	6
419.305	1	5
420.500	1	3
421.695	1	-3
422.889	1	-1
424.084	1	6
425.278	1	5
426.472	1	4
427.667	1	-3
428.861	1	-1
430.055	1	-1
431.250	1	3
432.444	1	4
433.638	1	13
434.832	1	5
436.026	1	-6
437.220	1	-1
438.414	1	-7
439.608	1	0
440.802	1	7
441.996	1	1
443.190	1	4
444.384	1	-4
445.578	1	10
446.771	1	-9
447.965	1	4
449.159	1	-2
450.352	1	-11
451.546	1	-6
452.739	1	3
453.933	1	-3
455.126	1	7
456.320	1	1
457.513	1	1
458.706	1	6
459.899	1	1
461.093	1	6
462.286	1	-6
463.479	1	-9
464.672	1	-1
465.865	1	-1
467.058	1	4
468.251	1	-1
469.444	1	5
470.637	1	-1
471.830	1	2
473.023	1	7
474.215	1	2
475.408	1	1
476.601	1	0
477.793	1	7
478.986	1	1
480.179	1	-4
481.371	1	5
482.564	1	-1
483.756	1	2
484.948	1	-1
486.141	1	11
487.333	1	-2
488.525	1	-3
489.718	1	7
490.910	1	3
492.102	1	7
493.294	1	-9
494.486	1	19
495.678	1	-4
496.870	1	6
498.062	1	-5
499.254	1	4
500.446	1	-1
501.638	1	-6
502.829	1	4
504.021	1	4
505.213	1	-1
506.404	1	-3
507.596	1	8
508.788	1	-14
509.979	1	0
511.171	1	4
512.362	1	-6
513.553	1	-1
514.745	1	1
515.936	1	1
517.127	1	11
518.319	1	6
519.510	1	4
520.701	1	9
521.892	1	3
523.083	1	5
524.274	1	-3
525.465	1	0
526.656	1	11
527.847	1	0
529.038	1	4
530.229	1	16
531.419	1	8
532.610	1	1
533.801	1	8
534.991	1	-1
536.182	1	-1
537.373	1	-1
538.563	1	2
539.754	1	-4
540.944	1	-11
542.134	1	5
543.325	1	5
544.515	1	7
545.705	1	7
546.896	1	6
548.086	1	-7
549.276	1	-4
550.466	1	7
551.656	1	2
552.846	1	3
554.036	1	-5
555.226	1	1
556.416	1	5
557.606	1	-3
558.796	1	1
559.986	1	3
561.175	1	-10
562.365	1	0
563.555	1	1
564.744	1	-7
565.934	1	3
567.123	1	0
568.313	1	-3
569.502	1	6
570.692	1	11
571.881	1	0
573.070	1	4
574.260	1	9
575.449	1	7
576.638	1	5
577.827	1	1
579.016	1	2
580.205	1	1
581.394	1	-2
582.583	1	5
583.772	1	-1
584.961	1	-1
586.150	1	-6
587.339	1	9
588.528	1	-5
589.717	1	1
590.905	1	9
592.094	1	4
593.283	1	3
594.471	1	6
595.660	1	5
596.848	1	-1
598.037	1	8
599.225	1	4
600.413	1	-10
601.602	1	-1
602.790	1	2
603.978	1	1
605.166	1	7
606.355	1	8
607.543	1	12
608.731	1	-1
609.919	1	-2
611.107	1	-5
612.295	1	-1
613.483	1	-8
614.671	1	9
615.858	1	-7
617.046	1	-6
618.234	1	8
619.422	1	-6
620.609	1	7
621.797	1	4
622.985	1	-4
624.172	1	-2
625.360	1	3
626.547	1	1
627.735	1	-6
628.922	1	3
630.109	1	2
631.297	1	2
632.484	1	-3
633.671	1	8
634.858	1	-1
636.045	1	13
637.232	1	-1
638.419	1	-13
639.606	1	-7
640.793	1	1
641.980	1	-10
643.167	1	0
644.354	1	-3
645.541	1	4
646.728	1	-3
647.914	1	0
649.101	1	-2
650.288	1	-4
651.474	1	12
652.661	1	4
653.847	1	-1
655.034	1	-5
656.220	1	7
657.406	1	-1
658.593	1	2
659.779	1	2
660.965	1	18
662.152	1	-5
663.338	1	4
664.524	1	-2
665.710	1	4
666.896	1	2
668.082	1	5
669.268	1	-7
670.454	1	-6
671.640	1	6
672.826	1	3
674.011	1	1
675.197	1	7
676.383	1	11
677.569	1	0
678.754	1	7
679.940	1	9
681.125	1	6
682.311	1	0
683.496	1	2
684.682	1	9
685.867	1	7
687.053	1	-9
688.238	1	-4
688.746	1	-9

File: GaN_sample D_spot 18_UVVIS_170 K_200um_550 ms 2x2mm1_318.txt
340.368	1	5
341.565	1	17
342.763	1	4
343.960	1	-2
345.157	1	-1
346.354	1	-10
347.552	1	9
348.749	1	9
349.946	1	1
351.143	1	-3
352.340	1	6
353.537	1	-2
354.734	1	4
355.931	1	1
357.127	1	3
358.324	1	3
359.521	1	3
360.718	1	6
361.914	1	2
363.111	1	13
364.308	1	7
365.504	1	5
366.701	1	0
367.897	1	2
369.093	1	11
370.290	1	5
371.486	1	3
372.682	1	7
373.879	1	0
375.075	1	-3
376.271	1	10
377.467	1	7
378.663	1	8
379.859	1	3
381.055	1	-1
382.251	1	0
383.447	1	5
384.643	1	4
385.839	1	-3
387.035	1	4
388.230	1	0
389.426	1	-1
390.622	1	-3
391.817	1	12
393.013	1	-1
394.208	1	8
395.404	1	9
396.599	1	-7
397.795	1	-2
398.990	1	-11
400.186	1	-4
401.381	1	9
402.576	1	-3
403.771	1	-5
404.967	1	6
406.162	1	6
407.357	1	-2
408.552	1	-1
409.747	1	0
410.942	1	2
412.137	1	-6
413.332	1	-10
414.526	1	5
415.721	1	-5
416.916	1	0
418.111	1	2
419.305	1	0
420.500	1	-3
421.695	1	-9
422.889	1	7
424.084	1	11
425.278	1	-5
426.472	1	8
427.667	1	7
428.861	1	5
430.055	1	0
431.250	1	11
432.444	1	-2
433.638	1	2
434.832	1	4
436.026	1	-1
437.220	1	1
438.414	1	-14
439.608	1	-5
440.802	1	5
441.996	1	-12
443.190	1	-5
444.384	1	13
445.578	1	11
446.771	1	-16
447.965	1	-1
449.159	1	9
450.352	1	-8
451.546	1	-12
452.739	1	3
453.933	1	0
455.126	1	2
456.320	1	6
457.513	1	4
458.706	1	5
459.899	1	1
461.093	1	5
462.286	1	-4
463.479	1	-5
464.672	1	-8
465.865	1	2
467.058	1	1
468.251	1	-1
469.444	1	0
470.637	1	8
471.830	1	-5
473.023	1	7
474.215	1	-7
475.408	1	-4
476.601	1	-2
477.793	1	9
478.986	1	-1
480.179	1	0
481.371	1	-5
482.564	1	-3
483.756	1	1
484.948	1	-5
486.141	1	9
487.333	1	1
488.525	1	9
489.718	1	9
490.910	1	4
492.102	1	-1
493.294	1	-7
494.486	1	13
495.678	1	-5
496.870	1	0
498.062	1	2
499.254	1	10
500.446	1	-3
501.638	1	-6
502.829	1	0
504.021	1	6
505.213	1	-7
506.404	1	-4
507.596	1	3
508.788	1	-1
509.979	1	-1
511.171	1	4
512.362	1	-1
513.553	1	-1
514.745	1	-4
515.936	1	2
517.127	1	0
518.319	1	12
519.510	1	4
520.701	1	2
521.892	1	5
523.083	1	6
524.274	1	5
525.465	1	3
526.656	1	10
527.847	1	5
529.038	1	5
530.229	1	12
531.419	1	7
532.610	1	0
533.801	1	-2
534.991	1	-5
536.182	1	-3
537.373	1	-3
538.563	1	0
539.754	1	9
540.944	1	-8
542.134	1	-1
543.325	1	-3
544.515	1	-2
545.705	1	2
546.896	1	8
548.086	1	-7
549.276	1	4
550.466	1	1
551.656	1	-1
552.846	1	-3
554.036	1	7
555.226	1	-10
556.416	1	0
557.606	1	0
558.796	1	-2
559.986	1	11
561.175	1	-6
562.365	1	5
563.555	1	-2
564.744	1	0
565.934	1	-2
567.123	1	1
568.313	1	4
569.502	1	6
570.692	1	4
571.881	1	-5
573.070	1	1
574.260	1	1
575.449	1	5
576.638	1	7
577.827	1	-6
579.016	1	4
580.205	1	-10
581.394	1	-2
582.583	1	2
583.772	1	-9
584.961	1	-5
586.150	1	-3
587.339	1	0
588.528	1	4
589.717	1	-4
590.905	1	6
592.094	1	14
593.283	1	6
594.471	1	13
595.660	1	-3
596.848	1	-3
598.037	1	2
599.225	1	1
600.413	1	0
601.602	1	-5
602.790	1	8
603.978	1	4
605.166	1	8
606.355	1	15
607.543	1	10
608.731	1	0
609.919	1	3
611.107	1	-2
612.295	1	-4
613.483	1	-7
614.671	1	9
615.858	1	1
617.046	1	-2
618.234	1	6
619.422	1	-1
620.609	1	1
621.797	1	2
622.985	1	3
624.172	1	8
625.360	1	3
626.547	1	-6
627.735	1	-8
628.922	1	-6
630.109	1	2
631.297	1	-4
632.484	1	1
633.671	1	2
634.858	1	3
636.045	1	7
637.232	1	0
638.419	1	-8
639.606	1	-1
640.793	1	-14
641.980	1	-1
643.167	1	0
644.354	1	3
645.541	1	-4
646.728	1	-3
647.914	1	0
649.101	1	1
650.288	1	-9
651.474	1	4
652.661	1	11
653.847	1	2
655.034	1	-7
656.220	1	-1
657.406	1	1
658.593	1	-3
659.779	1	2
660.965	1	7
662.152	1	1
663.338	1	8
664.524	1	-3
665.710	1	-2
666.896	1	-3
668.082	1	10
669.268	1	-6
670.454	1	-10
671.640	1	1
672.826	1	-6
674.011	1	10
675.197	1	8
676.383	1	-4
677.569	1	-4
678.754	1	2
679.940	1	5
681.125	1	6
682.311	1	-2
683.496	1	3
684.682	1	4
685.867	1	6
687.053	1	-6
688.238	1	-1
688.746	1	-9

File: GaN_sample D_spot 18_UVVIS_170 K_200um_550 ms 2x2mm1_320.txt
340.368	1	1
341.565	1	7
342.763	1	0
343.960	1	-4
345.157	1	-6
346.354	1	-4
347.552	1	11
348.749	1	2
349.946	1	9
351.143	1	-3
352.340	1	3
353.537	1	-3
354.734	1	3
355.931	1	-8
357.127	1	6
358.324	1	3
359.521	1	6
360.718	1	7
361.914	1	-1
363.111	1	8
364.308	1	7
365.504	1	10
366.701	1	1
367.897	1	1
369.093	1	-2
370.290	1	4
371.486	1	1
372.682	1	9
373.879	1	7
375.075	1	4
376.271	1	10
377.467	1	11
378.663	1	-1
379.859	1	7
381.055	1	7
382.251	1	2
383.447	1	8
384.643	1	1
385.839	1	-7
387.035	1	-2
388.230	1	2
389.426	1	6
390.622	1	9
391.817	1	7
393.013	1	-2
394.208	1	2
395.404	1	4
396.599	1	-10
397.795	1	-3
398.990	1	-9
400.186	1	-7
401.381	1	-1
402.576	1	0
403.771	1	3
404.967	1	3
406.162	1	6
407.357	1	-2
408.552	1	4
409.747	1	2
410.942	1	9
412.137	1	-9
413.332	1	-2
414.526	1	8
415.721	1	-1
416.916	1	-4
418.111	1	0
419.305	1	5
420.500	1	-3
421.695	1	-3
422.889	1	-8
424.084	1	18
425.278	1	-1
426.472	1	-3
427.667	1	3
428.861	1	9
430.055	1	-4
431.250	1	15
432.444	1	4
433.638	1	-1
434.832	1	3
436.026	1	0
437.220	1	2
438.414	1	0
439.608	1	0
440.802	1	4
441.996	1	1
443.190	1	4
444.384	1	-5
445.578	1	13
446.771	1	-13
447.965	1	0
449.159	1	-3
450.352	1	-7
451.546	1	-6
452.739	1	0
453.933	1	5
455.126	1	13
456.320	1	4
457.513	1	9
458.706	1	2
459.899	1	1
461.093	1	-1
462.286	1	3
463.479	1	-2
464.672	1	-9
465.865	1	-4
467.058	1	-4
468.251	1	4
469.444	1	-3
470.637	1	10
471.830	1	-2
473.023	1	0
474.215	1	2
475.408	1	3
476.601	1	-1
477.793	1	9
478.986	1	-2
480.179	1	-4
481.371	1	-9
482.564	1	-3
483.756	1	3
484.948	1	4
486.141	1	7
487.333	1	-5
488.525	1	6
489.718	1	5
490.910	1	11
492.102	1	-1
493.294	1	-1
494.486	1	4
495.678	1	3
496.870	1	-5
498.062	1	-2
499.254	1	14
500.446	1	0
501.638	1	-4
502.829	1	-4
504.021	1	4
505.213	1	2
506.404	1	8
507.596	1	-1
508.788	1	-11
509.979	1	10
511.171	1	7
512.362	1	-1
513.553	1	5
514.745	1	-2
515.936	1	-3
517.127	1	15
518.319	1	-6
519.510	1	7
520.701	1	1
521.892	1	2
523.083	1	3
524.274	1	0
525.465	1	1
526.656	1	9
527.847	1	7
529.038	1	-6
530.229	1	13
531.419	1	8
532.610	1	8
533.801	1	0
534.991	1	12
536.182	1	1
537.373	1	-3
538.563	1	14
539.754	1	1
540.944	1	-6
542.134	1	2
543.325	1	-2
544.515	1	2
545.705	1	0
546.896	1	4
548.086	1	6
549.276	1	0
550.466	1	3
551.656	1	0
552.846	1	0
554.036	1	-1
555.226	1	-7
556.416	1	-7
557.606	1	0
558.796	1	-2
559.986	1	6
561.175	1	-8
562.365	1	0
563.555	1	3
564.744	1	-2
565.934	1	-9
567.123	1	1
568.313	1	1
569.502	1	4
570.692	1	10
571.881	1	-2
573.070	1	0
574.260	1	-3
575.449	1	-3
576.638	1	6
577.827	1	-5
579.016	1	-2
580.205	1	-2
581.394	1	6
582.583	1	1
583.772	1	2
584.961	1	2
586.150	1	5
587.339	1	-1
588.528	1	-7
589.717	1	6
590.905	1	3
592.094	1	11
593.283	1	7
594.471	1	13
595.660	1	9
596.848	1	14
598.037	1	-7
599.225	1	3
600.413	1	0
601.602	1	-2
602.790	1	4
603.978	1	0
605.166	1	7
606.355	1	3
607.543	1	8
608.731	1	3
609.919	1	4
611.107	1	1
612.295	1	3
613.483	1	3
614.671	1	10
615.858	1	-5
617.046	1	0
618.234	1	2
619.422	1	-13
620.609	1	2
621.797	1	3
622.985	1	1
624.172	1	1
625.360	1	2
626.547	1	-5
627.735	1	-11
628.922	1	-1
630.109	1	-1
631.297	1	-5
632.484	1	-10
633.671	1	6
634.858	1	0
636.045	1	0
637.232	1	-4
638.419	1	-13
639.606	1	-4
640.793	1	-6
641.980	1	-5
643.167	1	-4
644.354	1	6
645.541	1	7
646.728	1	-2
647.914	1	-9
649.101	1	4
650.288	1	-5
651.474	1	4
652.661	1	5
653.847	1	7
655.034	1	-3
656.220	1	1
657.406	1	-5
658.593	1	2
659.779	1	5
660.965	1	15
662.152	1	1
663.338	1	3
664.524	1	5
665.710	1	1
666.896	1	-9
668.082	1	6
669.268	1	2
670.454	1	-5
671.640	1	0
672.826	1	7
674.011	1	6
675.197	1	4
676.383	1	5
677.569	1	-7
678.754	1	3
679.940	1	8
681.125	1	5
682.311	1	8
683.496	1	0
684.682	1	9
685.867	1	10
687.053	1	-4
688.238	1	-13
688.746	1	2

File: GaN_sample D_spot 18_UVVIS_170 K_200um_550 ms 2x2mm1_322.txt
340.368	1	-3
341.565	1	0
342.763	1	-2
343.960	1	0
345.157	1	6
346.354	1	-5
347.552	1	2
348.749	1	7
349.946	1	1
351.143	1	-5
352.340	1	-2
353.537	1	6
354.734	1	6
355.931	1	0
357.127	1	3
358.324	1	11
359.521	1	7
360.718	1	-1
361.914	1	-2
363.111	1	10
364.308	1	14
365.504	1	-4
366.701	1	7
367.897	1	3
369.093	1	1
370.290	1	-2
371.486	1	-1
372.682	1	-1
373.879	1	16
375.075	1	-1
376.271	1	-3
377.467	1	4
378.663	1	0
379.859	1	6
381.055	1	-5
382.251	1	7
383.447	1	7
384.643	1	-8
385.839	1	-8
387.035	1	-1
388.230	1	0
389.426	1	-1
390.622	1	-2
391.817	1	4
393.013	1	-4
394.208	1	2
395.404	1	14
396.599	1	-7
397.795	1	-2
398.990	1	-7
400.186	1	-6
401.381	1	9
402.576	1	-3
403.771	1	-2
404.967	1	3
406.162	1	1
407.357	1	-6
408.552	1	-2
409.747	1	-9
410.942	1	0
412.137	1	-10
413.332	1	-1
414.526	1	-2
415.721	1	-1
416.916	1	-1
418.111	1	-2
419.305	1	-3
420.500	1	-7
421.695	1	3
422.889	1	1
424.084	1	21
425.278	1	-8
426.472	1	2
427.667	1	4
428.861	1	6
430.055	1	5
431.250	1	8
432.444	1	8
433.638	1	11
434.832	1	-4
436.026	1	3
437.220	1	2
438.414	1	-6
439.608	1	4
440.802	1	1
441.996	1	-4
443.190	1	6
444.384	1	4
445.578	1	11
446.771	1	-14
447.965	1	3
449.159	1	2
450.352	1	-5
451.546	1	-12
452.739	1	5
453.933	1	-2
455.126	1	20
456.320	1	2
457.513	1	8
458.706	1	4
459.899	1	3
461.093	1	8
462.286	1	-5
463.479	1	1
464.672	1	-3
465.865	1	-4
467.058	1	0
468.251	1	6
469.444	1	-5
470.637	1	-4
471.830	1	-1
473.023	1	1
474.215	1	6
475.408	1	-7
476.601	1	1
477.793	1	4
478.986	1	1
480.179	1	-10
481.371	1	-3
482.564	1	-5
483.756	1	8
484.948	1	0
486.141	1	15
487.333	1	-3
488.525	1	8
489.718	1	8
490.910	1	-12
492.102	1	3
493.294	1	-5
494.486	1	11
495.678	1	0
496.870	1	-10
498.062	1	4
499.254	1	18
500.446	1	-6
501.638	1	-2
502.829	1	-7
504.021	1	9
505.213	1	0
506.404	1	9
507.596	1	6
508.788	1	-7
509.979	1	9
511.171	1	7
512.362	1	-6
513.553	1	3
514.745	1	-1
515.936	1	2
517.127	1	10
518.319	1	-2
519.510	1	5
520.701	1	-1
521.892	1	5
523.083	1	-1
524.274	1	-4
525.465	1	0
526.656	1	7
527.847	1	10
529.038	1	-4
530.229	1	12
531.419	1	3
532.610	1	-3
533.801	1	-5
534.991	1	-3
536.182	1	0
537.373	1	-8
538.563	1	-2
539.754	1	3
540.944	1	-2
542.134	1	-1
543.325	1	-5
544.515	1	-5
545.705	1	4
546.896	1	6
548.086	1	3
549.276	1	-1
550.466	1	-8
551.656	1	3
552.846	1	-6
554.036	1	0
555.226	1	7
556.416	1	-7
557.606	1	3
558.796	1	-2
559.986	1	3
561.175	1	-4
562.365	1	5
563.555	1	2
564.744	1	-4
565.934	1	-2
567.123	1	-9
568.313	1	5
569.502	1	6
570.692	1	-3
571.881	1	1
573.070	1	-5
574.260	1	2
575.449	1	3
576.638	1	4
577.827	1	-4
579.016	1	3
580.205	1	-1
581.394	1	-3
582.583	1	3
583.772	1	-2
584.961	1	-1
586.150	1	-6
587.339	1	0
588.528	1	2
589.717	1	9
590.905	1	7
592.094	1	2
593.283	1	10
594.471	1	9
595.660	1	-3
596.848	1	-2
598.037	1	6
599.225	1	-2
600.413	1	-6
601.602	1	12
602.790	1	9
603.978	1	5
605.166	1	4
606.355	1	6
607.543	1	9
608.731	1	-2
609.919	1	1
611.107	1	-11
612.295	1	1
613.483	1	2
614.671	1	3
615.858	1	-6
617.046	1	-9
618.234	1	1
619.422	1	-12
620.609	1	-1
621.797	1	-3
622.985	1	3
624.172	1	0
625.360	1	4
626.547	1	-6
627.735	1	-15
628.922	1	-2
630.109	1	-6
631.297	1	1
632.484	1	-2
633.671	1	8
634.858	1	7
636.045	1	10
637.232	1	8
638.419	1	-7
639.606	1	-5
640.793	1	2
641.980	1	-7
643.167	1	-7
644.354	1	3
645.541	1	4
646.728	1	2
647.914	1	3
649.101	1	1
650.288	1	3
651.474	1	7
652.661	1	3
653.847	1	3
655.034	1	-6
656.220	1	1
657.406	1	-1
658.593	1	-4
659.779	1	2
660.965	1	6
662.152	1	-6
663.338	1	-3
664.524	1	9
665.710	1	-6
666.896	1	-2
668.082	1	1
669.268	1	-7
670.454	1	0
671.640	1	7
672.826	1	-2
674.011	1	-4
675.197	1	3
676.383	1	-5
677.569	1	-8
678.754	1	9
679.940	1	5
681.125	1	7
682.311	1	-4
683.496	1	5
684.682	1	0
685.867	1	9
687.053	1	1
688.238	1	-5
688.746	1	-2