Folder: cryo-il_analysis/Data/GaN_200K_800ms (part 39)

File: GaN_sample F_spot 12_UVVIS_200 K_200um_800 ms 2x2mm1_449.txt
340.368	1	2
341.565	1	-17
342.763	1	4
343.960	1	-2
345.157	1	2
346.354	1	0
347.552	1	-5
348.749	1	-4
349.946	1	-10
351.143	1	-3
352.340	1	3
353.537	1	3
354.734	1	10
355.931	1	-1
357.127	1	1
358.324	1	-5
359.521	1	3
360.718	1	7
361.914	1	11
363.111	1	4
364.308	1	3
365.504	1	11
366.701	1	2
367.897	1	2
369.093	1	5
370.290	1	1
371.486	1	10
372.682	1	2
373.879	1	-1
375.075	1	3
376.271	1	1
377.467	1	2
378.663	1	2
379.859	1	-1
381.055	1	17
382.251	1	-6
383.447	1	-7
384.643	1	14
385.839	1	10
387.035	1	-2
388.230	1	5
389.426	1	1
390.622	1	-1
391.817	1	9
393.013	1	3
394.208	1	3
395.404	1	-5
396.599	1	-3
397.795	1	1
398.990	1	-3
400.186	1	13
401.381	1	-10
402.576	1	-6
403.771	1	3
404.967	1	8
406.162	1	4
407.357	1	1
408.552	1	-9
409.747	1	3
410.942	1	6
412.137	1	6
413.332	1	5
414.526	1	-3
415.721	1	4
416.916	1	-2
418.111	1	1
419.305	1	5
420.500	1	-5
421.695	1	-5
422.889	1	-7
424.084	1	-7
425.278	1	11
426.472	1	-4
427.667	1	0
428.861	1	-5
430.055	1	3
431.250	1	0
432.444	1	2
433.638	1	-8
434.832	1	7
436.026	1	9
437.220	1	5
438.414	1	-11
439.608	1	-10
440.802	1	-5
441.996	1	3
443.190	1	1
444.384	1	-16
445.578	1	-16
446.771	1	17
447.965	1	-6
449.159	1	-4
450.352	1	0
451.546	1	0
452.739	1	2
453.933	1	-7
455.126	1	-6
456.320	1	-1
457.513	1	11
458.706	1	-1
459.899	1	-1
461.093	1	-6
462.286	1	-2
463.479	1	-5
464.672	1	-3
465.865	1	-3
467.058	1	-1
468.251	1	3
469.444	1	-9
470.637	1	1
471.830	1	2
473.023	1	3
474.215	1	-3
475.408	1	1
476.601	1	2
477.793	1	-7
478.986	1	-7
480.179	1	-4
481.371	1	-1
482.564	1	-3
483.756	1	-5
484.948	1	-7
486.141	1	-3
487.333	1	7
488.525	1	-5
489.718	1	3
490.910	1	-13
492.102	1	-6
493.294	1	-6
494.486	1	2
495.678	1	3
496.870	1	7
498.062	1	-7
499.254	1	-5
500.446	1	-9
501.638	1	-2
502.829	1	-11
504.021	1	2
505.213	1	0
506.404	1	2
507.596	1	-1
508.788	1	1
509.979	1	-5
511.171	1	-6
512.362	1	1
513.553	1	-12
514.745	1	-9
515.936	1	-4
517.127	1	4
518.319	1	-3
519.510	1	2
520.701	1	7
521.892	1	0
523.083	1	-4
524.274	1	-1
525.465	1	8
526.656	1	-8
527.847	1	-5
529.038	1	1
530.229	1	9
531.419	1	5
532.610	1	-8
533.801	1	9
534.991	1	-1
536.182	1	-2
537.373	1	1
538.563	1	7
539.754	1	3
540.944	1	-2
542.134	1	2
543.325	1	-5
544.515	1	-2
545.705	1	-2
546.896	1	1
548.086	1	-2
549.276	1	-4
550.466	1	1
551.656	1	-2
552.846	1	-9
554.036	1	3
555.226	1	-8
556.416	1	-7
557.606	1	1
558.796	1	2
559.986	1	-1
561.175	1	4
562.365	1	-3
563.555	1	-1
564.744	1	-1
565.934	1	0
567.123	1	14
568.313	1	9
569.502	1	-8
570.692	1	3
571.881	1	3
573.070	1	-3
574.260	1	4
575.449	1	-4
576.638	1	-8
577.827	1	-8
579.016	1	12
580.205	1	-7
581.394	1	-3
582.583	1	2
583.772	1	4
584.961	1	5
586.150	1	-8
587.339	1	6
588.528	1	-7
589.717	1	2
590.905	1	-8
592.094	1	-4
593.283	1	0
594.471	1	9
595.660	1	-1
596.848	1	6
598.037	1	-1
599.225	1	-10
600.413	1	3
601.602	1	9
602.790	1	-7
603.978	1	-2
605.166	1	-1
606.355	1	-1
607.543	1	-7
608.731	1	1
609.919	1	13
611.107	1	3
612.295	1	-10
613.483	1	3
614.671	1	3
615.858	1	-2
617.046	1	3
618.234	1	-8
619.422	1	-7
620.609	1	0
621.797	1	-5
622.985	1	0
624.172	1	-1
625.360	1	5
626.547	1	4
627.735	1	-5
628.922	1	3
630.109	1	-7
631.297	1	-9
632.484	1	1
633.671	1	0
634.858	1	-1
636.045	1	5
637.232	1	-6
638.419	1	-2
639.606	1	-2
640.793	1	4
641.980	1	2
643.167	1	-2
644.354	1	1
645.541	1	1
646.728	1	6
647.914	1	-4
649.101	1	-3
650.288	1	-2
651.474	1	-3
652.661	1	-3
653.847	1	2
655.034	1	0
656.220	1	-11
657.406	1	1
658.593	1	6
659.779	1	3
660.965	1	5
662.152	1	2
663.338	1	-2
664.524	1	-2
665.710	1	0
666.896	1	-4
668.082	1	-9
669.268	1	-8
670.454	1	1
671.640	1	4
672.826	1	-4
674.011	1	1
675.197	1	-5
676.383	1	7
677.569	1	-2
678.754	1	-6
679.940	1	0
681.125	1	5
682.311	1	-4
683.496	1	2
684.682	1	-5
685.867	1	-7
687.053	1	9
688.238	1	5
688.746	1	-4

File: GaN_sample F_spot 12_UVVIS_200 K_200um_800 ms 2x2mm1_451.txt
340.368	1	3
341.565	1	-16
342.763	1	-2
343.960	1	0
345.157	1	-7
346.354	1	1
347.552	1	4
348.749	1	-7
349.946	1	-8
351.143	1	-5
352.340	1	-3
353.537	1	-4
354.734	1	1
355.931	1	-8
357.127	1	6
358.324	1	-2
359.521	1	10
360.718	1	3
361.914	1	5
363.111	1	3
364.308	1	-1
365.504	1	8
366.701	1	11
367.897	1	6
369.093	1	7
370.290	1	14
371.486	1	13
372.682	1	10
373.879	1	1
375.075	1	-2
376.271	1	9
377.467	1	3
378.663	1	-2
379.859	1	2
381.055	1	17
382.251	1	-9
383.447	1	-10
384.643	1	14
385.839	1	2
387.035	1	9
388.230	1	13
389.426	1	-4
390.622	1	5
391.817	1	1
393.013	1	-1
394.208	1	2
395.404	1	-2
396.599	1	-3
397.795	1	1
398.990	1	0
400.186	1	-6
401.381	1	-8
402.576	1	1
403.771	1	12
404.967	1	6
406.162	1	9
407.357	1	-7
408.552	1	-5
409.747	1	-14
410.942	1	4
412.137	1	3
413.332	1	0
414.526	1	-3
415.721	1	-3
416.916	1	-8
418.111	1	5
419.305	1	-5
420.500	1	-1
421.695	1	-5
422.889	1	-15
424.084	1	-5
425.278	1	3
426.472	1	3
427.667	1	5
428.861	1	-3
430.055	1	-5
431.250	1	-1
432.444	1	1
433.638	1	-1
434.832	1	0
436.026	1	9
437.220	1	4
438.414	1	-12
439.608	1	-5
440.802	1	-3
441.996	1	3
443.190	1	-3
444.384	1	-2
445.578	1	-14
446.771	1	3
447.965	1	0
449.159	1	-10
450.352	1	-8
451.546	1	-4
452.739	1	2
453.933	1	-6
455.126	1	-6
456.320	1	-3
457.513	1	4
458.706	1	0
459.899	1	-6
461.093	1	-1
462.286	1	0
463.479	1	-13
464.672	1	-3
465.865	1	-1
467.058	1	-4
468.251	1	-1
469.444	1	3
470.637	1	0
471.830	1	-2
473.023	1	5
474.215	1	11
475.408	1	-7
476.601	1	-3
477.793	1	-6
478.986	1	-5
480.179	1	2
481.371	1	4
482.564	1	-6
483.756	1	1
484.948	1	-6
486.141	1	-5
487.333	1	2
488.525	1	-1
489.718	1	-8
490.910	1	-5
492.102	1	-4
493.294	1	-5
494.486	1	3
495.678	1	-11
496.870	1	-3
498.062	1	4
499.254	1	1
500.446	1	-12
501.638	1	-8
502.829	1	-8
504.021	1	5
505.213	1	9
506.404	1	7
507.596	1	8
508.788	1	8
509.979	1	-4
511.171	1	-7
512.362	1	-5
513.553	1	-20
514.745	1	0
515.936	1	-1
517.127	1	-12
518.319	1	-3
519.510	1	1
520.701	1	-1
521.892	1	-4
523.083	1	-2
524.274	1	-3
525.465	1	6
526.656	1	-5
527.847	1	1
529.038	1	-3
530.229	1	4
531.419	1	5
532.610	1	-3
533.801	1	13
534.991	1	1
536.182	1	-3
537.373	1	-1
538.563	1	6
539.754	1	2
540.944	1	-2
542.134	1	3
543.325	1	-2
544.515	1	-1
545.705	1	-6
546.896	1	0
548.086	1	-1
549.276	1	-3
550.466	1	7
551.656	1	-2
552.846	1	0
554.036	1	-7
555.226	1	-10
556.416	1	-5
557.606	1	-1
558.796	1	-7
559.986	1	-5
561.175	1	9
562.365	1	-2
563.555	1	-3
564.744	1	3
565.934	1	0
567.123	1	2
568.313	1	5
569.502	1	-7
570.692	1	7
571.881	1	13
573.070	1	5
574.260	1	13
575.449	1	-6
576.638	1	-15
577.827	1	-7
579.016	1	8
580.205	1	-3
581.394	1	1
582.583	1	15
583.772	1	1
584.961	1	-3
586.150	1	-2
587.339	1	-1
588.528	1	-3
589.717	1	-2
590.905	1	7
592.094	1	5
593.283	1	4
594.471	1	7
595.660	1	-4
596.848	1	-6
598.037	1	-5
599.225	1	-5
600.413	1	9
601.602	1	13
602.790	1	-8
603.978	1	2
605.166	1	8
606.355	1	10
607.543	1	0
608.731	1	-3
609.919	1	7
611.107	1	-3
612.295	1	-7
613.483	1	0
614.671	1	6
615.858	1	9
617.046	1	9
618.234	1	0
619.422	1	-7
620.609	1	-3
621.797	1	-2
622.985	1	-1
624.172	1	-2
625.360	1	1
626.547	1	3
627.735	1	8
628.922	1	8
630.109	1	-10
631.297	1	-3
632.484	1	-2
633.671	1	-5
634.858	1	4
636.045	1	15
637.232	1	-1
638.419	1	-7
639.606	1	8
640.793	1	11
641.980	1	2
643.167	1	0
644.354	1	3
645.541	1	-4
646.728	1	-3
647.914	1	-1
649.101	1	-6
650.288	1	3
651.474	1	-5
652.661	1	-5
653.847	1	1
655.034	1	-3
656.220	1	-5
657.406	1	12
658.593	1	0
659.779	1	9
660.965	1	5
662.152	1	7
663.338	1	4
664.524	1	3
665.710	1	3
666.896	1	-13
668.082	1	-3
669.268	1	-8
670.454	1	0
671.640	1	7
672.826	1	-2
674.011	1	-3
675.197	1	-11
676.383	1	-6
677.569	1	-4
678.754	1	-11
679.940	1	-1
681.125	1	6
682.311	1	2
683.496	1	8
684.682	1	-11
685.867	1	-3
687.053	1	0
688.238	1	6
688.746	1	-6

File: GaN_sample F_spot 12_UVVIS_200 K_200um_800 ms 2x2mm1_461.txt
340.368	1	2
341.565	1	-9
342.763	1	10
343.960	1	2
345.157	1	-6
346.354	1	1
347.552	1	-4
348.749	1	-15
349.946	1	-5
351.143	1	-5
352.340	1	2
353.537	1	-3
354.734	1	3
355.931	1	-5
357.127	1	-6
358.324	1	-4
359.521	1	3
360.718	1	-3
361.914	1	16
363.111	1	6
364.308	1	0
365.504	1	5
366.701	1	0
367.897	1	9
369.093	1	-2
370.290	1	-3
371.486	1	9
372.682	1	9
373.879	1	1
375.075	1	0
376.271	1	13
377.467	1	3
378.663	1	5
379.859	1	3
381.055	1	0
382.251	1	-2
383.447	1	-3
384.643	1	6
385.839	1	-7
387.035	1	3
388.230	1	10
389.426	1	6
390.622	1	-7
391.817	1	5
393.013	1	4
394.208	1	1
395.404	1	7
396.599	1	-9
397.795	1	4
398.990	1	-4
400.186	1	0
401.381	1	-7
402.576	1	-1
403.771	1	-4
404.967	1	0
406.162	1	-2
407.357	1	-6
408.552	1	-8
409.747	1	-5
410.942	1	8
412.137	1	1
413.332	1	-2
414.526	1	0
415.721	1	-8
416.916	1	-10
418.111	1	-3
419.305	1	4
420.500	1	-1
421.695	1	-3
422.889	1	-8
424.084	1	-3
425.278	1	8
426.472	1	1
427.667	1	4
428.861	1	-4
430.055	1	5
431.250	1	-15
432.444	1	7
433.638	1	-10
434.832	1	8
436.026	1	0
437.220	1	-9
438.414	1	-3
439.608	1	-5
440.802	1	-8
441.996	1	-2
443.190	1	9
444.384	1	-11
445.578	1	-19
446.771	1	6
447.965	1	-2
449.159	1	-5
450.352	1	-7
451.546	1	-5
452.739	1	3
453.933	1	-1
455.126	1	-11
456.320	1	-2
457.513	1	3
458.706	1	8
459.899	1	-4
461.093	1	3
462.286	1	-2
463.479	1	-6
464.672	1	1
465.865	1	-9
467.058	1	-1
468.251	1	-3
469.444	1	-14
470.637	1	-1
471.830	1	-4
473.023	1	0
474.215	1	14
475.408	1	-6
476.601	1	-7
477.793	1	-10
478.986	1	-3
480.179	1	5
481.371	1	-8
482.564	1	-8
483.756	1	3
484.948	1	2
486.141	1	0
487.333	1	2
488.525	1	5
489.718	1	-6
490.910	1	0
492.102	1	3
493.294	1	-8
494.486	1	4
495.678	1	-4
496.870	1	7
498.062	1	-3
499.254	1	-7
500.446	1	-16
501.638	1	-6
502.829	1	-5
504.021	1	-2
505.213	1	-2
506.404	1	0
507.596	1	-4
508.788	1	6
509.979	1	2
511.171	1	-6
512.362	1	-2
513.553	1	-5
514.745	1	-3
515.936	1	2
517.127	1	5
518.319	1	1
519.510	1	0
520.701	1	-3
521.892	1	0
523.083	1	8
524.274	1	-1
525.465	1	10
526.656	1	-3
527.847	1	7
529.038	1	1
530.229	1	-6
531.419	1	3
532.610	1	-6
533.801	1	2
534.991	1	-5
536.182	1	1
537.373	1	5
538.563	1	6
539.754	1	-1
540.944	1	-12
542.134	1	6
543.325	1	-4
544.515	1	-2
545.705	1	2
546.896	1	-4
548.086	1	0
549.276	1	1
550.466	1	0
551.656	1	3
552.846	1	4
554.036	1	-3
555.226	1	-4
556.416	1	-8
557.606	1	-1
558.796	1	-1
559.986	1	-5
561.175	1	3
562.365	1	2
563.555	1	-5
564.744	1	4
565.934	1	4
567.123	1	5
568.313	1	0
569.502	1	6
570.692	1	5
571.881	1	11
573.070	1	1
574.260	1	5
575.449	1	-5
576.638	1	2
577.827	1	-12
579.016	1	11
580.205	1	-4
581.394	1	-1
582.583	1	3
583.772	1	0
584.961	1	6
586.150	1	-7
587.339	1	6
588.528	1	-6
589.717	1	7
590.905	1	-6
592.094	1	-2
593.283	1	-1
594.471	1	1
595.660	1	5
596.848	1	4
598.037	1	0
599.225	1	-12
600.413	1	2
601.602	1	8
602.790	1	5
603.978	1	-2
605.166	1	-7
606.355	1	4
607.543	1	-2
608.731	1	-4
609.919	1	13
611.107	1	-6
612.295	1	0
613.483	1	-4
614.671	1	4
615.858	1	1
617.046	1	5
618.234	1	-16
619.422	1	-4
620.609	1	8
621.797	1	-1
622.985	1	-5
624.172	1	-16
625.360	1	3
626.547	1	-2
627.735	1	4
628.922	1	3
630.109	1	-12
631.297	1	-11
632.484	1	-8
633.671	1	-13
634.858	1	-4
636.045	1	15
637.232	1	-3
638.419	1	2
639.606	1	10
640.793	1	4
641.980	1	7
643.167	1	-6
644.354	1	5
645.541	1	1
646.728	1	-5
647.914	1	-3
649.101	1	-1
650.288	1	7
651.474	1	-5
652.661	1	-9
653.847	1	7
655.034	1	1
656.220	1	-5
657.406	1	-6
658.593	1	2
659.779	1	-6
660.965	1	7
662.152	1	-1
663.338	1	9
664.524	1	3
665.710	1	-6
666.896	1	-3
668.082	1	-4
669.268	1	-12
670.454	1	5
671.640	1	2
672.826	1	-9
674.011	1	-4
675.197	1	-12
676.383	1	-6
677.569	1	-3
678.754	1	-3
679.940	1	-5
681.125	1	-1
682.311	1	3
683.496	1	3
684.682	1	-9
685.867	1	-1
687.053	1	-1
688.238	1	15
688.746	1	-2

File: GaN_sample F_spot 12_UVVIS_200 K_200um_800 ms 2x2mm1_464.txt
340.368	1	9
341.565	1	-1
342.763	1	7
343.960	1	-1
345.157	1	-10
346.354	1	-2
347.552	1	-4
348.749	1	-5
349.946	1	-7
351.143	1	-6
352.340	1	-1
353.537	1	-1
354.734	1	1
355.931	1	5
357.127	1	7
358.324	1	3
359.521	1	0
360.718	1	-1
361.914	1	3
363.111	1	0
364.308	1	5
365.504	1	8
366.701	1	6
367.897	1	9
369.093	1	7
370.290	1	7
371.486	1	5
372.682	1	4
373.879	1	8
375.075	1	-6
376.271	1	9
377.467	1	5
378.663	1	-12
379.859	1	-6
381.055	1	9
382.251	1	-1
383.447	1	-7
384.643	1	11
385.839	1	-2
387.035	1	0
388.230	1	7
389.426	1	-4
390.622	1	-1
391.817	1	6
393.013	1	-8
394.208	1	6
395.404	1	-11
396.599	1	-4
397.795	1	0
398.990	1	0
400.186	1	-4
401.381	1	-5
402.576	1	-1
403.771	1	4
404.967	1	0
406.162	1	3
407.357	1	1
408.552	1	3
409.747	1	-4
410.942	1	8
412.137	1	5
413.332	1	3
414.526	1	4
415.721	1	-3
416.916	1	-5
418.111	1	-1
419.305	1	3
420.500	1	-10
421.695	1	-5
422.889	1	-7
424.084	1	-6
425.278	1	6
426.472	1	-1
427.667	1	3
428.861	1	0
430.055	1	3
431.250	1	-7
432.444	1	2
433.638	1	-5
434.832	1	-3
436.026	1	-1
437.220	1	2
438.414	1	-1
439.608	1	-10
440.802	1	-10
441.996	1	1
443.190	1	-1
444.384	1	-12
445.578	1	-3
446.771	1	15
447.965	1	0
449.159	1	-8
450.352	1	-2
451.546	1	-2
452.739	1	8
453.933	1	-6
455.126	1	-2
456.320	1	-2
457.513	1	4
458.706	1	-3
459.899	1	1
461.093	1	-2
462.286	1	2
463.479	1	-6
464.672	1	-4
465.865	1	-2
467.058	1	-3
468.251	1	-4
469.444	1	-9
470.637	1	-6
471.830	1	2
473.023	1	-3
474.215	1	8
475.408	1	11
476.601	1	5
477.793	1	-1
478.986	1	-3
480.179	1	-8
481.371	1	-4
482.564	1	-4
483.756	1	-3
484.948	1	-3
486.141	1	-8
487.333	1	4
488.525	1	9
489.718	1	3
490.910	1	-4
492.102	1	-14
493.294	1	-10
494.486	1	5
495.678	1	-3
496.870	1	4
498.062	1	1
499.254	1	5
500.446	1	1
501.638	1	-1
502.829	1	0
504.021	1	-2
505.213	1	1
506.404	1	-1
507.596	1	1
508.788	1	12
509.979	1	-2
511.171	1	-3
512.362	1	-11
513.553	1	-11
514.745	1	-5
515.936	1	-5
517.127	1	-2
518.319	1	-3
519.510	1	1
520.701	1	4
521.892	1	5
523.083	1	-1
524.274	1	-1
525.465	1	13
526.656	1	4
527.847	1	1
529.038	1	-2
530.229	1	5
531.419	1	-5
532.610	1	-4
533.801	1	11
534.991	1	0
536.182	1	0
537.373	1	2
538.563	1	2
539.754	1	1
540.944	1	3
542.134	1	-7
543.325	1	3
544.515	1	-2
545.705	1	-3
546.896	1	-2
548.086	1	0
549.276	1	-4
550.466	1	1
551.656	1	4
552.846	1	-4
554.036	1	-1
555.226	1	-8
556.416	1	-18
557.606	1	6
558.796	1	-10
559.986	1	-13
561.175	1	8
562.365	1	0
563.555	1	-10
564.744	1	-6
565.934	1	0
567.123	1	0
568.313	1	6
569.502	1	-2
570.692	1	-2
571.881	1	6
573.070	1	1
574.260	1	2
575.449	1	-3
576.638	1	-3
577.827	1	-4
579.016	1	0
580.205	1	-3
581.394	1	-5
582.583	1	5
583.772	1	0
584.961	1	-4
586.150	1	-1
587.339	1	0
588.528	1	3
589.717	1	-6
590.905	1	2
592.094	1	2
593.283	1	-2
594.471	1	8
595.660	1	8
596.848	1	3
598.037	1	-4
599.225	1	-9
600.413	1	9
601.602	1	8
602.790	1	5
603.978	1	-4
605.166	1	11
606.355	1	4
607.543	1	-1
608.731	1	0
609.919	1	1
611.107	1	2
612.295	1	-8
613.483	1	-3
614.671	1	8
615.858	1	-2
617.046	1	2
618.234	1	2
619.422	1	-11
620.609	1	4
621.797	1	0
622.985	1	-4
624.172	1	-2
625.360	1	1
626.547	1	5
627.735	1	2
628.922	1	-1
630.109	1	-3
631.297	1	-4
632.484	1	-1
633.671	1	-14
634.858	1	-5
636.045	1	14
637.232	1	3
638.419	1	-6
639.606	1	4
640.793	1	10
641.980	1	0
643.167	1	2
644.354	1	-12
645.541	1	-1
646.728	1	-2
647.914	1	-9
649.101	1	-5
650.288	1	-1
651.474	1	-9
652.661	1	-1
653.847	1	11
655.034	1	3
656.220	1	-16
657.406	1	3
658.593	1	10
659.779	1	-1
660.965	1	-2
662.152	1	-1
663.338	1	1
664.524	1	0
665.710	1	3
666.896	1	-2
668.082	1	7
669.268	1	-4
670.454	1	-1
671.640	1	9
672.826	1	-3
674.011	1	-4
675.197	1	-4
676.383	1	0
677.569	1	-13
678.754	1	2
679.940	1	-4
681.125	1	10
682.311	1	4
683.496	1	-8
684.682	1	-8
685.867	1	6
687.053	1	-1
688.238	1	9
688.746	1	-6

File: GaN_sample F_spot 12_UVVIS_200 K_200um_800 ms 2x2mm1_466.txt
340.368	1	-2
341.565	1	-8
342.763	1	-1
343.960	1	-1
345.157	1	-11
346.354	1	-7
347.552	1	-2
348.749	1	-8
349.946	1	-7
351.143	1	-4
352.340	1	4
353.537	1	-3
354.734	1	-8
355.931	1	0
357.127	1	-1
358.324	1	-11
359.521	1	6
360.718	1	-2
361.914	1	1
363.111	1	1
364.308	1	-1
365.504	1	13
366.701	1	6
367.897	1	17
369.093	1	0
370.290	1	3
371.486	1	15
372.682	1	4
373.879	1	3
375.075	1	2
376.271	1	3
377.467	1	-1
378.663	1	5
379.859	1	-3
381.055	1	5
382.251	1	-9
383.447	1	0
384.643	1	8
385.839	1	-8
387.035	1	4
388.230	1	7
389.426	1	2
390.622	1	-7
391.817	1	-2
393.013	1	-3
394.208	1	-7
395.404	1	-5
396.599	1	-8
397.795	1	0
398.990	1	-2
400.186	1	-5
401.381	1	0
402.576	1	-1
403.771	1	1
404.967	1	11
406.162	1	7
407.357	1	-3
408.552	1	5
409.747	1	0
410.942	1	5
412.137	1	9
413.332	1	5
414.526	1	-3
415.721	1	-6
416.916	1	-9
418.111	1	2
419.305	1	7
420.500	1	-7
421.695	1	-4
422.889	1	-4
424.084	1	-3
425.278	1	13
426.472	1	-8
427.667	1	-1
428.861	1	2
430.055	1	6
431.250	1	4
432.444	1	5
433.638	1	3
434.832	1	6
436.026	1	6
437.220	1	3
438.414	1	-7
439.608	1	-6
440.802	1	0
441.996	1	7
443.190	1	1
444.384	1	-9
445.578	1	-8
446.771	1	9
447.965	1	-7
449.159	1	-3
450.352	1	-2
451.546	1	10
452.739	1	0
453.933	1	-5
455.126	1	1
456.320	1	-1
457.513	1	1
458.706	1	-4
459.899	1	1
461.093	1	-1
462.286	1	-1
463.479	1	-2
464.672	1	-1
465.865	1	1
467.058	1	-5
468.251	1	6
469.444	1	-9
470.637	1	-3
471.830	1	2
473.023	1	-2
474.215	1	7
475.408	1	-10
476.601	1	0
477.793	1	-5
478.986	1	0
480.179	1	5
481.371	1	-7
482.564	1	7
483.756	1	6
484.948	1	-5
486.141	1	-4
487.333	1	-7
488.525	1	-7
489.718	1	-1
490.910	1	0
492.102	1	-11
493.294	1	-5
494.486	1	17
495.678	1	6
496.870	1	1
498.062	1	-2
499.254	1	-6
500.446	1	-14
501.638	1	-4
502.829	1	-1
504.021	1	-1
505.213	1	6
506.404	1	5
507.596	1	-5
508.788	1	16
509.979	1	-1
511.171	1	-7
512.362	1	-4
513.553	1	-8
514.745	1	-13
515.936	1	1
517.127	1	-2
518.319	1	-3
519.510	1	3
520.701	1	-1
521.892	1	5
523.083	1	1
524.274	1	-6
525.465	1	-1
526.656	1	1
527.847	1	0
529.038	1	0
530.229	1	-2
531.419	1	0
532.610	1	-2
533.801	1	12
534.991	1	0
536.182	1	5
537.373	1	6
538.563	1	1
539.754	1	5
540.944	1	-6
542.134	1	5
543.325	1	8
544.515	1	-2
545.705	1	-2
546.896	1	-2
548.086	1	-2
549.276	1	8
550.466	1	9
551.656	1	-6
552.846	1	-1
554.036	1	1
555.226	1	-8
556.416	1	-4
557.606	1	3
558.796	1	2
559.986	1	-8
561.175	1	3
562.365	1	2
563.555	1	4
564.744	1	0
565.934	1	4
567.123	1	8
568.313	1	12
569.502	1	-13
570.692	1	1
571.881	1	8
573.070	1	-1
574.260	1	11
575.449	1	1
576.638	1	-9
577.827	1	-4
579.016	1	4
580.205	1	-1
581.394	1	0
582.583	1	12
583.772	1	-2
584.961	1	-7
586.150	1	4
587.339	1	-3
588.528	1	-2
589.717	1	-3
590.905	1	-8
592.094	1	4
593.283	1	-4
594.471	1	8
595.660	1	1
596.848	1	3
598.037	1	-1
599.225	1	-10
600.413	1	12
601.602	1	8
602.790	1	2
603.978	1	7
605.166	1	16
606.355	1	1
607.543	1	-2
608.731	1	0
609.919	1	14
611.107	1	-6
612.295	1	-3
613.483	1	4
614.671	1	9
615.858	1	2
617.046	1	0
618.234	1	-3
619.422	1	-4
620.609	1	8
621.797	1	-7
622.985	1	-2
624.172	1	1
625.360	1	-2
626.547	1	7
627.735	1	-2
628.922	1	-3
630.109	1	-8
631.297	1	1
632.484	1	-8
633.671	1	-4
634.858	1	-2
636.045	1	10
637.232	1	-3
638.419	1	-10
639.606	1	0
640.793	1	9
641.980	1	2
643.167	1	-11
644.354	1	4
645.541	1	1
646.728	1	-5
647.914	1	3
649.101	1	-4
650.288	1	8
651.474	1	-3
652.661	1	0
653.847	1	11
655.034	1	-1
656.220	1	-5
657.406	1	8
658.593	1	5
659.779	1	-3
660.965	1	8
662.152	1	1
663.338	1	5
664.524	1	6
665.710	1	-1
666.896	1	-7
668.082	1	7
669.268	1	3
670.454	1	0
671.640	1	4
672.826	1	3
674.011	1	6
675.197	1	-6
676.383	1	-1
677.569	1	0
678.754	1	-6
679.940	1	-3
681.125	1	2
682.311	1	2
683.496	1	10
684.682	1	-4
685.867	1	-10
687.053	1	-7
688.238	1	5
688.746	1	3

File: GaN_sample F_spot 12_UVVIS_200 K_200um_800 ms 2x2mm1_469.txt
340.368	1	4
341.565	1	-13
342.763	1	1
343.960	1	4
345.157	1	-8
346.354	1	0
347.552	1	-10
348.749	1	-1
349.946	1	-17
351.143	1	5
352.340	1	-4
353.537	1	-8
354.734	1	2
355.931	1	1
357.127	1	-1
358.324	1	1
359.521	1	6
360.718	1	3
361.914	1	10
363.111	1	1
364.308	1	-3
365.504	1	-1
366.701	1	-1
367.897	1	7
369.093	1	7
370.290	1	10
371.486	1	13
372.682	1	6
373.879	1	-1
375.075	1	-1
376.271	1	7
377.467	1	11
378.663	1	-1
379.859	1	-4
381.055	1	4
382.251	1	-5
383.447	1	-8
384.643	1	19
385.839	1	-3
387.035	1	3
388.230	1	3
389.426	1	-3
390.622	1	-4
391.817	1	-3
393.013	1	1
394.208	1	-2
395.404	1	-10
396.599	1	-6
397.795	1	4
398.990	1	0
400.186	1	-1
401.381	1	-4
402.576	1	-5
403.771	1	2
404.967	1	8
406.162	1	10
407.357	1	-3
408.552	1	-5
409.747	1	-1
410.942	1	3
412.137	1	7
413.332	1	-4
414.526	1	1
415.721	1	1
416.916	1	-1
418.111	1	-3
419.305	1	7
420.500	1	-2
421.695	1	-14
422.889	1	-7
424.084	1	-3
425.278	1	7
426.472	1	-3
427.667	1	12
428.861	1	-4
430.055	1	11
431.250	1	-5
432.444	1	5
433.638	1	1
434.832	1	7
436.026	1	1
437.220	1	1
438.414	1	-8
439.608	1	-5
440.802	1	-7
441.996	1	0
443.190	1	-7
444.384	1	1
445.578	1	-4
446.771	1	13
447.965	1	6
449.159	1	-10
450.352	1	-5
451.546	1	-6
452.739	1	-1
453.933	1	-7
455.126	1	-3
456.320	1	-13
457.513	1	-4
458.706	1	8
459.899	1	1
461.093	1	-1
462.286	1	-3
463.479	1	-10
464.672	1	-7
465.865	1	1
467.058	1	-5
468.251	1	-2
469.444	1	-8
470.637	1	-2
471.830	1	-3
473.023	1	-1
474.215	1	0
475.408	1	4
476.601	1	0
477.793	1	0
478.986	1	-6
480.179	1	2
481.371	1	5
482.564	1	-3
483.756	1	6
484.948	1	-8
486.141	1	2
487.333	1	-1
488.525	1	-6
489.718	1	-4
490.910	1	3
492.102	1	-2
493.294	1	-1
494.486	1	8
495.678	1	4
496.870	1	0
498.062	1	5
499.254	1	-6
500.446	1	-12
501.638	1	-13
502.829	1	-6
504.021	1	-7
505.213	1	7
506.404	1	-2
507.596	1	1
508.788	1	1
509.979	1	-3
511.171	1	-11
512.362	1	-6
513.553	1	-8
514.745	1	-3
515.936	1	-9
517.127	1	-7
518.319	1	-11
519.510	1	8
520.701	1	1
521.892	1	2
523.083	1	-8
524.274	1	0
525.465	1	7
526.656	1	-15
527.847	1	2
529.038	1	-3
530.229	1	5
531.419	1	8
532.610	1	-4
533.801	1	10
534.991	1	-4
536.182	1	4
537.373	1	-1
538.563	1	-4
539.754	1	6
540.944	1	-14
542.134	1	8
543.325	1	-7
544.515	1	-8
545.705	1	-7
546.896	1	-15
548.086	1	-3
549.276	1	2
550.466	1	9
551.656	1	15
552.846	1	3
554.036	1	-11
555.226	1	-3
556.416	1	-7
557.606	1	0
558.796	1	0
559.986	1	-8
561.175	1	0
562.365	1	-4
563.555	1	-7
564.744	1	2
565.934	1	2
567.123	1	5
568.313	1	9
569.502	1	3
570.692	1	2
571.881	1	6
573.070	1	0
574.260	1	9
575.449	1	0
576.638	1	-4
577.827	1	-13
579.016	1	16
580.205	1	-7
581.394	1	1
582.583	1	12
583.772	1	1
584.961	1	1
586.150	1	-6
587.339	1	2
588.528	1	1
589.717	1	4
590.905	1	7
592.094	1	-6
593.283	1	-3
594.471	1	5
595.660	1	0
596.848	1	3
598.037	1	5
599.225	1	-4
600.413	1	1
601.602	1	10
602.790	1	-5
603.978	1	-1
605.166	1	5
606.355	1	-3
607.543	1	2
608.731	1	3
609.919	1	5
611.107	1	2
612.295	1	2
613.483	1	5
614.671	1	-1
615.858	1	2
617.046	1	1
618.234	1	-10
619.422	1	-7
620.609	1	-5
621.797	1	-10
622.985	1	-3
624.172	1	-2
625.360	1	-1
626.547	1	-5
627.735	1	-3
628.922	1	2
630.109	1	-9
631.297	1	-2
632.484	1	-11
633.671	1	4
634.858	1	-7
636.045	1	5
637.232	1	0
638.419	1	-3
639.606	1	3
640.793	1	8
641.980	1	-1
643.167	1	1
644.354	1	3
645.541	1	4
646.728	1	2
647.914	1	-5
649.101	1	-1
650.288	1	4
651.474	1	-8
652.661	1	-5
653.847	1	-3
655.034	1	-2
656.220	1	-11
657.406	1	7
658.593	1	3
659.779	1	-2
660.965	1	3
662.152	1	1
663.338	1	1
664.524	1	-4
665.710	1	0
666.896	1	3
668.082	1	-8
669.268	1	3
670.454	1	-6
671.640	1	1
672.826	1	-3
674.011	1	-1
675.197	1	-9
676.383	1	-3
677.569	1	-3
678.754	1	-8
679.940	1	-7
681.125	1	4
682.311	1	4
683.496	1	-3
684.682	1	-4
685.867	1	-2
687.053	1	-7
688.238	1	1
688.746	1	4