Folder: cryo-il_analysis/Data/GaN_130K_350ms (part 13)

File: GaN_sample F_spot6_UVVIS_130 K_200um_350 ms 2x2mm1_176.txt
340.368	1	2
341.565	1	6
342.763	1	2
343.960	1	-5
345.157	1	-3
346.354	1	4
347.552	1	-1
348.749	1	3
349.946	1	1
351.143	1	-1
352.340	1	8
353.537	1	-1
354.734	1	-8
355.931	1	2
357.127	1	6
358.324	1	6
359.521	1	5
360.718	1	7
361.914	1	6
363.111	1	23
364.308	1	20
365.504	1	18
366.701	1	20
367.897	1	15
369.093	1	24
370.290	1	18
371.486	1	17
372.682	1	14
373.879	1	18
375.075	1	24
376.271	1	13
377.467	1	18
378.663	1	13
379.859	1	10
381.055	1	9
382.251	1	11
383.447	1	7
384.643	1	11
385.839	1	8
387.035	1	19
388.230	1	9
389.426	1	10
390.622	1	8
391.817	1	16
393.013	1	7
394.208	1	-5
395.404	1	-1
396.599	1	18
397.795	1	0
398.990	1	1
400.186	1	-6
401.381	1	2
402.576	1	4
403.771	1	12
404.967	1	1
406.162	1	3
407.357	1	10
408.552	1	-1
409.747	1	1
410.942	1	7
412.137	1	-1
413.332	1	-8
414.526	1	13
415.721	1	10
416.916	1	-2
418.111	1	8
419.305	1	6
420.500	1	9
421.695	1	6
422.889	1	8
424.084	1	11
425.278	1	2
426.472	1	9
427.667	1	15
428.861	1	6
430.055	1	7
431.250	1	8
432.444	1	4
433.638	1	3
434.832	1	0
436.026	1	4
437.220	1	6
438.414	1	-3
439.608	1	8
440.802	1	-13
441.996	1	9
443.190	1	0
444.384	1	1
445.578	1	0
446.771	1	17
447.965	1	1
449.159	1	3
450.352	1	6
451.546	1	9
452.739	1	8
453.933	1	6
455.126	1	-4
456.320	1	1
457.513	1	-4
458.706	1	8
459.899	1	-2
461.093	1	5
462.286	1	18
463.479	1	15
464.672	1	6
465.865	1	-16
467.058	1	-1
468.251	1	7
469.444	1	1
470.637	1	5
471.830	1	5
473.023	1	3
474.215	1	0
475.408	1	14
476.601	1	-3
477.793	1	8
478.986	1	-9
480.179	1	-4
481.371	1	6
482.564	1	-5
483.756	1	0
484.948	1	2
486.141	1	7
487.333	1	-2
488.525	1	19
489.718	1	11
490.910	1	3
492.102	1	12
493.294	1	8
494.486	1	11
495.678	1	1
496.870	1	12
498.062	1	-5
499.254	1	10
500.446	1	10
501.638	1	-5
502.829	1	5
504.021	1	2
505.213	1	5
506.404	1	6
507.596	1	5
508.788	1	6
509.979	1	5
511.171	1	9
512.362	1	4
513.553	1	9
514.745	1	3
515.936	1	13
517.127	1	5
518.319	1	10
519.510	1	5
520.701	1	0
521.892	1	19
523.083	1	13
524.274	1	-4
525.465	1	19
526.656	1	10
527.847	1	4
529.038	1	4
530.229	1	18
531.419	1	12
532.610	1	5
533.801	1	20
534.991	1	5
536.182	1	6
537.373	1	9
538.563	1	16
539.754	1	6
540.944	1	8
542.134	1	-2
543.325	1	6
544.515	1	2
545.705	1	6
546.896	1	0
548.086	1	2
549.276	1	-1
550.466	1	4
551.656	1	6
552.846	1	-5
554.036	1	11
555.226	1	11
556.416	1	12
557.606	1	5
558.796	1	5
559.986	1	4
561.175	1	17
562.365	1	8
563.555	1	13
564.744	1	11
565.934	1	6
567.123	1	6
568.313	1	7
569.502	1	4
570.692	1	11
571.881	1	6
573.070	1	6
574.260	1	6
575.449	1	13
576.638	1	2
577.827	1	-1
579.016	1	2
580.205	1	0
581.394	1	12
582.583	1	18
583.772	1	-4
584.961	1	-1
586.150	1	13
587.339	1	6
588.528	1	7
589.717	1	-7
590.905	1	7
592.094	1	4
593.283	1	-2
594.471	1	1
595.660	1	-10
596.848	1	14
598.037	1	7
599.225	1	-1
600.413	1	10
601.602	1	-4
602.790	1	6
603.978	1	11
605.166	1	10
606.355	1	9
607.543	1	11
608.731	1	7
609.919	1	10
611.107	1	13
612.295	1	9
613.483	1	9
614.671	1	5
615.858	1	-2
617.046	1	4
618.234	1	6
619.422	1	3
620.609	1	-5
621.797	1	-3
622.985	1	5
624.172	1	-1
625.360	1	5
626.547	1	-1
627.735	1	7
628.922	1	-6
630.109	1	6
631.297	1	4
632.484	1	-8
633.671	1	-6
634.858	1	3
636.045	1	10
637.232	1	-2
638.419	1	5
639.606	1	11
640.793	1	-4
641.980	1	-9
643.167	1	2
644.354	1	-2
645.541	1	0
646.728	1	6
647.914	1	-2
649.101	1	5
650.288	1	2
651.474	1	8
652.661	1	2
653.847	1	5
655.034	1	2
656.220	1	-4
657.406	1	4
658.593	1	4
659.779	1	1
660.965	1	-3
662.152	1	4
663.338	1	-4
664.524	1	-4
665.710	1	0
666.896	1	5
668.082	1	2
669.268	1	-3
670.454	1	7
671.640	1	-7
672.826	1	-7
674.011	1	3
675.197	1	-5
676.383	1	5
677.569	1	4
678.754	1	3
679.940	1	6
681.125	1	6
682.311	1	-11
683.496	1	-1
684.682	1	0
685.867	1	7
687.053	1	-3
688.238	1	14
688.746	1	8

File: GaN_sample F_spot6_UVVIS_130 K_200um_350 ms 2x2mm1_177.txt
340.368	1	8
341.565	1	3
342.763	1	-3
343.960	1	-7
345.157	1	-7
346.354	1	-3
347.552	1	0
348.749	1	5
349.946	1	3
351.143	1	9
352.340	1	11
353.537	1	5
354.734	1	-5
355.931	1	6
357.127	1	7
358.324	1	14
359.521	1	4
360.718	1	6
361.914	1	12
363.111	1	17
364.308	1	23
365.504	1	23
366.701	1	20
367.897	1	13
369.093	1	17
370.290	1	15
371.486	1	17
372.682	1	18
373.879	1	24
375.075	1	19
376.271	1	18
377.467	1	10
378.663	1	12
379.859	1	8
381.055	1	14
382.251	1	4
383.447	1	3
384.643	1	15
385.839	1	9
387.035	1	13
388.230	1	2
389.426	1	10
390.622	1	8
391.817	1	20
393.013	1	10
394.208	1	3
395.404	1	2
396.599	1	16
397.795	1	5
398.990	1	6
400.186	1	1
401.381	1	7
402.576	1	5
403.771	1	9
404.967	1	5
406.162	1	-1
407.357	1	-6
408.552	1	6
409.747	1	5
410.942	1	-2
412.137	1	1
413.332	1	4
414.526	1	5
415.721	1	3
416.916	1	4
418.111	1	-2
419.305	1	-2
420.500	1	1
421.695	1	4
422.889	1	3
424.084	1	2
425.278	1	-5
426.472	1	-3
427.667	1	5
428.861	1	3
430.055	1	0
431.250	1	5
432.444	1	9
433.638	1	3
434.832	1	9
436.026	1	11
437.220	1	1
438.414	1	5
439.608	1	9
440.802	1	-9
441.996	1	0
443.190	1	2
444.384	1	-6
445.578	1	5
446.771	1	3
447.965	1	-1
449.159	1	1
450.352	1	13
451.546	1	11
452.739	1	10
453.933	1	3
455.126	1	-16
456.320	1	-2
457.513	1	0
458.706	1	-2
459.899	1	5
461.093	1	13
462.286	1	4
463.479	1	5
464.672	1	6
465.865	1	1
467.058	1	12
468.251	1	6
469.444	1	-1
470.637	1	8
471.830	1	9
473.023	1	4
474.215	1	8
475.408	1	9
476.601	1	0
477.793	1	1
478.986	1	1
480.179	1	-1
481.371	1	8
482.564	1	1
483.756	1	3
484.948	1	2
486.141	1	1
487.333	1	-2
488.525	1	3
489.718	1	10
490.910	1	5
492.102	1	17
493.294	1	13
494.486	1	10
495.678	1	2
496.870	1	7
498.062	1	1
499.254	1	10
500.446	1	8
501.638	1	5
502.829	1	9
504.021	1	0
505.213	1	0
506.404	1	9
507.596	1	0
508.788	1	5
509.979	1	4
511.171	1	12
512.362	1	6
513.553	1	11
514.745	1	6
515.936	1	15
517.127	1	10
518.319	1	-2
519.510	1	-5
520.701	1	3
521.892	1	21
523.083	1	10
524.274	1	2
525.465	1	19
526.656	1	17
527.847	1	6
529.038	1	3
530.229	1	18
531.419	1	6
532.610	1	10
533.801	1	23
534.991	1	6
536.182	1	16
537.373	1	6
538.563	1	13
539.754	1	1
540.944	1	7
542.134	1	10
543.325	1	15
544.515	1	11
545.705	1	9
546.896	1	8
548.086	1	1
549.276	1	2
550.466	1	12
551.656	1	5
552.846	1	3
554.036	1	5
555.226	1	12
556.416	1	19
557.606	1	2
558.796	1	15
559.986	1	10
561.175	1	13
562.365	1	8
563.555	1	17
564.744	1	3
565.934	1	-2
567.123	1	1
568.313	1	4
569.502	1	7
570.692	1	12
571.881	1	7
573.070	1	4
574.260	1	7
575.449	1	13
576.638	1	4
577.827	1	3
579.016	1	5
580.205	1	3
581.394	1	1
582.583	1	4
583.772	1	11
584.961	1	-1
586.150	1	14
587.339	1	-1
588.528	1	10
589.717	1	2
590.905	1	12
592.094	1	7
593.283	1	-3
594.471	1	4
595.660	1	5
596.848	1	-7
598.037	1	0
599.225	1	6
600.413	1	6
601.602	1	3
602.790	1	1
603.978	1	6
605.166	1	9
606.355	1	7
607.543	1	11
608.731	1	5
609.919	1	13
611.107	1	9
612.295	1	7
613.483	1	-6
614.671	1	7
615.858	1	1
617.046	1	10
618.234	1	1
619.422	1	-1
620.609	1	2
621.797	1	-8
622.985	1	12
624.172	1	2
625.360	1	5
626.547	1	6
627.735	1	17
628.922	1	-10
630.109	1	7
631.297	1	1
632.484	1	-2
633.671	1	-6
634.858	1	8
636.045	1	2
637.232	1	1
638.419	1	16
639.606	1	7
640.793	1	-6
641.980	1	6
643.167	1	4
644.354	1	1
645.541	1	1
646.728	1	6
647.914	1	-12
649.101	1	-4
650.288	1	5
651.474	1	0
652.661	1	-4
653.847	1	-4
655.034	1	2
656.220	1	-6
657.406	1	1
658.593	1	-2
659.779	1	3
660.965	1	8
662.152	1	-3
663.338	1	3
664.524	1	-5
665.710	1	4
666.896	1	3
668.082	1	2
669.268	1	0
670.454	1	-5
671.640	1	-4
672.826	1	2
674.011	1	-4
675.197	1	4
676.383	1	1
677.569	1	-2
678.754	1	7
679.940	1	3
681.125	1	11
682.311	1	-8
683.496	1	-3
684.682	1	1
685.867	1	7
687.053	1	-1
688.238	1	3
688.746	1	13

File: GaN_sample F_spot6_UVVIS_130 K_200um_350 ms 2x2mm1_178.txt
340.368	1	10
341.565	1	7
342.763	1	2
343.960	1	-6
345.157	1	-9
346.354	1	3
347.552	1	4
348.749	1	10
349.946	1	0
351.143	1	5
352.340	1	11
353.537	1	-6
354.734	1	3
355.931	1	7
357.127	1	10
358.324	1	-1
359.521	1	-1
360.718	1	13
361.914	1	12
363.111	1	22
364.308	1	18
365.504	1	26
366.701	1	31
367.897	1	24
369.093	1	27
370.290	1	24
371.486	1	18
372.682	1	10
373.879	1	13
375.075	1	22
376.271	1	17
377.467	1	22
378.663	1	15
379.859	1	-1
381.055	1	9
382.251	1	1
383.447	1	8
384.643	1	4
385.839	1	11
387.035	1	15
388.230	1	9
389.426	1	1
390.622	1	6
391.817	1	20
393.013	1	6
394.208	1	3
395.404	1	-5
396.599	1	4
397.795	1	2
398.990	1	11
400.186	1	2
401.381	1	9
402.576	1	2
403.771	1	12
404.967	1	8
406.162	1	3
407.357	1	8
408.552	1	-1
409.747	1	7
410.942	1	-3
412.137	1	-2
413.332	1	-7
414.526	1	10
415.721	1	9
416.916	1	5
418.111	1	7
419.305	1	7
420.500	1	3
421.695	1	-5
422.889	1	1
424.084	1	8
425.278	1	3
426.472	1	3
427.667	1	1
428.861	1	2
430.055	1	2
431.250	1	10
432.444	1	4
433.638	1	7
434.832	1	4
436.026	1	9
437.220	1	-5
438.414	1	0
439.608	1	4
440.802	1	-4
441.996	1	10
443.190	1	9
444.384	1	8
445.578	1	-7
446.771	1	7
447.965	1	5
449.159	1	2
450.352	1	7
451.546	1	15
452.739	1	3
453.933	1	6
455.126	1	6
456.320	1	-3
457.513	1	2
458.706	1	-2
459.899	1	10
461.093	1	5
462.286	1	6
463.479	1	6
464.672	1	5
465.865	1	2
467.058	1	6
468.251	1	5
469.444	1	-4
470.637	1	5
471.830	1	7
473.023	1	7
474.215	1	1
475.408	1	8
476.601	1	3
477.793	1	-4
478.986	1	6
480.179	1	-2
481.371	1	11
482.564	1	5
483.756	1	9
484.948	1	-3
486.141	1	5
487.333	1	-1
488.525	1	7
489.718	1	8
490.910	1	11
492.102	1	3
493.294	1	7
494.486	1	13
495.678	1	0
496.870	1	2
498.062	1	6
499.254	1	13
500.446	1	8
501.638	1	2
502.829	1	2
504.021	1	-2
505.213	1	5
506.404	1	9
507.596	1	1
508.788	1	4
509.979	1	7
511.171	1	19
512.362	1	6
513.553	1	8
514.745	1	11
515.936	1	18
517.127	1	5
518.319	1	4
519.510	1	2
520.701	1	8
521.892	1	9
523.083	1	14
524.274	1	9
525.465	1	4
526.656	1	0
527.847	1	9
529.038	1	-1
530.229	1	17
531.419	1	16
532.610	1	8
533.801	1	25
534.991	1	10
536.182	1	24
537.373	1	14
538.563	1	8
539.754	1	0
540.944	1	17
542.134	1	8
543.325	1	5
544.515	1	7
545.705	1	7
546.896	1	13
548.086	1	-1
549.276	1	5
550.466	1	15
551.656	1	8
552.846	1	0
554.036	1	9
555.226	1	9
556.416	1	9
557.606	1	8
558.796	1	18
559.986	1	12
561.175	1	7
562.365	1	8
563.555	1	12
564.744	1	4
565.934	1	14
567.123	1	14
568.313	1	-2
569.502	1	5
570.692	1	12
571.881	1	9
573.070	1	9
574.260	1	6
575.449	1	10
576.638	1	7
577.827	1	-2
579.016	1	3
580.205	1	-3
581.394	1	0
582.583	1	20
583.772	1	4
584.961	1	-5
586.150	1	17
587.339	1	-3
588.528	1	11
589.717	1	-8
590.905	1	1
592.094	1	7
593.283	1	-5
594.471	1	5
595.660	1	5
596.848	1	6
598.037	1	4
599.225	1	2
600.413	1	7
601.602	1	-4
602.790	1	-4
603.978	1	3
605.166	1	10
606.355	1	7
607.543	1	5
608.731	1	10
609.919	1	8
611.107	1	8
612.295	1	9
613.483	1	-7
614.671	1	-1
615.858	1	-10
617.046	1	7
618.234	1	-8
619.422	1	8
620.609	1	-6
621.797	1	1
622.985	1	7
624.172	1	2
625.360	1	4
626.547	1	0
627.735	1	6
628.922	1	-6
630.109	1	1
631.297	1	-3
632.484	1	-5
633.671	1	-6
634.858	1	9
636.045	1	22
637.232	1	-3
638.419	1	7
639.606	1	1
640.793	1	-6
641.980	1	5
643.167	1	5
644.354	1	7
645.541	1	6
646.728	1	8
647.914	1	-11
649.101	1	-3
650.288	1	8
651.474	1	-3
652.661	1	4
653.847	1	0
655.034	1	1
656.220	1	0
657.406	1	6
658.593	1	6
659.779	1	3
660.965	1	3
662.152	1	-1
663.338	1	3
664.524	1	-4
665.710	1	2
666.896	1	8
668.082	1	3
669.268	1	4
670.454	1	1
671.640	1	2
672.826	1	6
674.011	1	7
675.197	1	0
676.383	1	4
677.569	1	1
678.754	1	11
679.940	1	-3
681.125	1	19
682.311	1	-6
683.496	1	-1
684.682	1	2
685.867	1	7
687.053	1	5
688.238	1	5
688.746	1	3

File: GaN_sample F_spot6_UVVIS_130 K_200um_350 ms 2x2mm1_179.txt
340.368	1	9
341.565	1	-1
342.763	1	13
343.960	1	2
345.157	1	-5
346.354	1	6
347.552	1	3
348.749	1	3
349.946	1	2
351.143	1	3
352.340	1	14
353.537	1	7
354.734	1	-7
355.931	1	9
357.127	1	12
358.324	1	-2
359.521	1	3
360.718	1	12
361.914	1	4
363.111	1	31
364.308	1	22
365.504	1	19
366.701	1	21
367.897	1	15
369.093	1	27
370.290	1	33
371.486	1	24
372.682	1	18
373.879	1	18
375.075	1	23
376.271	1	11
377.467	1	24
378.663	1	10
379.859	1	2
381.055	1	4
382.251	1	7
383.447	1	12
384.643	1	5
385.839	1	10
387.035	1	21
388.230	1	5
389.426	1	16
390.622	1	7
391.817	1	10
393.013	1	15
394.208	1	-4
395.404	1	-6
396.599	1	15
397.795	1	-1
398.990	1	7
400.186	1	-5
401.381	1	1
402.576	1	7
403.771	1	9
404.967	1	8
406.162	1	-4
407.357	1	3
408.552	1	1
409.747	1	5
410.942	1	4
412.137	1	1
413.332	1	5
414.526	1	15
415.721	1	3
416.916	1	1
418.111	1	10
419.305	1	1
420.500	1	8
421.695	1	8
422.889	1	7
424.084	1	19
425.278	1	7
426.472	1	6
427.667	1	9
428.861	1	-1
430.055	1	-5
431.250	1	7
432.444	1	2
433.638	1	3
434.832	1	3
436.026	1	8
437.220	1	6
438.414	1	6
439.608	1	17
440.802	1	-6
441.996	1	6
443.190	1	4
444.384	1	3
445.578	1	1
446.771	1	17
447.965	1	0
449.159	1	6
450.352	1	19
451.546	1	14
452.739	1	-2
453.933	1	12
455.126	1	-7
456.320	1	2
457.513	1	-3
458.706	1	1
459.899	1	-6
461.093	1	11
462.286	1	8
463.479	1	5
464.672	1	7
465.865	1	0
467.058	1	6
468.251	1	7
469.444	1	5
470.637	1	1
471.830	1	7
473.023	1	5
474.215	1	3
475.408	1	0
476.601	1	1
477.793	1	8
478.986	1	4
480.179	1	-4
481.371	1	10
482.564	1	-1
483.756	1	-3
484.948	1	-2
486.141	1	5
487.333	1	6
488.525	1	8
489.718	1	11
490.910	1	-14
492.102	1	4
493.294	1	12
494.486	1	19
495.678	1	1
496.870	1	1
498.062	1	7
499.254	1	14
500.446	1	4
501.638	1	-3
502.829	1	3
504.021	1	6
505.213	1	6
506.404	1	9
507.596	1	3
508.788	1	2
509.979	1	0
511.171	1	12
512.362	1	4
513.553	1	2
514.745	1	-5
515.936	1	21
517.127	1	11
518.319	1	-10
519.510	1	4
520.701	1	2
521.892	1	11
523.083	1	1
524.274	1	0
525.465	1	8
526.656	1	12
527.847	1	5
529.038	1	1
530.229	1	3
531.419	1	14
532.610	1	15
533.801	1	17
534.991	1	12
536.182	1	14
537.373	1	8
538.563	1	12
539.754	1	10
540.944	1	11
542.134	1	8
543.325	1	1
544.515	1	15
545.705	1	2
546.896	1	14
548.086	1	2
549.276	1	-3
550.466	1	11
551.656	1	15
552.846	1	-2
554.036	1	10
555.226	1	10
556.416	1	5
557.606	1	-2
558.796	1	15
559.986	1	6
561.175	1	10
562.365	1	15
563.555	1	11
564.744	1	7
565.934	1	9
567.123	1	13
568.313	1	2
569.502	1	7
570.692	1	4
571.881	1	3
573.070	1	7
574.260	1	2
575.449	1	15
576.638	1	13
577.827	1	-3
579.016	1	7
580.205	1	1
581.394	1	0
582.583	1	14
583.772	1	0
584.961	1	4
586.150	1	12
587.339	1	3
588.528	1	10
589.717	1	-3
590.905	1	3
592.094	1	-2
593.283	1	-2
594.471	1	2
595.660	1	9
596.848	1	5
598.037	1	5
599.225	1	1
600.413	1	1
601.602	1	-2
602.790	1	-8
603.978	1	-2
605.166	1	10
606.355	1	3
607.543	1	7
608.731	1	-3
609.919	1	11
611.107	1	1
612.295	1	8
613.483	1	-2
614.671	1	4
615.858	1	-4
617.046	1	3
618.234	1	10
619.422	1	8
620.609	1	-5
621.797	1	-6
622.985	1	10
624.172	1	4
625.360	1	-1
626.547	1	15
627.735	1	19
628.922	1	4
630.109	1	8
631.297	1	2
632.484	1	0
633.671	1	-7
634.858	1	10
636.045	1	16
637.232	1	5
638.419	1	1
639.606	1	0
640.793	1	-10
641.980	1	5
643.167	1	4
644.354	1	-4
645.541	1	-1
646.728	1	5
647.914	1	-2
649.101	1	-7
650.288	1	6
651.474	1	0
652.661	1	4
653.847	1	1
655.034	1	2
656.220	1	0
657.406	1	4
658.593	1	0
659.779	1	0
660.965	1	-1
662.152	1	6
663.338	1	0
664.524	1	-6
665.710	1	9
666.896	1	7
668.082	1	5
669.268	1	-1
670.454	1	6
671.640	1	-8
672.826	1	-1
674.011	1	-3
675.197	1	0
676.383	1	7
677.569	1	7
678.754	1	11
679.940	1	2
681.125	1	9
682.311	1	-11
683.496	1	-3
684.682	1	-4
685.867	1	6
687.053	1	1
688.238	1	10
688.746	1	11

File: GaN_sample F_spot6_UVVIS_130 K_200um_350 ms 2x2mm1_180.txt
340.368	1	9
341.565	1	5
342.763	1	3
343.960	1	-9
345.157	1	-19
346.354	1	3
347.552	1	1
348.749	1	6
349.946	1	7
351.143	1	3
352.340	1	11
353.537	1	2
354.734	1	2
355.931	1	14
357.127	1	16
358.324	1	1
359.521	1	4
360.718	1	9
361.914	1	9
363.111	1	20
364.308	1	21
365.504	1	18
366.701	1	24
367.897	1	24
369.093	1	27
370.290	1	38
371.486	1	22
372.682	1	16
373.879	1	27
375.075	1	10
376.271	1	11
377.467	1	5
378.663	1	6
379.859	1	13
381.055	1	0
382.251	1	2
383.447	1	11
384.643	1	13
385.839	1	8
387.035	1	12
388.230	1	0
389.426	1	12
390.622	1	9
391.817	1	15
393.013	1	5
394.208	1	0
395.404	1	-8
396.599	1	6
397.795	1	0
398.990	1	5
400.186	1	-2
401.381	1	-1
402.576	1	10
403.771	1	9
404.967	1	4
406.162	1	-4
407.357	1	3
408.552	1	7
409.747	1	7
410.942	1	-1
412.137	1	-1
413.332	1	-1
414.526	1	13
415.721	1	1
416.916	1	1
418.111	1	11
419.305	1	-5
420.500	1	15
421.695	1	2
422.889	1	-1
424.084	1	14
425.278	1	6
426.472	1	4
427.667	1	12
428.861	1	6
430.055	1	-1
431.250	1	22
432.444	1	6
433.638	1	7
434.832	1	1
436.026	1	6
437.220	1	7
438.414	1	-10
439.608	1	9
440.802	1	0
441.996	1	13
443.190	1	5
444.384	1	-7
445.578	1	-2
446.771	1	7
447.965	1	-3
449.159	1	13
450.352	1	16
451.546	1	16
452.739	1	9
453.933	1	6
455.126	1	1
456.320	1	3
457.513	1	4
458.706	1	5
459.899	1	-1
461.093	1	19
462.286	1	10
463.479	1	8
464.672	1	13
465.865	1	-2
467.058	1	5
468.251	1	10
469.444	1	-4
470.637	1	6
471.830	1	4
473.023	1	11
474.215	1	4
475.408	1	7
476.601	1	-9
477.793	1	5
478.986	1	8
480.179	1	2
481.371	1	11
482.564	1	-1
483.756	1	10
484.948	1	3
486.141	1	4
487.333	1	1
488.525	1	9
489.718	1	8
490.910	1	0
492.102	1	14
493.294	1	4
494.486	1	16
495.678	1	3
496.870	1	-1
498.062	1	0
499.254	1	6
500.446	1	7
501.638	1	6
502.829	1	5
504.021	1	0
505.213	1	5
506.404	1	16
507.596	1	-2
508.788	1	16
509.979	1	7
511.171	1	14
512.362	1	1
513.553	1	9
514.745	1	4
515.936	1	16
517.127	1	11
518.319	1	8
519.510	1	-2
520.701	1	10
521.892	1	16
523.083	1	7
524.274	1	0
525.465	1	4
526.656	1	15
527.847	1	6
529.038	1	-2
530.229	1	10
531.419	1	8
532.610	1	7
533.801	1	19
534.991	1	-3
536.182	1	21
537.373	1	7
538.563	1	20
539.754	1	6
540.944	1	6
542.134	1	5
543.325	1	10
544.515	1	3
545.705	1	5
546.896	1	11
548.086	1	1
549.276	1	3
550.466	1	22
551.656	1	13
552.846	1	1
554.036	1	13
555.226	1	5
556.416	1	11
557.606	1	11
558.796	1	17
559.986	1	17
561.175	1	14
562.365	1	7
563.555	1	18
564.744	1	11
565.934	1	9
567.123	1	3
568.313	1	-3
569.502	1	0
570.692	1	10
571.881	1	-2
573.070	1	8
574.260	1	7
575.449	1	6
576.638	1	1
577.827	1	1
579.016	1	5
580.205	1	-9
581.394	1	10
582.583	1	8
583.772	1	8
584.961	1	-2
586.150	1	9
587.339	1	2
588.528	1	11
589.717	1	4
590.905	1	8
592.094	1	-3
593.283	1	-4
594.471	1	2
595.660	1	10
596.848	1	6
598.037	1	11
599.225	1	-5
600.413	1	0
601.602	1	4
602.790	1	-6
603.978	1	-3
605.166	1	5
606.355	1	11
607.543	1	-4
608.731	1	8
609.919	1	7
611.107	1	7
612.295	1	7
613.483	1	-4
614.671	1	1
615.858	1	2
617.046	1	5
618.234	1	-1
619.422	1	-10
620.609	1	0
621.797	1	-6
622.985	1	8
624.172	1	4
625.360	1	-5
626.547	1	4
627.735	1	13
628.922	1	-4
630.109	1	7
631.297	1	2
632.484	1	2
633.671	1	-4
634.858	1	7
636.045	1	12
637.232	1	-13
638.419	1	4
639.606	1	4
640.793	1	1
641.980	1	-7
643.167	1	-5
644.354	1	-3
645.541	1	9
646.728	1	13
647.914	1	-1
649.101	1	3
650.288	1	1
651.474	1	-1
652.661	1	-10
653.847	1	4
655.034	1	6
656.220	1	-2
657.406	1	2
658.593	1	1
659.779	1	7
660.965	1	3
662.152	1	2
663.338	1	4
664.524	1	-4
665.710	1	-1
666.896	1	10
668.082	1	7
669.268	1	2
670.454	1	3
671.640	1	-2
672.826	1	1
674.011	1	3
675.197	1	-5
676.383	1	3
677.569	1	8
678.754	1	2
679.940	1	-4
681.125	1	7
682.311	1	-5
683.496	1	-1
684.682	1	-10
685.867	1	7
687.053	1	1
688.238	1	6
688.746	1	4

File: GaN_sample F_spot6_UVVIS_130 K_200um_350 ms 2x2mm1_181.txt
340.368	1	9
341.565	1	-8
342.763	1	5
343.960	1	-9
345.157	1	-18
346.354	1	4
347.552	1	-7
348.749	1	4
349.946	1	6
351.143	1	-1
352.340	1	15
353.537	1	1
354.734	1	4
355.931	1	7
357.127	1	13
358.324	1	0
359.521	1	5
360.718	1	16
361.914	1	10
363.111	1	14
364.308	1	20
365.504	1	11
366.701	1	18
367.897	1	21
369.093	1	26
370.290	1	22
371.486	1	19
372.682	1	16
373.879	1	20
375.075	1	15
376.271	1	13
377.467	1	16
378.663	1	3
379.859	1	7
381.055	1	11
382.251	1	10
383.447	1	9
384.643	1	13
385.839	1	14
387.035	1	9
388.230	1	-1
389.426	1	14
390.622	1	3
391.817	1	15
393.013	1	5
394.208	1	-4
395.404	1	0
396.599	1	14
397.795	1	4
398.990	1	-4
400.186	1	-3
401.381	1	13
402.576	1	8
403.771	1	10
404.967	1	0
406.162	1	4
407.357	1	0
408.552	1	-5
409.747	1	-1
410.942	1	6
412.137	1	7
413.332	1	-2
414.526	1	2
415.721	1	14
416.916	1	1
418.111	1	5
419.305	1	3
420.500	1	2
421.695	1	12
422.889	1	11
424.084	1	5
425.278	1	-3
426.472	1	12
427.667	1	4
428.861	1	0
430.055	1	-1
431.250	1	8
432.444	1	10
433.638	1	7
434.832	1	9
436.026	1	11
437.220	1	6
438.414	1	-1
439.608	1	17
440.802	1	-10
441.996	1	8
443.190	1	7
444.384	1	-4
445.578	1	8
446.771	1	7
447.965	1	6
449.159	1	8
450.352	1	-4
451.546	1	14
452.739	1	7
453.933	1	3
455.126	1	0
456.320	1	1
457.513	1	-6
458.706	1	13
459.899	1	1
461.093	1	11
462.286	1	3
463.479	1	11
464.672	1	7
465.865	1	-5
467.058	1	12
468.251	1	2
469.444	1	1
470.637	1	2
471.830	1	5
473.023	1	8
474.215	1	-3
475.408	1	5
476.601	1	-2
477.793	1	-4
478.986	1	-3
480.179	1	1
481.371	1	13
482.564	1	8
483.756	1	-9
484.948	1	1
486.141	1	4
487.333	1	7
488.525	1	7
489.718	1	9
490.910	1	-8
492.102	1	9
493.294	1	1
494.486	1	7
495.678	1	-4
496.870	1	4
498.062	1	-1
499.254	1	6
500.446	1	8
501.638	1	5
502.829	1	7
504.021	1	-7
505.213	1	4
506.404	1	11
507.596	1	7
508.788	1	-5
509.979	1	4
511.171	1	7
512.362	1	-1
513.553	1	12
514.745	1	12
515.936	1	20
517.127	1	6
518.319	1	6
519.510	1	-3
520.701	1	1
521.892	1	16
523.083	1	3
524.274	1	8
525.465	1	19
526.656	1	13
527.847	1	11
529.038	1	5
530.229	1	14
531.419	1	10
532.610	1	10
533.801	1	14
534.991	1	2
536.182	1	19
537.373	1	12
538.563	1	12
539.754	1	6
540.944	1	9
542.134	1	-1
543.325	1	5
544.515	1	11
545.705	1	6
546.896	1	10
548.086	1	0
549.276	1	-5
550.466	1	18
551.656	1	5
552.846	1	-3
554.036	1	4
555.226	1	10
556.416	1	10
557.606	1	2
558.796	1	13
559.986	1	2
561.175	1	12
562.365	1	18
563.555	1	6
564.744	1	7
565.934	1	13
567.123	1	2
568.313	1	7
569.502	1	5
570.692	1	17
571.881	1	4
573.070	1	5
574.260	1	2
575.449	1	8
576.638	1	3
577.827	1	2
579.016	1	0
580.205	1	2
581.394	1	7
582.583	1	14
583.772	1	6
584.961	1	1
586.150	1	5
587.339	1	-7
588.528	1	11
589.717	1	5
590.905	1	7
592.094	1	2
593.283	1	-2
594.471	1	5
595.660	1	5
596.848	1	12
598.037	1	7
599.225	1	-7
600.413	1	9
601.602	1	-3
602.790	1	-4
603.978	1	7
605.166	1	6
606.355	1	14
607.543	1	-4
608.731	1	7
609.919	1	8
611.107	1	7
612.295	1	8
613.483	1	-1
614.671	1	5
615.858	1	-1
617.046	1	13
618.234	1	-5
619.422	1	10
620.609	1	3
621.797	1	10
622.985	1	11
624.172	1	3
625.360	1	4
626.547	1	2
627.735	1	9
628.922	1	0
630.109	1	5
631.297	1	3
632.484	1	-1
633.671	1	-4
634.858	1	10
636.045	1	14
637.232	1	-6
638.419	1	8
639.606	1	3
640.793	1	-10
641.980	1	1
643.167	1	2
644.354	1	-1
645.541	1	4
646.728	1	8
647.914	1	-6
649.101	1	-2
650.288	1	9
651.474	1	5
652.661	1	-4
653.847	1	-8
655.034	1	1
656.220	1	-1
657.406	1	-3
658.593	1	4
659.779	1	-1
660.965	1	-1
662.152	1	4
663.338	1	-2
664.524	1	-3
665.710	1	2
666.896	1	4
668.082	1	-6
669.268	1	-5
670.454	1	1
671.640	1	-3
672.826	1	2
674.011	1	4
675.197	1	4
676.383	1	8
677.569	1	-6
678.754	1	1
679.940	1	-2
681.125	1	16
682.311	1	-8
683.496	1	-5
684.682	1	8
685.867	1	6
687.053	1	10
688.238	1	14
688.746	1	10