Folder: cryo-il_analysis/Data/GaN_170K_550ms (part 13)

File: GaN_sample D_spot 18_UVVIS_170 K_200um_550 ms 2x2mm1_138.txt
340.368	1	2
341.565	1	-3
342.763	1	3
343.960	1	-5
345.157	1	-3
346.354	1	-1
347.552	1	16
348.749	1	4
349.946	1	8
351.143	1	4
352.340	1	2
353.537	1	7
354.734	1	11
355.931	1	3
357.127	1	3
358.324	1	10
359.521	1	19
360.718	1	9
361.914	1	14
363.111	1	29
364.308	1	26
365.504	1	31
366.701	1	30
367.897	1	42
369.093	1	38
370.290	1	38
371.486	1	37
372.682	1	32
373.879	1	33
375.075	1	30
376.271	1	24
377.467	1	20
378.663	1	13
379.859	1	16
381.055	1	4
382.251	1	15
383.447	1	17
384.643	1	7
385.839	1	8
387.035	1	11
388.230	1	-2
389.426	1	14
390.622	1	6
391.817	1	4
393.013	1	-7
394.208	1	15
395.404	1	4
396.599	1	-1
397.795	1	-6
398.990	1	-5
400.186	1	2
401.381	1	4
402.576	1	-4
403.771	1	0
404.967	1	-4
406.162	1	1
407.357	1	-2
408.552	1	10
409.747	1	-1
410.942	1	6
412.137	1	2
413.332	1	-8
414.526	1	7
415.721	1	1
416.916	1	-2
418.111	1	5
419.305	1	0
420.500	1	-4
421.695	1	1
422.889	1	-5
424.084	1	10
425.278	1	0
426.472	1	-3
427.667	1	6
428.861	1	6
430.055	1	0
431.250	1	12
432.444	1	6
433.638	1	2
434.832	1	3
436.026	1	7
437.220	1	1
438.414	1	0
439.608	1	-9
440.802	1	11
441.996	1	-2
443.190	1	0
444.384	1	2
445.578	1	9
446.771	1	-8
447.965	1	1
449.159	1	-3
450.352	1	0
451.546	1	-6
452.739	1	2
453.933	1	-3
455.126	1	8
456.320	1	-1
457.513	1	2
458.706	1	9
459.899	1	7
461.093	1	5
462.286	1	-6
463.479	1	0
464.672	1	-1
465.865	1	11
467.058	1	8
468.251	1	6
469.444	1	2
470.637	1	7
471.830	1	-6
473.023	1	7
474.215	1	1
475.408	1	-7
476.601	1	6
477.793	1	4
478.986	1	-1
480.179	1	-2
481.371	1	-2
482.564	1	0
483.756	1	-5
484.948	1	0
486.141	1	16
487.333	1	-2
488.525	1	4
489.718	1	11
490.910	1	6
492.102	1	-2
493.294	1	0
494.486	1	10
495.678	1	2
496.870	1	5
498.062	1	4
499.254	1	12
500.446	1	9
501.638	1	-5
502.829	1	7
504.021	1	9
505.213	1	0
506.404	1	6
507.596	1	1
508.788	1	-2
509.979	1	7
511.171	1	8
512.362	1	-3
513.553	1	-2
514.745	1	7
515.936	1	3
517.127	1	12
518.319	1	7
519.510	1	4
520.701	1	14
521.892	1	8
523.083	1	0
524.274	1	4
525.465	1	8
526.656	1	12
527.847	1	9
529.038	1	2
530.229	1	12
531.419	1	7
532.610	1	9
533.801	1	13
534.991	1	4
536.182	1	9
537.373	1	1
538.563	1	7
539.754	1	8
540.944	1	2
542.134	1	-1
543.325	1	10
544.515	1	1
545.705	1	6
546.896	1	1
548.086	1	18
549.276	1	11
550.466	1	3
551.656	1	12
552.846	1	4
554.036	1	4
555.226	1	-5
556.416	1	1
557.606	1	10
558.796	1	8
559.986	1	8
561.175	1	3
562.365	1	-4
563.555	1	9
564.744	1	3
565.934	1	13
567.123	1	6
568.313	1	-1
569.502	1	4
570.692	1	9
571.881	1	3
573.070	1	8
574.260	1	17
575.449	1	12
576.638	1	13
577.827	1	3
579.016	1	12
580.205	1	0
581.394	1	11
582.583	1	11
583.772	1	-6
584.961	1	4
586.150	1	3
587.339	1	5
588.528	1	4
589.717	1	5
590.905	1	6
592.094	1	9
593.283	1	-3
594.471	1	8
595.660	1	7
596.848	1	-3
598.037	1	1
599.225	1	10
600.413	1	6
601.602	1	9
602.790	1	6
603.978	1	0
605.166	1	12
606.355	1	9
607.543	1	9
608.731	1	9
609.919	1	4
611.107	1	-7
612.295	1	6
613.483	1	-6
614.671	1	2
615.858	1	-2
617.046	1	0
618.234	1	0
619.422	1	-3
620.609	1	-1
621.797	1	4
622.985	1	-1
624.172	1	0
625.360	1	-3
626.547	1	0
627.735	1	-13
628.922	1	4
630.109	1	-4
631.297	1	-3
632.484	1	-3
633.671	1	13
634.858	1	1
636.045	1	15
637.232	1	2
638.419	1	-2
639.606	1	0
640.793	1	3
641.980	1	2
643.167	1	3
644.354	1	-2
645.541	1	9
646.728	1	10
647.914	1	4
649.101	1	-2
650.288	1	1
651.474	1	13
652.661	1	6
653.847	1	7
655.034	1	-3
656.220	1	7
657.406	1	-2
658.593	1	-4
659.779	1	-1
660.965	1	6
662.152	1	9
663.338	1	6
664.524	1	2
665.710	1	-4
666.896	1	10
668.082	1	14
669.268	1	1
670.454	1	-7
671.640	1	2
672.826	1	-2
674.011	1	8
675.197	1	15
676.383	1	1
677.569	1	-5
678.754	1	1
679.940	1	11
681.125	1	7
682.311	1	-11
683.496	1	1
684.682	1	4
685.867	1	1
687.053	1	4
688.238	1	0
688.746	1	-4

File: GaN_sample D_spot 18_UVVIS_170 K_200um_550 ms 2x2mm1_140.txt
340.368	1	-1
341.565	1	-3
342.763	1	7
343.960	1	-1
345.157	1	0
346.354	1	-3
347.552	1	19
348.749	1	8
349.946	1	4
351.143	1	-2
352.340	1	7
353.537	1	2
354.734	1	8
355.931	1	0
357.127	1	-2
358.324	1	10
359.521	1	11
360.718	1	9
361.914	1	16
363.111	1	34
364.308	1	28
365.504	1	27
366.701	1	39
367.897	1	34
369.093	1	38
370.290	1	36
371.486	1	24
372.682	1	35
373.879	1	33
375.075	1	21
376.271	1	22
377.467	1	15
378.663	1	15
379.859	1	18
381.055	1	19
382.251	1	9
383.447	1	15
384.643	1	5
385.839	1	7
387.035	1	2
388.230	1	10
389.426	1	13
390.622	1	-8
391.817	1	-3
393.013	1	-2
394.208	1	12
395.404	1	11
396.599	1	-10
397.795	1	3
398.990	1	-10
400.186	1	-2
401.381	1	11
402.576	1	-2
403.771	1	0
404.967	1	-3
406.162	1	8
407.357	1	-1
408.552	1	-2
409.747	1	1
410.942	1	6
412.137	1	2
413.332	1	5
414.526	1	8
415.721	1	3
416.916	1	-7
418.111	1	1
419.305	1	2
420.500	1	-3
421.695	1	-2
422.889	1	-2
424.084	1	17
425.278	1	7
426.472	1	-3
427.667	1	4
428.861	1	3
430.055	1	7
431.250	1	10
432.444	1	11
433.638	1	9
434.832	1	11
436.026	1	-9
437.220	1	3
438.414	1	-5
439.608	1	-5
440.802	1	15
441.996	1	-2
443.190	1	-4
444.384	1	9
445.578	1	8
446.771	1	-8
447.965	1	6
449.159	1	-3
450.352	1	-4
451.546	1	-4
452.739	1	8
453.933	1	1
455.126	1	12
456.320	1	6
457.513	1	12
458.706	1	-1
459.899	1	-3
461.093	1	6
462.286	1	0
463.479	1	0
464.672	1	5
465.865	1	3
467.058	1	5
468.251	1	4
469.444	1	0
470.637	1	3
471.830	1	1
473.023	1	9
474.215	1	3
475.408	1	1
476.601	1	9
477.793	1	10
478.986	1	-1
480.179	1	-4
481.371	1	13
482.564	1	-7
483.756	1	2
484.948	1	4
486.141	1	8
487.333	1	-9
488.525	1	9
489.718	1	3
490.910	1	-1
492.102	1	2
493.294	1	7
494.486	1	13
495.678	1	7
496.870	1	6
498.062	1	0
499.254	1	2
500.446	1	-3
501.638	1	1
502.829	1	5
504.021	1	8
505.213	1	-2
506.404	1	13
507.596	1	6
508.788	1	-3
509.979	1	3
511.171	1	6
512.362	1	-1
513.553	1	-2
514.745	1	1
515.936	1	-2
517.127	1	5
518.319	1	9
519.510	1	13
520.701	1	13
521.892	1	5
523.083	1	16
524.274	1	10
525.465	1	12
526.656	1	13
527.847	1	11
529.038	1	0
530.229	1	21
531.419	1	20
532.610	1	15
533.801	1	15
534.991	1	1
536.182	1	7
537.373	1	7
538.563	1	21
539.754	1	8
540.944	1	7
542.134	1	5
543.325	1	9
544.515	1	3
545.705	1	14
546.896	1	4
548.086	1	10
549.276	1	7
550.466	1	0
551.656	1	9
552.846	1	4
554.036	1	10
555.226	1	6
556.416	1	5
557.606	1	7
558.796	1	3
559.986	1	14
561.175	1	3
562.365	1	0
563.555	1	1
564.744	1	17
565.934	1	2
567.123	1	3
568.313	1	7
569.502	1	2
570.692	1	12
571.881	1	5
573.070	1	-4
574.260	1	6
575.449	1	6
576.638	1	13
577.827	1	-11
579.016	1	-1
580.205	1	0
581.394	1	7
582.583	1	7
583.772	1	4
584.961	1	1
586.150	1	-2
587.339	1	3
588.528	1	0
589.717	1	16
590.905	1	17
592.094	1	9
593.283	1	11
594.471	1	18
595.660	1	10
596.848	1	3
598.037	1	6
599.225	1	16
600.413	1	-5
601.602	1	8
602.790	1	9
603.978	1	7
605.166	1	12
606.355	1	7
607.543	1	2
608.731	1	7
609.919	1	-2
611.107	1	5
612.295	1	-2
613.483	1	-1
614.671	1	7
615.858	1	2
617.046	1	1
618.234	1	3
619.422	1	-9
620.609	1	4
621.797	1	0
622.985	1	2
624.172	1	2
625.360	1	6
626.547	1	-3
627.735	1	-7
628.922	1	-14
630.109	1	2
631.297	1	-1
632.484	1	-5
633.671	1	13
634.858	1	7
636.045	1	7
637.232	1	-7
638.419	1	-8
639.606	1	-3
640.793	1	-3
641.980	1	0
643.167	1	2
644.354	1	1
645.541	1	11
646.728	1	4
647.914	1	-2
649.101	1	8
650.288	1	0
651.474	1	10
652.661	1	3
653.847	1	3
655.034	1	2
656.220	1	-4
657.406	1	-1
658.593	1	-2
659.779	1	-1
660.965	1	13
662.152	1	-4
663.338	1	3
664.524	1	5
665.710	1	3
666.896	1	1
668.082	1	15
669.268	1	-6
670.454	1	-3
671.640	1	8
672.826	1	12
674.011	1	3
675.197	1	-5
676.383	1	-1
677.569	1	-9
678.754	1	12
679.940	1	12
681.125	1	7
682.311	1	7
683.496	1	3
684.682	1	17
685.867	1	12
687.053	1	-4
688.238	1	3
688.746	1	0

File: GaN_sample D_spot 18_UVVIS_170 K_200um_550 ms 2x2mm1_141.txt
340.368	1	3
341.565	1	-1
342.763	1	-2
343.960	1	-2
345.157	1	7
346.354	1	3
347.552	1	12
348.749	1	7
349.946	1	4
351.143	1	8
352.340	1	-5
353.537	1	11
354.734	1	8
355.931	1	-2
357.127	1	8
358.324	1	15
359.521	1	14
360.718	1	15
361.914	1	12
363.111	1	26
364.308	1	20
365.504	1	38
366.701	1	31
367.897	1	44
369.093	1	34
370.290	1	34
371.486	1	29
372.682	1	32
373.879	1	31
375.075	1	24
376.271	1	25
377.467	1	19
378.663	1	14
379.859	1	7
381.055	1	22
382.251	1	8
383.447	1	11
384.643	1	3
385.839	1	3
387.035	1	2
388.230	1	4
389.426	1	5
390.622	1	6
391.817	1	7
393.013	1	1
394.208	1	5
395.404	1	12
396.599	1	-9
397.795	1	-3
398.990	1	-5
400.186	1	-8
401.381	1	6
402.576	1	4
403.771	1	-9
404.967	1	-1
406.162	1	8
407.357	1	-7
408.552	1	4
409.747	1	3
410.942	1	-1
412.137	1	-4
413.332	1	0
414.526	1	4
415.721	1	4
416.916	1	-11
418.111	1	3
419.305	1	-1
420.500	1	2
421.695	1	-8
422.889	1	-2
424.084	1	12
425.278	1	-7
426.472	1	4
427.667	1	4
428.861	1	4
430.055	1	0
431.250	1	15
432.444	1	10
433.638	1	11
434.832	1	5
436.026	1	-5
437.220	1	2
438.414	1	-9
439.608	1	-3
440.802	1	7
441.996	1	1
443.190	1	0
444.384	1	-3
445.578	1	11
446.771	1	-13
447.965	1	-3
449.159	1	-3
450.352	1	-8
451.546	1	-6
452.739	1	1
453.933	1	0
455.126	1	2
456.320	1	-6
457.513	1	7
458.706	1	7
459.899	1	10
461.093	1	8
462.286	1	10
463.479	1	-1
464.672	1	6
465.865	1	2
467.058	1	2
468.251	1	3
469.444	1	9
470.637	1	1
471.830	1	-1
473.023	1	1
474.215	1	-2
475.408	1	-5
476.601	1	6
477.793	1	12
478.986	1	-1
480.179	1	-6
481.371	1	7
482.564	1	-1
483.756	1	6
484.948	1	-6
486.141	1	13
487.333	1	-1
488.525	1	9
489.718	1	19
490.910	1	1
492.102	1	8
493.294	1	4
494.486	1	16
495.678	1	9
496.870	1	2
498.062	1	13
499.254	1	12
500.446	1	2
501.638	1	-4
502.829	1	4
504.021	1	0
505.213	1	3
506.404	1	6
507.596	1	15
508.788	1	0
509.979	1	-5
511.171	1	6
512.362	1	-2
513.553	1	4
514.745	1	10
515.936	1	3
517.127	1	15
518.319	1	8
519.510	1	14
520.701	1	7
521.892	1	13
523.083	1	-1
524.274	1	11
525.465	1	7
526.656	1	13
527.847	1	9
529.038	1	1
530.229	1	17
531.419	1	16
532.610	1	12
533.801	1	9
534.991	1	8
536.182	1	5
537.373	1	-1
538.563	1	2
539.754	1	9
540.944	1	7
542.134	1	8
543.325	1	7
544.515	1	-1
545.705	1	3
546.896	1	8
548.086	1	15
549.276	1	9
550.466	1	8
551.656	1	14
552.846	1	9
554.036	1	12
555.226	1	0
556.416	1	-5
557.606	1	6
558.796	1	12
559.986	1	11
561.175	1	-7
562.365	1	4
563.555	1	0
564.744	1	9
565.934	1	9
567.123	1	8
568.313	1	-9
569.502	1	-4
570.692	1	8
571.881	1	1
573.070	1	4
574.260	1	9
575.449	1	6
576.638	1	15
577.827	1	-3
579.016	1	7
580.205	1	2
581.394	1	13
582.583	1	-6
583.772	1	2
584.961	1	1
586.150	1	-6
587.339	1	1
588.528	1	10
589.717	1	8
590.905	1	7
592.094	1	4
593.283	1	10
594.471	1	8
595.660	1	5
596.848	1	-2
598.037	1	5
599.225	1	6
600.413	1	-2
601.602	1	5
602.790	1	16
603.978	1	5
605.166	1	-1
606.355	1	8
607.543	1	9
608.731	1	7
609.919	1	-4
611.107	1	2
612.295	1	-5
613.483	1	-4
614.671	1	7
615.858	1	-2
617.046	1	2
618.234	1	-10
619.422	1	0
620.609	1	10
621.797	1	2
622.985	1	3
624.172	1	-4
625.360	1	9
626.547	1	-1
627.735	1	-9
628.922	1	-1
630.109	1	-5
631.297	1	2
632.484	1	-1
633.671	1	4
634.858	1	-4
636.045	1	5
637.232	1	4
638.419	1	-1
639.606	1	-1
640.793	1	2
641.980	1	0
643.167	1	2
644.354	1	2
645.541	1	6
646.728	1	3
647.914	1	3
649.101	1	1
650.288	1	8
651.474	1	10
652.661	1	6
653.847	1	4
655.034	1	3
656.220	1	-1
657.406	1	9
658.593	1	-1
659.779	1	4
660.965	1	8
662.152	1	6
663.338	1	6
664.524	1	1
665.710	1	1
666.896	1	2
668.082	1	9
669.268	1	-7
670.454	1	-6
671.640	1	4
672.826	1	6
674.011	1	-3
675.197	1	6
676.383	1	3
677.569	1	2
678.754	1	-8
679.940	1	9
681.125	1	5
682.311	1	4
683.496	1	1
684.682	1	8
685.867	1	4
687.053	1	-7
688.238	1	2
688.746	1	1

File: GaN_sample D_spot 18_UVVIS_170 K_200um_550 ms 2x2mm1_142.txt
340.368	1	4
341.565	1	5
342.763	1	0
343.960	1	-6
345.157	1	6
346.354	1	1
347.552	1	13
348.749	1	-1
349.946	1	13
351.143	1	-1
352.340	1	2
353.537	1	1
354.734	1	7
355.931	1	10
357.127	1	6
358.324	1	3
359.521	1	15
360.718	1	16
361.914	1	20
363.111	1	31
364.308	1	21
365.504	1	23
366.701	1	37
367.897	1	42
369.093	1	29
370.290	1	36
371.486	1	26
372.682	1	35
373.879	1	40
375.075	1	12
376.271	1	26
377.467	1	11
378.663	1	19
379.859	1	10
381.055	1	18
382.251	1	11
383.447	1	12
384.643	1	-3
385.839	1	2
387.035	1	8
388.230	1	0
389.426	1	2
390.622	1	1
391.817	1	5
393.013	1	4
394.208	1	19
395.404	1	6
396.599	1	-2
397.795	1	9
398.990	1	-13
400.186	1	-10
401.381	1	8
402.576	1	12
403.771	1	4
404.967	1	8
406.162	1	6
407.357	1	-3
408.552	1	1
409.747	1	-1
410.942	1	5
412.137	1	-11
413.332	1	-7
414.526	1	1
415.721	1	-4
416.916	1	-11
418.111	1	6
419.305	1	-4
420.500	1	5
421.695	1	-11
422.889	1	4
424.084	1	23
425.278	1	-1
426.472	1	-10
427.667	1	10
428.861	1	4
430.055	1	15
431.250	1	12
432.444	1	2
433.638	1	11
434.832	1	8
436.026	1	-7
437.220	1	0
438.414	1	-1
439.608	1	1
440.802	1	11
441.996	1	2
443.190	1	3
444.384	1	7
445.578	1	8
446.771	1	-11
447.965	1	2
449.159	1	-4
450.352	1	-7
451.546	1	-5
452.739	1	-4
453.933	1	-3
455.126	1	13
456.320	1	7
457.513	1	11
458.706	1	8
459.899	1	1
461.093	1	6
462.286	1	-2
463.479	1	-2
464.672	1	1
465.865	1	8
467.058	1	2
468.251	1	1
469.444	1	2
470.637	1	4
471.830	1	-9
473.023	1	4
474.215	1	1
475.408	1	-2
476.601	1	-5
477.793	1	7
478.986	1	-3
480.179	1	-5
481.371	1	4
482.564	1	11
483.756	1	-4
484.948	1	-2
486.141	1	13
487.333	1	-1
488.525	1	-2
489.718	1	13
490.910	1	-1
492.102	1	5
493.294	1	0
494.486	1	10
495.678	1	0
496.870	1	10
498.062	1	-1
499.254	1	15
500.446	1	3
501.638	1	-6
502.829	1	6
504.021	1	0
505.213	1	-1
506.404	1	5
507.596	1	7
508.788	1	2
509.979	1	5
511.171	1	13
512.362	1	7
513.553	1	11
514.745	1	-3
515.936	1	3
517.127	1	4
518.319	1	17
519.510	1	9
520.701	1	4
521.892	1	17
523.083	1	6
524.274	1	11
525.465	1	13
526.656	1	17
527.847	1	3
529.038	1	3
530.229	1	10
531.419	1	16
532.610	1	8
533.801	1	11
534.991	1	5
536.182	1	4
537.373	1	1
538.563	1	-2
539.754	1	3
540.944	1	-1
542.134	1	7
543.325	1	16
544.515	1	9
545.705	1	5
546.896	1	22
548.086	1	14
549.276	1	1
550.466	1	-2
551.656	1	12
552.846	1	3
554.036	1	5
555.226	1	-2
556.416	1	4
557.606	1	5
558.796	1	6
559.986	1	-3
561.175	1	-8
562.365	1	10
563.555	1	-1
564.744	1	-2
565.934	1	12
567.123	1	9
568.313	1	7
569.502	1	-2
570.692	1	8
571.881	1	3
573.070	1	-3
574.260	1	6
575.449	1	2
576.638	1	11
577.827	1	1
579.016	1	9
580.205	1	-3
581.394	1	5
582.583	1	4
583.772	1	3
584.961	1	0
586.150	1	-1
587.339	1	-2
588.528	1	7
589.717	1	6
590.905	1	12
592.094	1	18
593.283	1	2
594.471	1	5
595.660	1	1
596.848	1	2
598.037	1	1
599.225	1	10
600.413	1	1
601.602	1	4
602.790	1	0
603.978	1	11
605.166	1	8
606.355	1	2
607.543	1	12
608.731	1	6
609.919	1	0
611.107	1	1
612.295	1	-5
613.483	1	-4
614.671	1	18
615.858	1	3
617.046	1	2
618.234	1	3
619.422	1	-4
620.609	1	1
621.797	1	5
622.985	1	6
624.172	1	0
625.360	1	-2
626.547	1	-1
627.735	1	-13
628.922	1	-4
630.109	1	-2
631.297	1	-2
632.484	1	-4
633.671	1	10
634.858	1	6
636.045	1	9
637.232	1	9
638.419	1	-12
639.606	1	3
640.793	1	4
641.980	1	-4
643.167	1	-3
644.354	1	3
645.541	1	3
646.728	1	-3
647.914	1	3
649.101	1	-1
650.288	1	5
651.474	1	-3
652.661	1	6
653.847	1	-1
655.034	1	5
656.220	1	4
657.406	1	-1
658.593	1	-4
659.779	1	2
660.965	1	11
662.152	1	-4
663.338	1	9
664.524	1	4
665.710	1	-5
666.896	1	7
668.082	1	9
669.268	1	1
670.454	1	-2
671.640	1	0
672.826	1	4
674.011	1	3
675.197	1	11
676.383	1	9
677.569	1	-3
678.754	1	-2
679.940	1	-1
681.125	1	3
682.311	1	3
683.496	1	1
684.682	1	-3
685.867	1	10
687.053	1	-7
688.238	1	-2
688.746	1	-2

File: GaN_sample D_spot 18_UVVIS_170 K_200um_550 ms 2x2mm1_143.txt
340.368	1	-6
341.565	1	13
342.763	1	6
343.960	1	4
345.157	1	0
346.354	1	-1
347.552	1	7
348.749	1	9
349.946	1	5
351.143	1	5
352.340	1	9
353.537	1	13
354.734	1	7
355.931	1	2
357.127	1	7
358.324	1	18
359.521	1	17
360.718	1	9
361.914	1	15
363.111	1	26
364.308	1	21
365.504	1	29
366.701	1	34
367.897	1	35
369.093	1	30
370.290	1	27
371.486	1	22
372.682	1	38
373.879	1	29
375.075	1	22
376.271	1	23
377.467	1	12
378.663	1	14
379.859	1	10
381.055	1	10
382.251	1	-5
383.447	1	13
384.643	1	2
385.839	1	-8
387.035	1	7
388.230	1	11
389.426	1	14
390.622	1	5
391.817	1	4
393.013	1	-3
394.208	1	11
395.404	1	11
396.599	1	-6
397.795	1	-6
398.990	1	-6
400.186	1	0
401.381	1	14
402.576	1	2
403.771	1	5
404.967	1	4
406.162	1	3
407.357	1	2
408.552	1	-2
409.747	1	0
410.942	1	6
412.137	1	-5
413.332	1	-6
414.526	1	3
415.721	1	3
416.916	1	0
418.111	1	10
419.305	1	4
420.500	1	-2
421.695	1	-5
422.889	1	-4
424.084	1	23
425.278	1	6
426.472	1	2
427.667	1	4
428.861	1	10
430.055	1	9
431.250	1	15
432.444	1	1
433.638	1	7
434.832	1	3
436.026	1	5
437.220	1	4
438.414	1	-1
439.608	1	1
440.802	1	1
441.996	1	-1
443.190	1	9
444.384	1	5
445.578	1	8
446.771	1	-12
447.965	1	6
449.159	1	-4
450.352	1	-2
451.546	1	1
452.739	1	-1
453.933	1	1
455.126	1	6
456.320	1	4
457.513	1	11
458.706	1	3
459.899	1	-3
461.093	1	8
462.286	1	9
463.479	1	-5
464.672	1	-2
465.865	1	9
467.058	1	7
468.251	1	1
469.444	1	0
470.637	1	6
471.830	1	-1
473.023	1	6
474.215	1	-1
475.408	1	-5
476.601	1	3
477.793	1	7
478.986	1	-2
480.179	1	-4
481.371	1	-8
482.564	1	4
483.756	1	10
484.948	1	-1
486.141	1	8
487.333	1	-2
488.525	1	11
489.718	1	13
490.910	1	4
492.102	1	-3
493.294	1	-2
494.486	1	14
495.678	1	9
496.870	1	4
498.062	1	3
499.254	1	10
500.446	1	4
501.638	1	-1
502.829	1	3
504.021	1	8
505.213	1	-1
506.404	1	3
507.596	1	3
508.788	1	7
509.979	1	14
511.171	1	5
512.362	1	2
513.553	1	10
514.745	1	10
515.936	1	1
517.127	1	13
518.319	1	6
519.510	1	6
520.701	1	12
521.892	1	12
523.083	1	0
524.274	1	3
525.465	1	11
526.656	1	2
527.847	1	4
529.038	1	1
530.229	1	21
531.419	1	12
532.610	1	6
533.801	1	8
534.991	1	6
536.182	1	5
537.373	1	3
538.563	1	11
539.754	1	13
540.944	1	2
542.134	1	3
543.325	1	10
544.515	1	4
545.705	1	10
546.896	1	15
548.086	1	12
549.276	1	3
550.466	1	0
551.656	1	10
552.846	1	6
554.036	1	7
555.226	1	2
556.416	1	7
557.606	1	6
558.796	1	2
559.986	1	7
561.175	1	4
562.365	1	10
563.555	1	7
564.744	1	6
565.934	1	6
567.123	1	6
568.313	1	-3
569.502	1	2
570.692	1	13
571.881	1	3
573.070	1	2
574.260	1	5
575.449	1	-1
576.638	1	9
577.827	1	5
579.016	1	4
580.205	1	1
581.394	1	8
582.583	1	4
583.772	1	-3
584.961	1	0
586.150	1	3
587.339	1	7
588.528	1	-7
589.717	1	5
590.905	1	6
592.094	1	8
593.283	1	16
594.471	1	15
595.660	1	6
596.848	1	6
598.037	1	-1
599.225	1	5
600.413	1	7
601.602	1	-6
602.790	1	8
603.978	1	4
605.166	1	9
606.355	1	6
607.543	1	3
608.731	1	4
609.919	1	3
611.107	1	-4
612.295	1	1
613.483	1	5
614.671	1	10
615.858	1	1
617.046	1	1
618.234	1	-1
619.422	1	-11
620.609	1	2
621.797	1	4
622.985	1	8
624.172	1	8
625.360	1	-3
626.547	1	0
627.735	1	-13
628.922	1	-4
630.109	1	-7
631.297	1	4
632.484	1	-8
633.671	1	7
634.858	1	3
636.045	1	3
637.232	1	0
638.419	1	-3
639.606	1	-3
640.793	1	-4
641.980	1	1
643.167	1	-1
644.354	1	-1
645.541	1	7
646.728	1	8
647.914	1	3
649.101	1	0
650.288	1	5
651.474	1	7
652.661	1	0
653.847	1	-2
655.034	1	2
656.220	1	8
657.406	1	-2
658.593	1	6
659.779	1	4
660.965	1	10
662.152	1	8
663.338	1	8
664.524	1	11
665.710	1	4
666.896	1	2
668.082	1	12
669.268	1	3
670.454	1	-8
671.640	1	5
672.826	1	5
674.011	1	9
675.197	1	7
676.383	1	7
677.569	1	-9
678.754	1	7
679.940	1	9
681.125	1	-1
682.311	1	0
683.496	1	5
684.682	1	6
685.867	1	0
687.053	1	-4
688.238	1	-4
688.746	1	-12

File: GaN_sample D_spot 18_UVVIS_170 K_200um_550 ms 2x2mm1_147.txt
340.368	1	2
341.565	1	2
342.763	1	11
343.960	1	-1
345.157	1	-7
346.354	1	0
347.552	1	4
348.749	1	12
349.946	1	9
351.143	1	4
352.340	1	3
353.537	1	0
354.734	1	8
355.931	1	-2
357.127	1	1
358.324	1	11
359.521	1	8
360.718	1	18
361.914	1	10
363.111	1	26
364.308	1	20
365.504	1	24
366.701	1	37
367.897	1	26
369.093	1	28
370.290	1	26
371.486	1	20
372.682	1	29
373.879	1	27
375.075	1	19
376.271	1	19
377.467	1	14
378.663	1	13
379.859	1	10
381.055	1	11
382.251	1	26
383.447	1	24
384.643	1	11
385.839	1	3
387.035	1	10
388.230	1	3
389.426	1	9
390.622	1	5
391.817	1	5
393.013	1	-1
394.208	1	8
395.404	1	12
396.599	1	-1
397.795	1	3
398.990	1	-8
400.186	1	-8
401.381	1	7
402.576	1	4
403.771	1	7
404.967	1	-1
406.162	1	8
407.357	1	-3
408.552	1	2
409.747	1	2
410.942	1	1
412.137	1	-2
413.332	1	-1
414.526	1	4
415.721	1	3
416.916	1	-3
418.111	1	9
419.305	1	11
420.500	1	0
421.695	1	-8
422.889	1	0
424.084	1	10
425.278	1	-2
426.472	1	3
427.667	1	5
428.861	1	5
430.055	1	5
431.250	1	8
432.444	1	8
433.638	1	0
434.832	1	12
436.026	1	6
437.220	1	-3
438.414	1	-3
439.608	1	-2
440.802	1	10
441.996	1	1
443.190	1	-6
444.384	1	-1
445.578	1	7
446.771	1	-9
447.965	1	5
449.159	1	3
450.352	1	-6
451.546	1	-9
452.739	1	1
453.933	1	13
455.126	1	13
456.320	1	-8
457.513	1	8
458.706	1	5
459.899	1	1
461.093	1	6
462.286	1	3
463.479	1	-5
464.672	1	2
465.865	1	-4
467.058	1	-6
468.251	1	1
469.444	1	4
470.637	1	8
471.830	1	-1
473.023	1	2
474.215	1	3
475.408	1	-6
476.601	1	1
477.793	1	3
478.986	1	9
480.179	1	5
481.371	1	1
482.564	1	6
483.756	1	-2
484.948	1	5
486.141	1	17
487.333	1	-9
488.525	1	13
489.718	1	4
490.910	1	8
492.102	1	3
493.294	1	5
494.486	1	22
495.678	1	11
496.870	1	-1
498.062	1	-6
499.254	1	8
500.446	1	1
501.638	1	-8
502.829	1	10
504.021	1	4
505.213	1	8
506.404	1	4
507.596	1	11
508.788	1	-8
509.979	1	7
511.171	1	7
512.362	1	1
513.553	1	2
514.745	1	10
515.936	1	0
517.127	1	9
518.319	1	9
519.510	1	14
520.701	1	9
521.892	1	9
523.083	1	1
524.274	1	6
525.465	1	5
526.656	1	14
527.847	1	4
529.038	1	0
530.229	1	20
531.419	1	5
532.610	1	3
533.801	1	13
534.991	1	3
536.182	1	11
537.373	1	1
538.563	1	12
539.754	1	13
540.944	1	-2
542.134	1	12
543.325	1	9
544.515	1	7
545.705	1	12
546.896	1	13
548.086	1	9
549.276	1	2
550.466	1	-1
551.656	1	6
552.846	1	-1
554.036	1	6
555.226	1	1
556.416	1	4
557.606	1	8
558.796	1	4
559.986	1	8
561.175	1	-6
562.365	1	15
563.555	1	-5
564.744	1	3
565.934	1	7
567.123	1	-4
568.313	1	-6
569.502	1	1
570.692	1	11
571.881	1	-1
573.070	1	7
574.260	1	21
575.449	1	9
576.638	1	7
577.827	1	4
579.016	1	2
580.205	1	-6
581.394	1	10
582.583	1	8
583.772	1	-1
584.961	1	2
586.150	1	-6
587.339	1	9
588.528	1	9
589.717	1	7
590.905	1	7
592.094	1	14
593.283	1	13
594.471	1	11
595.660	1	5
596.848	1	4
598.037	1	1
599.225	1	6
600.413	1	-5
601.602	1	13
602.790	1	10
603.978	1	4
605.166	1	13
606.355	1	9
607.543	1	6
608.731	1	3
609.919	1	6
611.107	1	-5
612.295	1	-1
613.483	1	0
614.671	1	9
615.858	1	-2
617.046	1	-5
618.234	1	7
619.422	1	-2
620.609	1	4
621.797	1	-1
622.985	1	0
624.172	1	7
625.360	1	7
626.547	1	-2
627.735	1	-10
628.922	1	-10
630.109	1	4
631.297	1	0
632.484	1	-3
633.671	1	10
634.858	1	5
636.045	1	5
637.232	1	6
638.419	1	-4
639.606	1	-1
640.793	1	4
641.980	1	0
643.167	1	-6
644.354	1	1
645.541	1	0
646.728	1	9
647.914	1	8
649.101	1	6
650.288	1	8
651.474	1	3
652.661	1	6
653.847	1	1
655.034	1	-4
656.220	1	2
657.406	1	1
658.593	1	-3
659.779	1	11
660.965	1	10
662.152	1	3
663.338	1	11
664.524	1	8
665.710	1	4
666.896	1	9
668.082	1	5
669.268	1	-4
670.454	1	0
671.640	1	10
672.826	1	4
674.011	1	4
675.197	1	-1
676.383	1	2
677.569	1	-2
678.754	1	8
679.940	1	10
681.125	1	1
682.311	1	1
683.496	1	9
684.682	1	2
685.867	1	12
687.053	1	-11
688.238	1	-5
688.746	1	-1