Folder: cryo-il_analysis/Data/GaN_170K_550ms (part 17)

File: GaN_sample D_spot 18_UVVIS_170 K_200um_550 ms 2x2mm1_187.txt
340.368	1	-1
341.565	1	1
342.763	1	4
343.960	1	5
345.157	1	0
346.354	1	4
347.552	1	10
348.749	1	5
349.946	1	4
351.143	1	-2
352.340	1	3
353.537	1	10
354.734	1	10
355.931	1	1
357.127	1	-3
358.324	1	8
359.521	1	10
360.718	1	5
361.914	1	8
363.111	1	15
364.308	1	17
365.504	1	11
366.701	1	18
367.897	1	22
369.093	1	9
370.290	1	21
371.486	1	19
372.682	1	23
373.879	1	15
375.075	1	23
376.271	1	14
377.467	1	8
378.663	1	9
379.859	1	11
381.055	1	14
382.251	1	8
383.447	1	12
384.643	1	0
385.839	1	0
387.035	1	3
388.230	1	8
389.426	1	7
390.622	1	5
391.817	1	-6
393.013	1	-3
394.208	1	11
395.404	1	5
396.599	1	-12
397.795	1	3
398.990	1	-2
400.186	1	-8
401.381	1	9
402.576	1	-1
403.771	1	2
404.967	1	-1
406.162	1	4
407.357	1	-1
408.552	1	-2
409.747	1	3
410.942	1	0
412.137	1	-7
413.332	1	-5
414.526	1	9
415.721	1	3
416.916	1	-5
418.111	1	14
419.305	1	3
420.500	1	7
421.695	1	-6
422.889	1	1
424.084	1	12
425.278	1	2
426.472	1	10
427.667	1	3
428.861	1	3
430.055	1	1
431.250	1	21
432.444	1	6
433.638	1	-1
434.832	1	2
436.026	1	5
437.220	1	2
438.414	1	-4
439.608	1	-5
440.802	1	0
441.996	1	-4
443.190	1	6
444.384	1	4
445.578	1	9
446.771	1	-12
447.965	1	3
449.159	1	-1
450.352	1	-7
451.546	1	-6
452.739	1	5
453.933	1	1
455.126	1	12
456.320	1	-6
457.513	1	9
458.706	1	9
459.899	1	3
461.093	1	0
462.286	1	-6
463.479	1	-7
464.672	1	4
465.865	1	-2
467.058	1	12
468.251	1	3
469.444	1	-4
470.637	1	-5
471.830	1	-2
473.023	1	0
474.215	1	7
475.408	1	-5
476.601	1	12
477.793	1	10
478.986	1	-4
480.179	1	-6
481.371	1	-2
482.564	1	-1
483.756	1	2
484.948	1	3
486.141	1	5
487.333	1	-2
488.525	1	8
489.718	1	16
490.910	1	3
492.102	1	1
493.294	1	4
494.486	1	6
495.678	1	7
496.870	1	4
498.062	1	-8
499.254	1	11
500.446	1	-4
501.638	1	-9
502.829	1	6
504.021	1	4
505.213	1	4
506.404	1	0
507.596	1	14
508.788	1	-1
509.979	1	0
511.171	1	4
512.362	1	5
513.553	1	7
514.745	1	-5
515.936	1	2
517.127	1	9
518.319	1	13
519.510	1	4
520.701	1	3
521.892	1	6
523.083	1	0
524.274	1	13
525.465	1	11
526.656	1	4
527.847	1	1
529.038	1	2
530.229	1	7
531.419	1	11
532.610	1	5
533.801	1	9
534.991	1	1
536.182	1	3
537.373	1	-6
538.563	1	1
539.754	1	6
540.944	1	2
542.134	1	2
543.325	1	7
544.515	1	5
545.705	1	14
546.896	1	11
548.086	1	6
549.276	1	0
550.466	1	6
551.656	1	3
552.846	1	-2
554.036	1	3
555.226	1	-3
556.416	1	6
557.606	1	6
558.796	1	5
559.986	1	9
561.175	1	-6
562.365	1	4
563.555	1	0
564.744	1	7
565.934	1	5
567.123	1	-4
568.313	1	2
569.502	1	9
570.692	1	10
571.881	1	-7
573.070	1	1
574.260	1	-1
575.449	1	2
576.638	1	3
577.827	1	-8
579.016	1	4
580.205	1	-1
581.394	1	6
582.583	1	-2
583.772	1	-1
584.961	1	-1
586.150	1	-2
587.339	1	0
588.528	1	3
589.717	1	6
590.905	1	19
592.094	1	15
593.283	1	5
594.471	1	7
595.660	1	0
596.848	1	2
598.037	1	-1
599.225	1	3
600.413	1	-7
601.602	1	0
602.790	1	14
603.978	1	11
605.166	1	13
606.355	1	8
607.543	1	8
608.731	1	-1
609.919	1	2
611.107	1	2
612.295	1	7
613.483	1	-6
614.671	1	6
615.858	1	2
617.046	1	1
618.234	1	7
619.422	1	-1
620.609	1	1
621.797	1	13
622.985	1	2
624.172	1	5
625.360	1	2
626.547	1	-6
627.735	1	-3
628.922	1	-3
630.109	1	5
631.297	1	-2
632.484	1	-2
633.671	1	9
634.858	1	-4
636.045	1	5
637.232	1	0
638.419	1	1
639.606	1	-6
640.793	1	-3
641.980	1	1
643.167	1	-5
644.354	1	2
645.541	1	6
646.728	1	5
647.914	1	3
649.101	1	-6
650.288	1	-3
651.474	1	7
652.661	1	6
653.847	1	-2
655.034	1	-3
656.220	1	7
657.406	1	0
658.593	1	-6
659.779	1	4
660.965	1	12
662.152	1	5
663.338	1	6
664.524	1	-3
665.710	1	-2
666.896	1	-3
668.082	1	6
669.268	1	-9
670.454	1	-13
671.640	1	7
672.826	1	4
674.011	1	11
675.197	1	4
676.383	1	-3
677.569	1	-1
678.754	1	-2
679.940	1	9
681.125	1	10
682.311	1	7
683.496	1	3
684.682	1	6
685.867	1	6
687.053	1	-8
688.238	1	-2
688.746	1	-7

File: GaN_sample D_spot 18_UVVIS_170 K_200um_550 ms 2x2mm1_188.txt
340.368	1	-2
341.565	1	0
342.763	1	-4
343.960	1	0
345.157	1	-8
346.354	1	0
347.552	1	15
348.749	1	11
349.946	1	12
351.143	1	5
352.340	1	6
353.537	1	6
354.734	1	7
355.931	1	7
357.127	1	7
358.324	1	13
359.521	1	13
360.718	1	9
361.914	1	5
363.111	1	24
364.308	1	16
365.504	1	18
366.701	1	23
367.897	1	14
369.093	1	9
370.290	1	21
371.486	1	12
372.682	1	19
373.879	1	18
375.075	1	14
376.271	1	13
377.467	1	6
378.663	1	12
379.859	1	5
381.055	1	7
382.251	1	7
383.447	1	15
384.643	1	-5
385.839	1	-8
387.035	1	-2
388.230	1	6
389.426	1	4
390.622	1	-1
391.817	1	-3
393.013	1	3
394.208	1	7
395.404	1	7
396.599	1	-6
397.795	1	-3
398.990	1	-11
400.186	1	6
401.381	1	5
402.576	1	2
403.771	1	-2
404.967	1	7
406.162	1	1
407.357	1	-7
408.552	1	1
409.747	1	3
410.942	1	-4
412.137	1	-8
413.332	1	-4
414.526	1	9
415.721	1	2
416.916	1	-8
418.111	1	4
419.305	1	-1
420.500	1	1
421.695	1	-10
422.889	1	-7
424.084	1	20
425.278	1	2
426.472	1	11
427.667	1	3
428.861	1	6
430.055	1	1
431.250	1	11
432.444	1	-5
433.638	1	1
434.832	1	3
436.026	1	4
437.220	1	4
438.414	1	-5
439.608	1	-1
440.802	1	11
441.996	1	-6
443.190	1	-1
444.384	1	-7
445.578	1	8
446.771	1	-12
447.965	1	1
449.159	1	-6
450.352	1	-3
451.546	1	-5
452.739	1	5
453.933	1	6
455.126	1	4
456.320	1	4
457.513	1	8
458.706	1	6
459.899	1	5
461.093	1	9
462.286	1	-16
463.479	1	-6
464.672	1	8
465.865	1	9
467.058	1	2
468.251	1	-1
469.444	1	2
470.637	1	0
471.830	1	-2
473.023	1	0
474.215	1	10
475.408	1	-8
476.601	1	8
477.793	1	6
478.986	1	-4
480.179	1	-6
481.371	1	0
482.564	1	0
483.756	1	4
484.948	1	3
486.141	1	9
487.333	1	-10
488.525	1	10
489.718	1	9
490.910	1	-1
492.102	1	8
493.294	1	3
494.486	1	3
495.678	1	7
496.870	1	-7
498.062	1	-1
499.254	1	6
500.446	1	-7
501.638	1	-2
502.829	1	5
504.021	1	8
505.213	1	-3
506.404	1	6
507.596	1	2
508.788	1	-2
509.979	1	0
511.171	1	7
512.362	1	1
513.553	1	2
514.745	1	0
515.936	1	2
517.127	1	11
518.319	1	5
519.510	1	5
520.701	1	10
521.892	1	12
523.083	1	8
524.274	1	1
525.465	1	7
526.656	1	8
527.847	1	0
529.038	1	8
530.229	1	11
531.419	1	12
532.610	1	9
533.801	1	4
534.991	1	7
536.182	1	-1
537.373	1	3
538.563	1	4
539.754	1	-1
540.944	1	-1
542.134	1	-2
543.325	1	5
544.515	1	7
545.705	1	8
546.896	1	10
548.086	1	4
549.276	1	2
550.466	1	1
551.656	1	13
552.846	1	-1
554.036	1	0
555.226	1	4
556.416	1	8
557.606	1	1
558.796	1	1
559.986	1	10
561.175	1	-1
562.365	1	5
563.555	1	0
564.744	1	0
565.934	1	5
567.123	1	2
568.313	1	7
569.502	1	2
570.692	1	3
571.881	1	3
573.070	1	-7
574.260	1	1
575.449	1	6
576.638	1	4
577.827	1	-1
579.016	1	5
580.205	1	2
581.394	1	3
582.583	1	-5
583.772	1	4
584.961	1	2
586.150	1	-2
587.339	1	-3
588.528	1	5
589.717	1	2
590.905	1	14
592.094	1	6
593.283	1	-1
594.471	1	10
595.660	1	-3
596.848	1	7
598.037	1	10
599.225	1	2
600.413	1	1
601.602	1	3
602.790	1	4
603.978	1	3
605.166	1	-4
606.355	1	13
607.543	1	16
608.731	1	-3
609.919	1	0
611.107	1	-3
612.295	1	0
613.483	1	9
614.671	1	8
615.858	1	5
617.046	1	0
618.234	1	3
619.422	1	-7
620.609	1	6
621.797	1	0
622.985	1	12
624.172	1	-1
625.360	1	0
626.547	1	-10
627.735	1	-6
628.922	1	-5
630.109	1	0
631.297	1	-7
632.484	1	-7
633.671	1	16
634.858	1	10
636.045	1	6
637.232	1	1
638.419	1	-2
639.606	1	0
640.793	1	0
641.980	1	-3
643.167	1	-7
644.354	1	9
645.541	1	10
646.728	1	5
647.914	1	4
649.101	1	6
650.288	1	4
651.474	1	14
652.661	1	-2
653.847	1	0
655.034	1	1
656.220	1	1
657.406	1	0
658.593	1	7
659.779	1	1
660.965	1	16
662.152	1	3
663.338	1	10
664.524	1	7
665.710	1	3
666.896	1	4
668.082	1	1
669.268	1	8
670.454	1	2
671.640	1	7
672.826	1	7
674.011	1	7
675.197	1	1
676.383	1	5
677.569	1	3
678.754	1	0
679.940	1	-1
681.125	1	8
682.311	1	-2
683.496	1	6
684.682	1	9
685.867	1	6
687.053	1	-1
688.238	1	-2
688.746	1	-3

File: GaN_sample D_spot 18_UVVIS_170 K_200um_550 ms 2x2mm1_189.txt
340.368	1	-2
341.565	1	4
342.763	1	7
343.960	1	-1
345.157	1	2
346.354	1	-4
347.552	1	14
348.749	1	3
349.946	1	1
351.143	1	8
352.340	1	2
353.537	1	4
354.734	1	3
355.931	1	6
357.127	1	-7
358.324	1	8
359.521	1	12
360.718	1	7
361.914	1	13
363.111	1	14
364.308	1	11
365.504	1	12
366.701	1	18
367.897	1	25
369.093	1	19
370.290	1	17
371.486	1	10
372.682	1	10
373.879	1	15
375.075	1	19
376.271	1	11
377.467	1	18
378.663	1	12
379.859	1	11
381.055	1	9
382.251	1	8
383.447	1	12
384.643	1	-3
385.839	1	4
387.035	1	10
388.230	1	1
389.426	1	12
390.622	1	2
391.817	1	8
393.013	1	8
394.208	1	10
395.404	1	10
396.599	1	4
397.795	1	-5
398.990	1	-1
400.186	1	2
401.381	1	14
402.576	1	5
403.771	1	0
404.967	1	4
406.162	1	-1
407.357	1	-4
408.552	1	0
409.747	1	-2
410.942	1	-1
412.137	1	-7
413.332	1	-1
414.526	1	1
415.721	1	7
416.916	1	2
418.111	1	7
419.305	1	0
420.500	1	-2
421.695	1	-7
422.889	1	0
424.084	1	8
425.278	1	-2
426.472	1	0
427.667	1	9
428.861	1	3
430.055	1	1
431.250	1	5
432.444	1	6
433.638	1	18
434.832	1	4
436.026	1	3
437.220	1	4
438.414	1	-4
439.608	1	0
440.802	1	9
441.996	1	-3
443.190	1	-1
444.384	1	-5
445.578	1	8
446.771	1	-10
447.965	1	-2
449.159	1	-3
450.352	1	-1
451.546	1	-11
452.739	1	1
453.933	1	9
455.126	1	13
456.320	1	-2
457.513	1	5
458.706	1	3
459.899	1	-9
461.093	1	4
462.286	1	-4
463.479	1	-8
464.672	1	-2
465.865	1	2
467.058	1	1
468.251	1	6
469.444	1	4
470.637	1	-3
471.830	1	2
473.023	1	2
474.215	1	2
475.408	1	-3
476.601	1	6
477.793	1	12
478.986	1	-6
480.179	1	0
481.371	1	-4
482.564	1	-4
483.756	1	0
484.948	1	-3
486.141	1	10
487.333	1	-4
488.525	1	8
489.718	1	3
490.910	1	0
492.102	1	6
493.294	1	2
494.486	1	13
495.678	1	-3
496.870	1	0
498.062	1	-1
499.254	1	8
500.446	1	7
501.638	1	-4
502.829	1	1
504.021	1	3
505.213	1	-1
506.404	1	3
507.596	1	6
508.788	1	-2
509.979	1	5
511.171	1	0
512.362	1	6
513.553	1	11
514.745	1	-2
515.936	1	12
517.127	1	7
518.319	1	2
519.510	1	11
520.701	1	3
521.892	1	-3
523.083	1	-2
524.274	1	6
525.465	1	4
526.656	1	11
527.847	1	0
529.038	1	1
530.229	1	23
531.419	1	12
532.610	1	4
533.801	1	4
534.991	1	-2
536.182	1	3
537.373	1	0
538.563	1	-1
539.754	1	-1
540.944	1	2
542.134	1	3
543.325	1	2
544.515	1	9
545.705	1	5
546.896	1	8
548.086	1	5
549.276	1	1
550.466	1	-1
551.656	1	12
552.846	1	-2
554.036	1	9
555.226	1	1
556.416	1	5
557.606	1	5
558.796	1	-5
559.986	1	3
561.175	1	-8
562.365	1	8
563.555	1	3
564.744	1	-1
565.934	1	9
567.123	1	-3
568.313	1	-2
569.502	1	7
570.692	1	7
571.881	1	3
573.070	1	12
574.260	1	8
575.449	1	12
576.638	1	-3
577.827	1	2
579.016	1	5
580.205	1	3
581.394	1	2
582.583	1	1
583.772	1	3
584.961	1	6
586.150	1	-5
587.339	1	2
588.528	1	2
589.717	1	10
590.905	1	8
592.094	1	13
593.283	1	5
594.471	1	5
595.660	1	1
596.848	1	11
598.037	1	-7
599.225	1	5
600.413	1	3
601.602	1	0
602.790	1	14
603.978	1	7
605.166	1	-2
606.355	1	3
607.543	1	5
608.731	1	-3
609.919	1	-2
611.107	1	-5
612.295	1	-7
613.483	1	-4
614.671	1	6
615.858	1	-4
617.046	1	3
618.234	1	-4
619.422	1	-3
620.609	1	1
621.797	1	5
622.985	1	4
624.172	1	-3
625.360	1	2
626.547	1	-4
627.735	1	-5
628.922	1	-8
630.109	1	0
631.297	1	-2
632.484	1	-11
633.671	1	6
634.858	1	-5
636.045	1	8
637.232	1	3
638.419	1	-4
639.606	1	4
640.793	1	6
641.980	1	-6
643.167	1	-4
644.354	1	0
645.541	1	5
646.728	1	0
647.914	1	1
649.101	1	0
650.288	1	0
651.474	1	2
652.661	1	3
653.847	1	-7
655.034	1	-4
656.220	1	0
657.406	1	-3
658.593	1	6
659.779	1	5
660.965	1	6
662.152	1	-3
663.338	1	13
664.524	1	8
665.710	1	0
666.896	1	6
668.082	1	11
669.268	1	-1
670.454	1	-2
671.640	1	4
672.826	1	-2
674.011	1	10
675.197	1	6
676.383	1	1
677.569	1	-5
678.754	1	4
679.940	1	7
681.125	1	5
682.311	1	3
683.496	1	9
684.682	1	4
685.867	1	8
687.053	1	-6
688.238	1	3
688.746	1	-8

File: GaN_sample D_spot 18_UVVIS_170 K_200um_550 ms 2x2mm1_190.txt
340.368	1	3
341.565	1	9
342.763	1	7
343.960	1	2
345.157	1	-3
346.354	1	-3
347.552	1	9
348.749	1	6
349.946	1	6
351.143	1	5
352.340	1	4
353.537	1	7
354.734	1	5
355.931	1	2
357.127	1	1
358.324	1	11
359.521	1	9
360.718	1	13
361.914	1	9
363.111	1	25
364.308	1	18
365.504	1	9
366.701	1	24
367.897	1	17
369.093	1	20
370.290	1	14
371.486	1	10
372.682	1	18
373.879	1	17
375.075	1	11
376.271	1	14
377.467	1	8
378.663	1	8
379.859	1	6
381.055	1	-1
382.251	1	9
383.447	1	16
384.643	1	3
385.839	1	4
387.035	1	11
388.230	1	2
389.426	1	6
390.622	1	2
391.817	1	2
393.013	1	1
394.208	1	12
395.404	1	-1
396.599	1	-1
397.795	1	-3
398.990	1	-9
400.186	1	9
401.381	1	8
402.576	1	0
403.771	1	0
404.967	1	8
406.162	1	7
407.357	1	-5
408.552	1	-6
409.747	1	6
410.942	1	7
412.137	1	-2
413.332	1	-7
414.526	1	4
415.721	1	-11
416.916	1	-9
418.111	1	7
419.305	1	-3
420.500	1	-8
421.695	1	-9
422.889	1	-1
424.084	1	17
425.278	1	0
426.472	1	6
427.667	1	-6
428.861	1	-3
430.055	1	0
431.250	1	11
432.444	1	3
433.638	1	13
434.832	1	3
436.026	1	-11
437.220	1	4
438.414	1	0
439.608	1	-5
440.802	1	2
441.996	1	-4
443.190	1	4
444.384	1	3
445.578	1	7
446.771	1	-6
447.965	1	-1
449.159	1	7
450.352	1	-5
451.546	1	-6
452.739	1	8
453.933	1	4
455.126	1	10
456.320	1	-2
457.513	1	11
458.706	1	11
459.899	1	6
461.093	1	7
462.286	1	-10
463.479	1	3
464.672	1	2
465.865	1	2
467.058	1	5
468.251	1	12
469.444	1	1
470.637	1	-2
471.830	1	3
473.023	1	5
474.215	1	-4
475.408	1	0
476.601	1	5
477.793	1	3
478.986	1	-8
480.179	1	-4
481.371	1	4
482.564	1	3
483.756	1	0
484.948	1	7
486.141	1	12
487.333	1	0
488.525	1	9
489.718	1	4
490.910	1	6
492.102	1	8
493.294	1	6
494.486	1	11
495.678	1	10
496.870	1	8
498.062	1	-12
499.254	1	10
500.446	1	3
501.638	1	-9
502.829	1	5
504.021	1	9
505.213	1	-1
506.404	1	7
507.596	1	10
508.788	1	0
509.979	1	6
511.171	1	15
512.362	1	-3
513.553	1	5
514.745	1	-2
515.936	1	0
517.127	1	0
518.319	1	6
519.510	1	11
520.701	1	9
521.892	1	3
523.083	1	2
524.274	1	4
525.465	1	8
526.656	1	12
527.847	1	1
529.038	1	-3
530.229	1	19
531.419	1	9
532.610	1	5
533.801	1	0
534.991	1	-3
536.182	1	-1
537.373	1	-5
538.563	1	6
539.754	1	-2
540.944	1	0
542.134	1	-1
543.325	1	4
544.515	1	5
545.705	1	6
546.896	1	1
548.086	1	-1
549.276	1	1
550.466	1	0
551.656	1	17
552.846	1	4
554.036	1	7
555.226	1	-8
556.416	1	1
557.606	1	-2
558.796	1	-1
559.986	1	5
561.175	1	-4
562.365	1	3
563.555	1	-1
564.744	1	5
565.934	1	0
567.123	1	10
568.313	1	6
569.502	1	-7
570.692	1	5
571.881	1	-6
573.070	1	4
574.260	1	6
575.449	1	1
576.638	1	-2
577.827	1	-1
579.016	1	0
580.205	1	-3
581.394	1	-5
582.583	1	5
583.772	1	1
584.961	1	-4
586.150	1	-4
587.339	1	-12
588.528	1	-7
589.717	1	2
590.905	1	5
592.094	1	11
593.283	1	5
594.471	1	2
595.660	1	4
596.848	1	9
598.037	1	1
599.225	1	11
600.413	1	-8
601.602	1	-2
602.790	1	10
603.978	1	5
605.166	1	6
606.355	1	11
607.543	1	5
608.731	1	10
609.919	1	-3
611.107	1	-3
612.295	1	3
613.483	1	1
614.671	1	6
615.858	1	-2
617.046	1	-6
618.234	1	5
619.422	1	-1
620.609	1	7
621.797	1	-4
622.985	1	10
624.172	1	0
625.360	1	0
626.547	1	-1
627.735	1	-7
628.922	1	-6
630.109	1	3
631.297	1	-3
632.484	1	-4
633.671	1	6
634.858	1	-2
636.045	1	6
637.232	1	1
638.419	1	0
639.606	1	-3
640.793	1	4
641.980	1	2
643.167	1	0
644.354	1	-6
645.541	1	-1
646.728	1	-3
647.914	1	-1
649.101	1	-3
650.288	1	-2
651.474	1	10
652.661	1	6
653.847	1	6
655.034	1	1
656.220	1	-5
657.406	1	8
658.593	1	1
659.779	1	4
660.965	1	13
662.152	1	-4
663.338	1	7
664.524	1	6
665.710	1	0
666.896	1	8
668.082	1	5
669.268	1	2
670.454	1	-14
671.640	1	3
672.826	1	0
674.011	1	8
675.197	1	7
676.383	1	-3
677.569	1	-9
678.754	1	6
679.940	1	2
681.125	1	6
682.311	1	-5
683.496	1	-8
684.682	1	5
685.867	1	10
687.053	1	-15
688.238	1	-3
688.746	1	-7

File: GaN_sample D_spot 18_UVVIS_170 K_200um_550 ms 2x2mm1_192.txt
340.368	1	0
341.565	1	-1
342.763	1	1
343.960	1	-5
345.157	1	-2
346.354	1	-1
347.552	1	14
348.749	1	-3
349.946	1	5
351.143	1	0
352.340	1	-1
353.537	1	1
354.734	1	13
355.931	1	1
357.127	1	3
358.324	1	3
359.521	1	9
360.718	1	9
361.914	1	10
363.111	1	15
364.308	1	14
365.504	1	17
366.701	1	17
367.897	1	17
369.093	1	18
370.290	1	15
371.486	1	10
372.682	1	28
373.879	1	17
375.075	1	6
376.271	1	19
377.467	1	10
378.663	1	11
379.859	1	15
381.055	1	11
382.251	1	6
383.447	1	12
384.643	1	1
385.839	1	3
387.035	1	5
388.230	1	10
389.426	1	9
390.622	1	-2
391.817	1	8
393.013	1	0
394.208	1	7
395.404	1	10
396.599	1	0
397.795	1	4
398.990	1	-9
400.186	1	-5
401.381	1	9
402.576	1	3
403.771	1	-2
404.967	1	5
406.162	1	7
407.357	1	-3
408.552	1	3
409.747	1	-9
410.942	1	3
412.137	1	0
413.332	1	-6
414.526	1	2
415.721	1	4
416.916	1	-9
418.111	1	5
419.305	1	4
420.500	1	3
421.695	1	-4
422.889	1	-5
424.084	1	21
425.278	1	-7
426.472	1	3
427.667	1	6
428.861	1	6
430.055	1	1
431.250	1	5
432.444	1	7
433.638	1	11
434.832	1	4
436.026	1	4
437.220	1	-4
438.414	1	-7
439.608	1	-2
440.802	1	4
441.996	1	0
443.190	1	-1
444.384	1	12
445.578	1	6
446.771	1	-9
447.965	1	3
449.159	1	-2
450.352	1	-1
451.546	1	-6
452.739	1	-2
453.933	1	3
455.126	1	14
456.320	1	0
457.513	1	8
458.706	1	4
459.899	1	2
461.093	1	13
462.286	1	-3
463.479	1	-13
464.672	1	-12
465.865	1	0
467.058	1	4
468.251	1	5
469.444	1	-4
470.637	1	3
471.830	1	-5
473.023	1	0
474.215	1	-5
475.408	1	1
476.601	1	-1
477.793	1	9
478.986	1	-2
480.179	1	-9
481.371	1	0
482.564	1	-8
483.756	1	-7
484.948	1	-5
486.141	1	2
487.333	1	-3
488.525	1	12
489.718	1	3
490.910	1	2
492.102	1	0
493.294	1	4
494.486	1	9
495.678	1	-3
496.870	1	7
498.062	1	2
499.254	1	5
500.446	1	-2
501.638	1	-4
502.829	1	8
504.021	1	2
505.213	1	5
506.404	1	4
507.596	1	-3
508.788	1	-6
509.979	1	10
511.171	1	2
512.362	1	2
513.553	1	-6
514.745	1	3
515.936	1	-1
517.127	1	8
518.319	1	8
519.510	1	5
520.701	1	-4
521.892	1	2
523.083	1	-2
524.274	1	3
525.465	1	12
526.656	1	-1
527.847	1	4
529.038	1	0
530.229	1	15
531.419	1	5
532.610	1	7
533.801	1	3
534.991	1	5
536.182	1	4
537.373	1	2
538.563	1	-2
539.754	1	-3
540.944	1	-1
542.134	1	3
543.325	1	8
544.515	1	4
545.705	1	14
546.896	1	1
548.086	1	5
549.276	1	8
550.466	1	0
551.656	1	2
552.846	1	7
554.036	1	6
555.226	1	-3
556.416	1	-3
557.606	1	7
558.796	1	6
559.986	1	6
561.175	1	-3
562.365	1	5
563.555	1	-3
564.744	1	-4
565.934	1	5
567.123	1	-3
568.313	1	5
569.502	1	-5
570.692	1	2
571.881	1	-4
573.070	1	8
574.260	1	1
575.449	1	8
576.638	1	4
577.827	1	5
579.016	1	6
580.205	1	1
581.394	1	2
582.583	1	-8
583.772	1	3
584.961	1	3
586.150	1	-3
587.339	1	0
588.528	1	-2
589.717	1	5
590.905	1	16
592.094	1	-2
593.283	1	7
594.471	1	11
595.660	1	-2
596.848	1	4
598.037	1	-8
599.225	1	3
600.413	1	3
601.602	1	4
602.790	1	14
603.978	1	5
605.166	1	5
606.355	1	9
607.543	1	14
608.731	1	8
609.919	1	2
611.107	1	3
612.295	1	2
613.483	1	-6
614.671	1	11
615.858	1	-4
617.046	1	-8
618.234	1	-5
619.422	1	-2
620.609	1	7
621.797	1	8
622.985	1	6
624.172	1	2
625.360	1	1
626.547	1	5
627.735	1	-11
628.922	1	-2
630.109	1	3
631.297	1	-2
632.484	1	5
633.671	1	11
634.858	1	-2
636.045	1	4
637.232	1	3
638.419	1	-3
639.606	1	-5
640.793	1	-11
641.980	1	1
643.167	1	5
644.354	1	6
645.541	1	5
646.728	1	1
647.914	1	5
649.101	1	2
650.288	1	-2
651.474	1	6
652.661	1	6
653.847	1	2
655.034	1	-4
656.220	1	6
657.406	1	-3
658.593	1	2
659.779	1	7
660.965	1	7
662.152	1	6
663.338	1	11
664.524	1	5
665.710	1	7
666.896	1	-1
668.082	1	10
669.268	1	-6
670.454	1	-3
671.640	1	12
672.826	1	2
674.011	1	5
675.197	1	9
676.383	1	4
677.569	1	-2
678.754	1	7
679.940	1	8
681.125	1	7
682.311	1	-8
683.496	1	2
684.682	1	6
685.867	1	9
687.053	1	-9
688.238	1	-5
688.746	1	3

File: GaN_sample D_spot 18_UVVIS_170 K_200um_550 ms 2x2mm1_193.txt
340.368	1	-2
341.565	1	-3
342.763	1	7
343.960	1	-5
345.157	1	2
346.354	1	0
347.552	1	12
348.749	1	2
349.946	1	6
351.143	1	-3
352.340	1	3
353.537	1	6
354.734	1	2
355.931	1	9
357.127	1	4
358.324	1	5
359.521	1	13
360.718	1	5
361.914	1	0
363.111	1	20
364.308	1	8
365.504	1	0
366.701	1	13
367.897	1	17
369.093	1	9
370.290	1	14
371.486	1	12
372.682	1	6
373.879	1	15
375.075	1	6
376.271	1	16
377.467	1	16
378.663	1	9
379.859	1	-2
381.055	1	11
382.251	1	6
383.447	1	13
384.643	1	5
385.839	1	-1
387.035	1	12
388.230	1	1
389.426	1	5
390.622	1	-3
391.817	1	-2
393.013	1	8
394.208	1	4
395.404	1	6
396.599	1	0
397.795	1	-3
398.990	1	-5
400.186	1	1
401.381	1	13
402.576	1	7
403.771	1	5
404.967	1	0
406.162	1	3
407.357	1	4
408.552	1	-6
409.747	1	-7
410.942	1	4
412.137	1	-5
413.332	1	5
414.526	1	-2
415.721	1	6
416.916	1	-10
418.111	1	7
419.305	1	4
420.500	1	2
421.695	1	-6
422.889	1	5
424.084	1	17
425.278	1	-5
426.472	1	-6
427.667	1	-1
428.861	1	1
430.055	1	3
431.250	1	9
432.444	1	2
433.638	1	5
434.832	1	6
436.026	1	0
437.220	1	-1
438.414	1	-11
439.608	1	0
440.802	1	17
441.996	1	-8
443.190	1	0
444.384	1	0
445.578	1	4
446.771	1	-7
447.965	1	2
449.159	1	-3
450.352	1	-9
451.546	1	-1
452.739	1	0
453.933	1	2
455.126	1	16
456.320	1	6
457.513	1	-3
458.706	1	6
459.899	1	5
461.093	1	6
462.286	1	-2
463.479	1	2
464.672	1	-11
465.865	1	-8
467.058	1	4
468.251	1	3
469.444	1	-5
470.637	1	-3
471.830	1	7
473.023	1	4
474.215	1	-2
475.408	1	-7
476.601	1	5
477.793	1	11
478.986	1	4
480.179	1	2
481.371	1	1
482.564	1	-3
483.756	1	9
484.948	1	-1
486.141	1	7
487.333	1	-3
488.525	1	10
489.718	1	14
490.910	1	-3
492.102	1	1
493.294	1	-8
494.486	1	8
495.678	1	6
496.870	1	-3
498.062	1	5
499.254	1	10
500.446	1	3
501.638	1	-6
502.829	1	1
504.021	1	4
505.213	1	2
506.404	1	2
507.596	1	7
508.788	1	-5
509.979	1	6
511.171	1	1
512.362	1	4
513.553	1	6
514.745	1	8
515.936	1	12
517.127	1	9
518.319	1	9
519.510	1	4
520.701	1	3
521.892	1	4
523.083	1	6
524.274	1	10
525.465	1	4
526.656	1	6
527.847	1	4
529.038	1	-4
530.229	1	13
531.419	1	17
532.610	1	7
533.801	1	10
534.991	1	1
536.182	1	6
537.373	1	-1
538.563	1	7
539.754	1	-3
540.944	1	0
542.134	1	-1
543.325	1	5
544.515	1	0
545.705	1	6
546.896	1	11
548.086	1	12
549.276	1	11
550.466	1	-1
551.656	1	2
552.846	1	2
554.036	1	6
555.226	1	-7
556.416	1	5
557.606	1	15
558.796	1	7
559.986	1	6
561.175	1	-15
562.365	1	6
563.555	1	-3
564.744	1	7
565.934	1	4
567.123	1	-4
568.313	1	-4
569.502	1	1
570.692	1	6
571.881	1	-4
573.070	1	0
574.260	1	11
575.449	1	-2
576.638	1	8
577.827	1	-1
579.016	1	17
580.205	1	-4
581.394	1	-4
582.583	1	-2
583.772	1	-2
584.961	1	-3
586.150	1	-4
587.339	1	-3
588.528	1	0
589.717	1	2
590.905	1	10
592.094	1	3
593.283	1	5
594.471	1	9
595.660	1	-3
596.848	1	-1
598.037	1	-3
599.225	1	6
600.413	1	-7
601.602	1	5
602.790	1	4
603.978	1	6
605.166	1	7
606.355	1	9
607.543	1	16
608.731	1	8
609.919	1	2
611.107	1	-2
612.295	1	-2
613.483	1	0
614.671	1	9
615.858	1	3
617.046	1	9
618.234	1	-2
619.422	1	-8
620.609	1	3
621.797	1	-5
622.985	1	5
624.172	1	6
625.360	1	-3
626.547	1	-1
627.735	1	-8
628.922	1	-6
630.109	1	6
631.297	1	-5
632.484	1	-2
633.671	1	6
634.858	1	-2
636.045	1	13
637.232	1	4
638.419	1	-5
639.606	1	-4
640.793	1	3
641.980	1	-8
643.167	1	6
644.354	1	-5
645.541	1	5
646.728	1	7
647.914	1	-3
649.101	1	6
650.288	1	-3
651.474	1	6
652.661	1	5
653.847	1	4
655.034	1	-3
656.220	1	2
657.406	1	-3
658.593	1	2
659.779	1	-7
660.965	1	9
662.152	1	3
663.338	1	4
664.524	1	-5
665.710	1	2
666.896	1	2
668.082	1	8
669.268	1	-5
670.454	1	-8
671.640	1	5
672.826	1	2
674.011	1	4
675.197	1	2
676.383	1	0
677.569	1	-3
678.754	1	8
679.940	1	1
681.125	1	5
682.311	1	5
683.496	1	4
684.682	1	-5
685.867	1	3
687.053	1	-7
688.238	1	-1
688.746	1	-2