Folder: cryo-il_analysis/Data/GaN_130K_350ms (part 23)

File: GaN_sample F_spot6_UVVIS_130 K_200um_350 ms 2x2mm1_278.txt
340.368	1	3
341.565	1	-1
342.763	1	6
343.960	1	-12
345.157	1	-1
346.354	1	7
347.552	1	-6
348.749	1	1
349.946	1	5
351.143	1	-1
352.340	1	9
353.537	1	6
354.734	1	-2
355.931	1	4
357.127	1	6
358.324	1	-4
359.521	1	-1
360.718	1	4
361.914	1	8
363.111	1	10
364.308	1	6
365.504	1	8
366.701	1	6
367.897	1	9
369.093	1	5
370.290	1	12
371.486	1	12
372.682	1	12
373.879	1	3
375.075	1	15
376.271	1	7
377.467	1	14
378.663	1	5
379.859	1	3
381.055	1	3
382.251	1	0
383.447	1	8
384.643	1	2
385.839	1	5
387.035	1	11
388.230	1	2
389.426	1	6
390.622	1	-3
391.817	1	2
393.013	1	2
394.208	1	-6
395.404	1	-11
396.599	1	7
397.795	1	-4
398.990	1	6
400.186	1	5
401.381	1	-1
402.576	1	4
403.771	1	11
404.967	1	2
406.162	1	-5
407.357	1	-2
408.552	1	7
409.747	1	-1
410.942	1	-1
412.137	1	-3
413.332	1	-2
414.526	1	5
415.721	1	10
416.916	1	-2
418.111	1	6
419.305	1	-1
420.500	1	6
421.695	1	-2
422.889	1	3
424.084	1	4
425.278	1	-7
426.472	1	1
427.667	1	9
428.861	1	-3
430.055	1	-4
431.250	1	9
432.444	1	2
433.638	1	8
434.832	1	1
436.026	1	6
437.220	1	-7
438.414	1	-4
439.608	1	14
440.802	1	0
441.996	1	8
443.190	1	6
444.384	1	-2
445.578	1	1
446.771	1	13
447.965	1	1
449.159	1	5
450.352	1	12
451.546	1	10
452.739	1	1
453.933	1	6
455.126	1	-10
456.320	1	4
457.513	1	0
458.706	1	6
459.899	1	-2
461.093	1	4
462.286	1	6
463.479	1	6
464.672	1	1
465.865	1	-4
467.058	1	11
468.251	1	4
469.444	1	6
470.637	1	-3
471.830	1	4
473.023	1	5
474.215	1	4
475.408	1	7
476.601	1	0
477.793	1	-2
478.986	1	-4
480.179	1	-4
481.371	1	4
482.564	1	-3
483.756	1	-1
484.948	1	-1
486.141	1	3
487.333	1	-8
488.525	1	7
489.718	1	3
490.910	1	-5
492.102	1	5
493.294	1	7
494.486	1	18
495.678	1	0
496.870	1	0
498.062	1	-8
499.254	1	5
500.446	1	4
501.638	1	6
502.829	1	1
504.021	1	7
505.213	1	4
506.404	1	1
507.596	1	-1
508.788	1	-1
509.979	1	-6
511.171	1	10
512.362	1	4
513.553	1	4
514.745	1	-2
515.936	1	14
517.127	1	5
518.319	1	-8
519.510	1	1
520.701	1	-13
521.892	1	5
523.083	1	6
524.274	1	0
525.465	1	9
526.656	1	4
527.847	1	-4
529.038	1	-3
530.229	1	3
531.419	1	6
532.610	1	2
533.801	1	11
534.991	1	3
536.182	1	7
537.373	1	3
538.563	1	8
539.754	1	0
540.944	1	10
542.134	1	3
543.325	1	8
544.515	1	-2
545.705	1	2
546.896	1	2
548.086	1	0
549.276	1	-3
550.466	1	11
551.656	1	-3
552.846	1	-3
554.036	1	8
555.226	1	-1
556.416	1	7
557.606	1	-1
558.796	1	8
559.986	1	4
561.175	1	10
562.365	1	1
563.555	1	6
564.744	1	1
565.934	1	3
567.123	1	-1
568.313	1	-7
569.502	1	8
570.692	1	3
571.881	1	-3
573.070	1	-5
574.260	1	3
575.449	1	3
576.638	1	4
577.827	1	-1
579.016	1	5
580.205	1	1
581.394	1	2
582.583	1	14
583.772	1	7
584.961	1	6
586.150	1	11
587.339	1	2
588.528	1	10
589.717	1	1
590.905	1	15
592.094	1	5
593.283	1	-9
594.471	1	-7
595.660	1	-3
596.848	1	2
598.037	1	8
599.225	1	0
600.413	1	6
601.602	1	1
602.790	1	4
603.978	1	3
605.166	1	4
606.355	1	4
607.543	1	-3
608.731	1	-2
609.919	1	4
611.107	1	9
612.295	1	15
613.483	1	-2
614.671	1	1
615.858	1	-2
617.046	1	6
618.234	1	-7
619.422	1	6
620.609	1	-8
621.797	1	-3
622.985	1	1
624.172	1	-5
625.360	1	-4
626.547	1	-2
627.735	1	11
628.922	1	2
630.109	1	9
631.297	1	-2
632.484	1	-10
633.671	1	-7
634.858	1	6
636.045	1	18
637.232	1	0
638.419	1	0
639.606	1	10
640.793	1	-10
641.980	1	-7
643.167	1	-2
644.354	1	-1
645.541	1	1
646.728	1	-2
647.914	1	-4
649.101	1	-10
650.288	1	10
651.474	1	4
652.661	1	4
653.847	1	-10
655.034	1	4
656.220	1	8
657.406	1	10
658.593	1	3
659.779	1	4
660.965	1	5
662.152	1	-5
663.338	1	-5
664.524	1	-14
665.710	1	-1
666.896	1	9
668.082	1	3
669.268	1	-2
670.454	1	3
671.640	1	-10
672.826	1	4
674.011	1	-3
675.197	1	0
676.383	1	0
677.569	1	-1
678.754	1	6
679.940	1	-5
681.125	1	7
682.311	1	-9
683.496	1	0
684.682	1	-2
685.867	1	1
687.053	1	3
688.238	1	11
688.746	1	12

File: GaN_sample F_spot6_UVVIS_130 K_200um_350 ms 2x2mm1_279.txt
340.368	1	-1
341.565	1	-2
342.763	1	-2
343.960	1	-14
345.157	1	-18
346.354	1	-3
347.552	1	2
348.749	1	11
349.946	1	1
351.143	1	3
352.340	1	11
353.537	1	5
354.734	1	4
355.931	1	-4
357.127	1	7
358.324	1	-4
359.521	1	-1
360.718	1	1
361.914	1	2
363.111	1	14
364.308	1	7
365.504	1	8
366.701	1	18
367.897	1	8
369.093	1	8
370.290	1	11
371.486	1	12
372.682	1	13
373.879	1	11
375.075	1	11
376.271	1	2
377.467	1	13
378.663	1	3
379.859	1	4
381.055	1	6
382.251	1	6
383.447	1	3
384.643	1	8
385.839	1	2
387.035	1	15
388.230	1	-7
389.426	1	3
390.622	1	6
391.817	1	2
393.013	1	4
394.208	1	-7
395.404	1	1
396.599	1	11
397.795	1	5
398.990	1	0
400.186	1	-4
401.381	1	7
402.576	1	-4
403.771	1	13
404.967	1	-2
406.162	1	-2
407.357	1	12
408.552	1	-1
409.747	1	6
410.942	1	12
412.137	1	1
413.332	1	-6
414.526	1	4
415.721	1	4
416.916	1	9
418.111	1	4
419.305	1	2
420.500	1	2
421.695	1	-2
422.889	1	5
424.084	1	12
425.278	1	6
426.472	1	4
427.667	1	5
428.861	1	0
430.055	1	-2
431.250	1	5
432.444	1	8
433.638	1	3
434.832	1	4
436.026	1	2
437.220	1	-11
438.414	1	-1
439.608	1	14
440.802	1	-7
441.996	1	8
443.190	1	-1
444.384	1	-9
445.578	1	1
446.771	1	10
447.965	1	0
449.159	1	7
450.352	1	3
451.546	1	10
452.739	1	-4
453.933	1	1
455.126	1	-3
456.320	1	-3
457.513	1	-6
458.706	1	6
459.899	1	7
461.093	1	11
462.286	1	10
463.479	1	5
464.672	1	0
465.865	1	-8
467.058	1	5
468.251	1	14
469.444	1	3
470.637	1	5
471.830	1	9
473.023	1	3
474.215	1	6
475.408	1	14
476.601	1	-6
477.793	1	7
478.986	1	2
480.179	1	-4
481.371	1	5
482.564	1	1
483.756	1	1
484.948	1	6
486.141	1	4
487.333	1	3
488.525	1	14
489.718	1	8
490.910	1	-7
492.102	1	10
493.294	1	1
494.486	1	14
495.678	1	6
496.870	1	-4
498.062	1	-9
499.254	1	7
500.446	1	3
501.638	1	9
502.829	1	-1
504.021	1	-1
505.213	1	1
506.404	1	-2
507.596	1	3
508.788	1	9
509.979	1	-3
511.171	1	6
512.362	1	-3
513.553	1	3
514.745	1	0
515.936	1	17
517.127	1	-2
518.319	1	-1
519.510	1	-6
520.701	1	2
521.892	1	13
523.083	1	11
524.274	1	-8
525.465	1	3
526.656	1	9
527.847	1	6
529.038	1	-1
530.229	1	4
531.419	1	2
532.610	1	3
533.801	1	18
534.991	1	1
536.182	1	6
537.373	1	6
538.563	1	13
539.754	1	-1
540.944	1	0
542.134	1	8
543.325	1	0
544.515	1	8
545.705	1	0
546.896	1	5
548.086	1	-7
549.276	1	-2
550.466	1	0
551.656	1	1
552.846	1	7
554.036	1	-8
555.226	1	8
556.416	1	7
557.606	1	6
558.796	1	9
559.986	1	2
561.175	1	4
562.365	1	15
563.555	1	6
564.744	1	-1
565.934	1	-3
567.123	1	5
568.313	1	-1
569.502	1	-4
570.692	1	3
571.881	1	7
573.070	1	-4
574.260	1	0
575.449	1	-1
576.638	1	0
577.827	1	-4
579.016	1	-3
580.205	1	-10
581.394	1	3
582.583	1	6
583.772	1	4
584.961	1	8
586.150	1	9
587.339	1	-4
588.528	1	15
589.717	1	9
590.905	1	8
592.094	1	-6
593.283	1	-10
594.471	1	6
595.660	1	-2
596.848	1	4
598.037	1	-1
599.225	1	7
600.413	1	1
601.602	1	-8
602.790	1	2
603.978	1	1
605.166	1	5
606.355	1	9
607.543	1	1
608.731	1	5
609.919	1	13
611.107	1	15
612.295	1	-1
613.483	1	0
614.671	1	5
615.858	1	-4
617.046	1	12
618.234	1	7
619.422	1	1
620.609	1	-9
621.797	1	-6
622.985	1	2
624.172	1	0
625.360	1	4
626.547	1	3
627.735	1	2
628.922	1	-4
630.109	1	7
631.297	1	-2
632.484	1	-2
633.671	1	-1
634.858	1	5
636.045	1	17
637.232	1	-7
638.419	1	0
639.606	1	11
640.793	1	-10
641.980	1	-5
643.167	1	0
644.354	1	-9
645.541	1	3
646.728	1	4
647.914	1	-2
649.101	1	-5
650.288	1	7
651.474	1	-2
652.661	1	4
653.847	1	-1
655.034	1	1
656.220	1	0
657.406	1	2
658.593	1	1
659.779	1	7
660.965	1	8
662.152	1	3
663.338	1	-1
664.524	1	-4
665.710	1	6
666.896	1	2
668.082	1	-2
669.268	1	3
670.454	1	-1
671.640	1	-6
672.826	1	3
674.011	1	5
675.197	1	2
676.383	1	7
677.569	1	4
678.754	1	4
679.940	1	2
681.125	1	6
682.311	1	-8
683.496	1	-6
684.682	1	3
685.867	1	-2
687.053	1	3
688.238	1	9
688.746	1	6

File: GaN_sample F_spot6_UVVIS_130 K_200um_350 ms 2x2mm1_282.txt
340.368	1	9
341.565	1	-2
342.763	1	-4
343.960	1	-14
345.157	1	-11
346.354	1	-3
347.552	1	-1
348.749	1	2
349.946	1	12
351.143	1	0
352.340	1	13
353.537	1	-7
354.734	1	-7
355.931	1	10
357.127	1	4
358.324	1	-6
359.521	1	-4
360.718	1	4
361.914	1	-1
363.111	1	16
364.308	1	20
365.504	1	9
366.701	1	3
367.897	1	6
369.093	1	15
370.290	1	14
371.486	1	8
372.682	1	2
373.879	1	10
375.075	1	14
376.271	1	9
377.467	1	14
378.663	1	5
379.859	1	-1
381.055	1	4
382.251	1	2
383.447	1	8
384.643	1	11
385.839	1	5
387.035	1	15
388.230	1	3
389.426	1	16
390.622	1	4
391.817	1	15
393.013	1	6
394.208	1	-8
395.404	1	1
396.599	1	14
397.795	1	-5
398.990	1	7
400.186	1	-1
401.381	1	2
402.576	1	2
403.771	1	10
404.967	1	4
406.162	1	-4
407.357	1	1
408.552	1	-1
409.747	1	4
410.942	1	4
412.137	1	-8
413.332	1	-2
414.526	1	6
415.721	1	3
416.916	1	-1
418.111	1	9
419.305	1	0
420.500	1	4
421.695	1	4
422.889	1	2
424.084	1	5
425.278	1	3
426.472	1	4
427.667	1	5
428.861	1	0
430.055	1	5
431.250	1	1
432.444	1	5
433.638	1	3
434.832	1	6
436.026	1	5
437.220	1	5
438.414	1	-6
439.608	1	13
440.802	1	-2
441.996	1	12
443.190	1	8
444.384	1	-4
445.578	1	-5
446.771	1	9
447.965	1	3
449.159	1	4
450.352	1	5
451.546	1	8
452.739	1	2
453.933	1	1
455.126	1	-8
456.320	1	-3
457.513	1	-3
458.706	1	8
459.899	1	-1
461.093	1	8
462.286	1	2
463.479	1	5
464.672	1	6
465.865	1	-4
467.058	1	8
468.251	1	6
469.444	1	-1
470.637	1	-2
471.830	1	2
473.023	1	1
474.215	1	15
475.408	1	2
476.601	1	-1
477.793	1	1
478.986	1	-5
480.179	1	-7
481.371	1	8
482.564	1	-6
483.756	1	1
484.948	1	-5
486.141	1	2
487.333	1	0
488.525	1	3
489.718	1	9
490.910	1	-7
492.102	1	13
493.294	1	13
494.486	1	13
495.678	1	1
496.870	1	9
498.062	1	-8
499.254	1	-1
500.446	1	4
501.638	1	2
502.829	1	8
504.021	1	4
505.213	1	9
506.404	1	-1
507.596	1	3
508.788	1	-6
509.979	1	-3
511.171	1	12
512.362	1	3
513.553	1	9
514.745	1	0
515.936	1	10
517.127	1	5
518.319	1	0
519.510	1	1
520.701	1	1
521.892	1	10
523.083	1	11
524.274	1	-5
525.465	1	15
526.656	1	2
527.847	1	3
529.038	1	-2
530.229	1	11
531.419	1	10
532.610	1	1
533.801	1	15
534.991	1	10
536.182	1	4
537.373	1	6
538.563	1	18
539.754	1	4
540.944	1	-6
542.134	1	-10
543.325	1	5
544.515	1	-2
545.705	1	-4
546.896	1	9
548.086	1	-8
549.276	1	-3
550.466	1	15
551.656	1	5
552.846	1	6
554.036	1	1
555.226	1	-1
556.416	1	3
557.606	1	10
558.796	1	7
559.986	1	2
561.175	1	8
562.365	1	0
563.555	1	6
564.744	1	7
565.934	1	3
567.123	1	6
568.313	1	-3
569.502	1	-5
570.692	1	11
571.881	1	5
573.070	1	2
574.260	1	5
575.449	1	6
576.638	1	7
577.827	1	1
579.016	1	-1
580.205	1	3
581.394	1	3
582.583	1	3
583.772	1	5
584.961	1	-2
586.150	1	13
587.339	1	1
588.528	1	9
589.717	1	5
590.905	1	8
592.094	1	5
593.283	1	-7
594.471	1	-3
595.660	1	12
596.848	1	5
598.037	1	-1
599.225	1	2
600.413	1	4
601.602	1	1
602.790	1	-5
603.978	1	-1
605.166	1	2
606.355	1	6
607.543	1	-3
608.731	1	1
609.919	1	10
611.107	1	10
612.295	1	-2
613.483	1	-7
614.671	1	-2
615.858	1	-3
617.046	1	7
618.234	1	0
619.422	1	4
620.609	1	-8
621.797	1	3
622.985	1	7
624.172	1	-2
625.360	1	-1
626.547	1	1
627.735	1	15
628.922	1	-10
630.109	1	10
631.297	1	-4
632.484	1	-10
633.671	1	6
634.858	1	9
636.045	1	12
637.232	1	-7
638.419	1	8
639.606	1	5
640.793	1	-9
641.980	1	0
643.167	1	6
644.354	1	0
645.541	1	8
646.728	1	10
647.914	1	-9
649.101	1	-4
650.288	1	17
651.474	1	4
652.661	1	7
653.847	1	5
655.034	1	3
656.220	1	-11
657.406	1	1
658.593	1	-7
659.779	1	-4
660.965	1	1
662.152	1	-2
663.338	1	8
664.524	1	1
665.710	1	5
666.896	1	2
668.082	1	-7
669.268	1	-2
670.454	1	5
671.640	1	-4
672.826	1	3
674.011	1	0
675.197	1	-4
676.383	1	6
677.569	1	-4
678.754	1	3
679.940	1	-7
681.125	1	4
682.311	1	-6
683.496	1	-5
684.682	1	4
685.867	1	6
687.053	1	0
688.238	1	3
688.746	1	8

File: GaN_sample F_spot6_UVVIS_130 K_200um_350 ms 2x2mm1_283.txt
340.368	1	5
341.565	1	3
342.763	1	-1
343.960	1	-4
345.157	1	-13
346.354	1	4
347.552	1	-10
348.749	1	0
349.946	1	6
351.143	1	-3
352.340	1	7
353.537	1	2
354.734	1	1
355.931	1	-10
357.127	1	6
358.324	1	0
359.521	1	-13
360.718	1	9
361.914	1	8
363.111	1	13
364.308	1	15
365.504	1	11
366.701	1	9
367.897	1	8
369.093	1	16
370.290	1	10
371.486	1	6
372.682	1	10
373.879	1	7
375.075	1	15
376.271	1	6
377.467	1	18
378.663	1	-7
379.859	1	0
381.055	1	3
382.251	1	3
383.447	1	7
384.643	1	7
385.839	1	3
387.035	1	11
388.230	1	0
389.426	1	10
390.622	1	1
391.817	1	5
393.013	1	8
394.208	1	-2
395.404	1	-6
396.599	1	7
397.795	1	-5
398.990	1	7
400.186	1	-1
401.381	1	3
402.576	1	-5
403.771	1	0
404.967	1	3
406.162	1	5
407.357	1	-3
408.552	1	2
409.747	1	-2
410.942	1	3
412.137	1	0
413.332	1	2
414.526	1	12
415.721	1	0
416.916	1	3
418.111	1	8
419.305	1	1
420.500	1	5
421.695	1	-1
422.889	1	1
424.084	1	5
425.278	1	0
426.472	1	-3
427.667	1	6
428.861	1	3
430.055	1	-5
431.250	1	9
432.444	1	10
433.638	1	0
434.832	1	2
436.026	1	-4
437.220	1	2
438.414	1	-3
439.608	1	9
440.802	1	-8
441.996	1	8
443.190	1	4
444.384	1	-4
445.578	1	-10
446.771	1	6
447.965	1	0
449.159	1	4
450.352	1	11
451.546	1	13
452.739	1	6
453.933	1	2
455.126	1	-3
456.320	1	-2
457.513	1	-8
458.706	1	6
459.899	1	2
461.093	1	7
462.286	1	7
463.479	1	14
464.672	1	6
465.865	1	-11
467.058	1	3
468.251	1	9
469.444	1	0
470.637	1	-5
471.830	1	5
473.023	1	2
474.215	1	11
475.408	1	6
476.601	1	3
477.793	1	-5
478.986	1	-9
480.179	1	-6
481.371	1	11
482.564	1	-4
483.756	1	-1
484.948	1	2
486.141	1	5
487.333	1	1
488.525	1	1
489.718	1	3
490.910	1	1
492.102	1	4
493.294	1	-3
494.486	1	7
495.678	1	-6
496.870	1	5
498.062	1	-11
499.254	1	4
500.446	1	8
501.638	1	5
502.829	1	1
504.021	1	0
505.213	1	4
506.404	1	6
507.596	1	-7
508.788	1	-2
509.979	1	-5
511.171	1	10
512.362	1	-4
513.553	1	2
514.745	1	-3
515.936	1	8
517.127	1	2
518.319	1	2
519.510	1	-3
520.701	1	3
521.892	1	10
523.083	1	6
524.274	1	-6
525.465	1	0
526.656	1	6
527.847	1	4
529.038	1	-6
530.229	1	2
531.419	1	6
532.610	1	6
533.801	1	7
534.991	1	1
536.182	1	13
537.373	1	8
538.563	1	5
539.754	1	-6
540.944	1	3
542.134	1	-9
543.325	1	5
544.515	1	4
545.705	1	-3
546.896	1	9
548.086	1	-8
549.276	1	-1
550.466	1	5
551.656	1	-4
552.846	1	-5
554.036	1	-2
555.226	1	-4
556.416	1	10
557.606	1	0
558.796	1	11
559.986	1	-2
561.175	1	5
562.365	1	13
563.555	1	6
564.744	1	3
565.934	1	-10
567.123	1	4
568.313	1	0
569.502	1	0
570.692	1	4
571.881	1	-5
573.070	1	-4
574.260	1	5
575.449	1	10
576.638	1	-2
577.827	1	2
579.016	1	-6
580.205	1	-6
581.394	1	4
582.583	1	4
583.772	1	5
584.961	1	-8
586.150	1	1
587.339	1	-5
588.528	1	7
589.717	1	-5
590.905	1	2
592.094	1	4
593.283	1	-5
594.471	1	6
595.660	1	-4
596.848	1	2
598.037	1	10
599.225	1	5
600.413	1	6
601.602	1	3
602.790	1	-3
603.978	1	7
605.166	1	1
606.355	1	8
607.543	1	-4
608.731	1	4
609.919	1	5
611.107	1	2
612.295	1	9
613.483	1	5
614.671	1	2
615.858	1	1
617.046	1	13
618.234	1	1
619.422	1	3
620.609	1	-9
621.797	1	1
622.985	1	12
624.172	1	-5
625.360	1	6
626.547	1	9
627.735	1	10
628.922	1	-1
630.109	1	-2
631.297	1	0
632.484	1	-4
633.671	1	-1
634.858	1	8
636.045	1	9
637.232	1	-3
638.419	1	2
639.606	1	8
640.793	1	-9
641.980	1	-6
643.167	1	3
644.354	1	-6
645.541	1	3
646.728	1	7
647.914	1	-4
649.101	1	-1
650.288	1	4
651.474	1	-2
652.661	1	-1
653.847	1	-1
655.034	1	2
656.220	1	-2
657.406	1	2
658.593	1	4
659.779	1	0
660.965	1	0
662.152	1	5
663.338	1	-1
664.524	1	-1
665.710	1	3
666.896	1	0
668.082	1	-2
669.268	1	-1
670.454	1	-2
671.640	1	-16
672.826	1	-1
674.011	1	-3
675.197	1	0
676.383	1	2
677.569	1	1
678.754	1	4
679.940	1	-6
681.125	1	9
682.311	1	-1
683.496	1	-4
684.682	1	-3
685.867	1	-2
687.053	1	-3
688.238	1	9
688.746	1	-1

File: GaN_sample F_spot6_UVVIS_130 K_200um_350 ms 2x2mm1_287.txt
340.368	1	4
341.565	1	3
342.763	1	-1
343.960	1	-11
345.157	1	-12
346.354	1	-4
347.552	1	-3
348.749	1	2
349.946	1	8
351.143	1	-1
352.340	1	5
353.537	1	-1
354.734	1	-13
355.931	1	5
357.127	1	1
358.324	1	8
359.521	1	-2
360.718	1	0
361.914	1	-4
363.111	1	18
364.308	1	11
365.504	1	15
366.701	1	13
367.897	1	7
369.093	1	15
370.290	1	14
371.486	1	8
372.682	1	-1
373.879	1	14
375.075	1	15
376.271	1	9
377.467	1	19
378.663	1	8
379.859	1	5
381.055	1	1
382.251	1	3
383.447	1	7
384.643	1	1
385.839	1	7
387.035	1	6
388.230	1	0
389.426	1	5
390.622	1	3
391.817	1	2
393.013	1	-1
394.208	1	0
395.404	1	0
396.599	1	3
397.795	1	-7
398.990	1	4
400.186	1	-7
401.381	1	8
402.576	1	1
403.771	1	3
404.967	1	3
406.162	1	6
407.357	1	1
408.552	1	-2
409.747	1	3
410.942	1	-1
412.137	1	-7
413.332	1	-2
414.526	1	-1
415.721	1	8
416.916	1	0
418.111	1	6
419.305	1	2
420.500	1	-2
421.695	1	-2
422.889	1	5
424.084	1	6
425.278	1	1
426.472	1	-1
427.667	1	16
428.861	1	1
430.055	1	3
431.250	1	8
432.444	1	6
433.638	1	-4
434.832	1	2
436.026	1	-2
437.220	1	-8
438.414	1	3
439.608	1	18
440.802	1	-8
441.996	1	3
443.190	1	6
444.384	1	-1
445.578	1	-3
446.771	1	10
447.965	1	5
449.159	1	5
450.352	1	9
451.546	1	10
452.739	1	-2
453.933	1	1
455.126	1	-8
456.320	1	-1
457.513	1	-3
458.706	1	7
459.899	1	5
461.093	1	3
462.286	1	6
463.479	1	1
464.672	1	8
465.865	1	2
467.058	1	3
468.251	1	-2
469.444	1	-4
470.637	1	9
471.830	1	3
473.023	1	6
474.215	1	10
475.408	1	2
476.601	1	-2
477.793	1	0
478.986	1	1
480.179	1	-1
481.371	1	9
482.564	1	-5
483.756	1	3
484.948	1	7
486.141	1	-4
487.333	1	-11
488.525	1	4
489.718	1	14
490.910	1	-8
492.102	1	5
493.294	1	9
494.486	1	10
495.678	1	-1
496.870	1	-2
498.062	1	-8
499.254	1	9
500.446	1	4
501.638	1	2
502.829	1	-2
504.021	1	7
505.213	1	8
506.404	1	-2
507.596	1	-6
508.788	1	9
509.979	1	-1
511.171	1	5
512.362	1	0
513.553	1	11
514.745	1	7
515.936	1	12
517.127	1	9
518.319	1	-7
519.510	1	-4
520.701	1	-2
521.892	1	12
523.083	1	12
524.274	1	-4
525.465	1	6
526.656	1	5
527.847	1	2
529.038	1	-3
530.229	1	2
531.419	1	7
532.610	1	-5
533.801	1	19
534.991	1	4
536.182	1	7
537.373	1	7
538.563	1	9
539.754	1	-2
540.944	1	8
542.134	1	0
543.325	1	-1
544.515	1	3
545.705	1	5
546.896	1	6
548.086	1	-5
549.276	1	0
550.466	1	5
551.656	1	3
552.846	1	-4
554.036	1	4
555.226	1	-1
556.416	1	5
557.606	1	-4
558.796	1	20
559.986	1	-7
561.175	1	-6
562.365	1	6
563.555	1	0
564.744	1	11
565.934	1	-5
567.123	1	6
568.313	1	-2
569.502	1	2
570.692	1	3
571.881	1	4
573.070	1	2
574.260	1	4
575.449	1	2
576.638	1	2
577.827	1	-8
579.016	1	-1
580.205	1	1
581.394	1	6
582.583	1	7
583.772	1	6
584.961	1	-6
586.150	1	4
587.339	1	4
588.528	1	11
589.717	1	-5
590.905	1	7
592.094	1	2
593.283	1	-9
594.471	1	9
595.660	1	4
596.848	1	-3
598.037	1	7
599.225	1	3
600.413	1	6
601.602	1	-1
602.790	1	7
603.978	1	8
605.166	1	6
606.355	1	10
607.543	1	-5
608.731	1	5
609.919	1	6
611.107	1	6
612.295	1	7
613.483	1	-2
614.671	1	5
615.858	1	2
617.046	1	6
618.234	1	9
619.422	1	-2
620.609	1	-4
621.797	1	5
622.985	1	9
624.172	1	2
625.360	1	-2
626.547	1	1
627.735	1	11
628.922	1	-7
630.109	1	5
631.297	1	1
632.484	1	-4
633.671	1	-10
634.858	1	11
636.045	1	15
637.232	1	2
638.419	1	-3
639.606	1	8
640.793	1	-3
641.980	1	2
643.167	1	11
644.354	1	-3
645.541	1	8
646.728	1	9
647.914	1	-11
649.101	1	0
650.288	1	9
651.474	1	-4
652.661	1	-5
653.847	1	-3
655.034	1	-4
656.220	1	-5
657.406	1	10
658.593	1	-3
659.779	1	-8
660.965	1	-2
662.152	1	0
663.338	1	-2
664.524	1	-4
665.710	1	13
666.896	1	6
668.082	1	7
669.268	1	5
670.454	1	5
671.640	1	-6
672.826	1	-1
674.011	1	3
675.197	1	-6
676.383	1	4
677.569	1	-4
678.754	1	0
679.940	1	-9
681.125	1	11
682.311	1	-3
683.496	1	-4
684.682	1	3
685.867	1	1
687.053	1	-4
688.238	1	10
688.746	1	10

File: GaN_sample F_spot6_UVVIS_130 K_200um_350 ms 2x2mm1_293.txt
340.368	1	8
341.565	1	-8
342.763	1	-3
343.960	1	-4
345.157	1	-18
346.354	1	11
347.552	1	-3
348.749	1	0
349.946	1	4
351.143	1	3
352.340	1	5
353.537	1	8
354.734	1	1
355.931	1	6
357.127	1	18
358.324	1	3
359.521	1	-5
360.718	1	9
361.914	1	4
363.111	1	15
364.308	1	23
365.504	1	12
366.701	1	2
367.897	1	8
369.093	1	13
370.290	1	16
371.486	1	13
372.682	1	7
373.879	1	7
375.075	1	4
376.271	1	2
377.467	1	6
378.663	1	9
379.859	1	10
381.055	1	1
382.251	1	5
383.447	1	-3
384.643	1	2
385.839	1	1
387.035	1	5
388.230	1	1
389.426	1	5
390.622	1	0
391.817	1	8
393.013	1	10
394.208	1	-1
395.404	1	-5
396.599	1	6
397.795	1	1
398.990	1	1
400.186	1	-4
401.381	1	11
402.576	1	8
403.771	1	8
404.967	1	5
406.162	1	4
407.357	1	2
408.552	1	-1
409.747	1	-9
410.942	1	2
412.137	1	7
413.332	1	2
414.526	1	4
415.721	1	4
416.916	1	10
418.111	1	1
419.305	1	-1
420.500	1	10
421.695	1	-3
422.889	1	10
424.084	1	7
425.278	1	0
426.472	1	3
427.667	1	16
428.861	1	2
430.055	1	6
431.250	1	11
432.444	1	9
433.638	1	0
434.832	1	2
436.026	1	6
437.220	1	-3
438.414	1	-3
439.608	1	10
440.802	1	-1
441.996	1	11
443.190	1	-1
444.384	1	2
445.578	1	2
446.771	1	-7
447.965	1	9
449.159	1	2
450.352	1	8
451.546	1	6
452.739	1	4
453.933	1	6
455.126	1	-4
456.320	1	-1
457.513	1	-5
458.706	1	4
459.899	1	11
461.093	1	8
462.286	1	-2
463.479	1	6
464.672	1	7
465.865	1	-7
467.058	1	7
468.251	1	6
469.444	1	-2
470.637	1	6
471.830	1	2
473.023	1	0
474.215	1	8
475.408	1	1
476.601	1	-4
477.793	1	-3
478.986	1	-1
480.179	1	-3
481.371	1	9
482.564	1	-1
483.756	1	-2
484.948	1	-1
486.141	1	2
487.333	1	-8
488.525	1	5
489.718	1	7
490.910	1	-4
492.102	1	9
493.294	1	8
494.486	1	13
495.678	1	-2
496.870	1	6
498.062	1	-5
499.254	1	6
500.446	1	-1
501.638	1	4
502.829	1	7
504.021	1	-2
505.213	1	-3
506.404	1	-2
507.596	1	-15
508.788	1	-9
509.979	1	-2
511.171	1	10
512.362	1	0
513.553	1	5
514.745	1	2
515.936	1	10
517.127	1	5
518.319	1	5
519.510	1	-6
520.701	1	2
521.892	1	0
523.083	1	3
524.274	1	-8
525.465	1	10
526.656	1	12
527.847	1	13
529.038	1	-8
530.229	1	6
531.419	1	4
532.610	1	1
533.801	1	19
534.991	1	0
536.182	1	8
537.373	1	9
538.563	1	10
539.754	1	-2
540.944	1	3
542.134	1	-1
543.325	1	4
544.515	1	2
545.705	1	2
546.896	1	0
548.086	1	-12
549.276	1	-2
550.466	1	4
551.656	1	9
552.846	1	3
554.036	1	0
555.226	1	8
556.416	1	5
557.606	1	-2
558.796	1	8
559.986	1	0
561.175	1	6
562.365	1	4
563.555	1	6
564.744	1	5
565.934	1	5
567.123	1	3
568.313	1	-5
569.502	1	1
570.692	1	9
571.881	1	4
573.070	1	4
574.260	1	2
575.449	1	3
576.638	1	-8
577.827	1	-3
579.016	1	0
580.205	1	3
581.394	1	-4
582.583	1	14
583.772	1	-2
584.961	1	1
586.150	1	16
587.339	1	-3
588.528	1	2
589.717	1	-6
590.905	1	3
592.094	1	4
593.283	1	-9
594.471	1	2
595.660	1	2
596.848	1	3
598.037	1	3
599.225	1	5
600.413	1	12
601.602	1	-8
602.790	1	0
603.978	1	4
605.166	1	8
606.355	1	5
607.543	1	7
608.731	1	3
609.919	1	15
611.107	1	9
612.295	1	2
613.483	1	-1
614.671	1	2
615.858	1	-2
617.046	1	10
618.234	1	-2
619.422	1	4
620.609	1	1
621.797	1	1
622.985	1	10
624.172	1	4
625.360	1	2
626.547	1	6
627.735	1	7
628.922	1	-8
630.109	1	5
631.297	1	0
632.484	1	-6
633.671	1	-2
634.858	1	10
636.045	1	10
637.232	1	-2
638.419	1	7
639.606	1	3
640.793	1	-8
641.980	1	-3
643.167	1	2
644.354	1	-4
645.541	1	-1
646.728	1	15
647.914	1	-8
649.101	1	3
650.288	1	11
651.474	1	3
652.661	1	-9
653.847	1	4
655.034	1	9
656.220	1	-2
657.406	1	5
658.593	1	6
659.779	1	3
660.965	1	0
662.152	1	5
663.338	1	3
664.524	1	-4
665.710	1	-1
666.896	1	7
668.082	1	-3
669.268	1	-8
670.454	1	1
671.640	1	-14
672.826	1	-2
674.011	1	4
675.197	1	-1
676.383	1	0
677.569	1	-4
678.754	1	10
679.940	1	6
681.125	1	7
682.311	1	-14
683.496	1	-6
684.682	1	-2
685.867	1	-6
687.053	1	2
688.238	1	3
688.746	1	6