Folder: cryo-il_analysis/Data/GaN_170K_550ms (part 28)

File: GaN_sample D_spot 18_UVVIS_170 K_200um_550 ms 2x2mm1_347.txt
340.368	1	1
341.565	1	11
342.763	1	-4
343.960	1	0
345.157	1	-1
346.354	1	-3
347.552	1	-1
348.749	1	11
349.946	1	3
351.143	1	-1
352.340	1	-1
353.537	1	2
354.734	1	6
355.931	1	6
357.127	1	2
358.324	1	6
359.521	1	7
360.718	1	0
361.914	1	3
363.111	1	12
364.308	1	5
365.504	1	5
366.701	1	6
367.897	1	3
369.093	1	2
370.290	1	-5
371.486	1	-2
372.682	1	9
373.879	1	5
375.075	1	-3
376.271	1	3
377.467	1	5
378.663	1	0
379.859	1	5
381.055	1	3
382.251	1	-3
383.447	1	5
384.643	1	4
385.839	1	1
387.035	1	5
388.230	1	-6
389.426	1	0
390.622	1	-2
391.817	1	9
393.013	1	3
394.208	1	5
395.404	1	13
396.599	1	-9
397.795	1	-5
398.990	1	-4
400.186	1	-9
401.381	1	12
402.576	1	-3
403.771	1	3
404.967	1	1
406.162	1	0
407.357	1	1
408.552	1	-3
409.747	1	-5
410.942	1	5
412.137	1	-9
413.332	1	-6
414.526	1	5
415.721	1	1
416.916	1	-15
418.111	1	7
419.305	1	-5
420.500	1	1
421.695	1	-4
422.889	1	-5
424.084	1	17
425.278	1	-2
426.472	1	1
427.667	1	-2
428.861	1	-13
430.055	1	-8
431.250	1	5
432.444	1	6
433.638	1	5
434.832	1	7
436.026	1	-2
437.220	1	0
438.414	1	-3
439.608	1	-4
440.802	1	-2
441.996	1	-10
443.190	1	-9
444.384	1	1
445.578	1	10
446.771	1	-11
447.965	1	1
449.159	1	-8
450.352	1	-8
451.546	1	0
452.739	1	4
453.933	1	3
455.126	1	11
456.320	1	-5
457.513	1	6
458.706	1	-1
459.899	1	-6
461.093	1	5
462.286	1	-5
463.479	1	-4
464.672	1	-7
465.865	1	0
467.058	1	5
468.251	1	-2
469.444	1	2
470.637	1	-4
471.830	1	0
473.023	1	0
474.215	1	-1
475.408	1	-17
476.601	1	2
477.793	1	4
478.986	1	-2
480.179	1	-11
481.371	1	-6
482.564	1	-3
483.756	1	-1
484.948	1	4
486.141	1	5
487.333	1	-2
488.525	1	10
489.718	1	9
490.910	1	-5
492.102	1	4
493.294	1	0
494.486	1	3
495.678	1	7
496.870	1	-1
498.062	1	-3
499.254	1	2
500.446	1	0
501.638	1	-7
502.829	1	-3
504.021	1	0
505.213	1	5
506.404	1	4
507.596	1	5
508.788	1	-6
509.979	1	-3
511.171	1	5
512.362	1	-6
513.553	1	-1
514.745	1	-2
515.936	1	-3
517.127	1	6
518.319	1	12
519.510	1	4
520.701	1	5
521.892	1	6
523.083	1	6
524.274	1	1
525.465	1	3
526.656	1	6
527.847	1	0
529.038	1	-4
530.229	1	15
531.419	1	6
532.610	1	6
533.801	1	-3
534.991	1	-3
536.182	1	1
537.373	1	-3
538.563	1	7
539.754	1	-3
540.944	1	-6
542.134	1	-4
543.325	1	3
544.515	1	5
545.705	1	10
546.896	1	-2
548.086	1	-5
549.276	1	-1
550.466	1	-3
551.656	1	2
552.846	1	-6
554.036	1	3
555.226	1	-7
556.416	1	-4
557.606	1	7
558.796	1	-8
559.986	1	4
561.175	1	-7
562.365	1	1
563.555	1	2
564.744	1	1
565.934	1	9
567.123	1	-2
568.313	1	1
569.502	1	-3
570.692	1	8
571.881	1	0
573.070	1	9
574.260	1	8
575.449	1	8
576.638	1	3
577.827	1	-2
579.016	1	1
580.205	1	-11
581.394	1	-3
582.583	1	-9
583.772	1	-2
584.961	1	-3
586.150	1	1
587.339	1	-5
588.528	1	-5
589.717	1	2
590.905	1	-1
592.094	1	13
593.283	1	4
594.471	1	11
595.660	1	8
596.848	1	-2
598.037	1	-5
599.225	1	4
600.413	1	-4
601.602	1	3
602.790	1	9
603.978	1	8
605.166	1	10
606.355	1	2
607.543	1	14
608.731	1	4
609.919	1	-8
611.107	1	-4
612.295	1	-10
613.483	1	-3
614.671	1	4
615.858	1	0
617.046	1	-1
618.234	1	-2
619.422	1	-3
620.609	1	-4
621.797	1	-2
622.985	1	-5
624.172	1	4
625.360	1	0
626.547	1	-2
627.735	1	-10
628.922	1	-6
630.109	1	-8
631.297	1	-6
632.484	1	0
633.671	1	10
634.858	1	5
636.045	1	0
637.232	1	4
638.419	1	-11
639.606	1	-4
640.793	1	-6
641.980	1	-5
643.167	1	-1
644.354	1	4
645.541	1	1
646.728	1	-4
647.914	1	0
649.101	1	1
650.288	1	-4
651.474	1	9
652.661	1	-3
653.847	1	-8
655.034	1	-6
656.220	1	-7
657.406	1	3
658.593	1	-4
659.779	1	7
660.965	1	13
662.152	1	0
663.338	1	4
664.524	1	12
665.710	1	-1
666.896	1	0
668.082	1	10
669.268	1	-4
670.454	1	-4
671.640	1	7
672.826	1	-4
674.011	1	6
675.197	1	6
676.383	1	-1
677.569	1	-8
678.754	1	4
679.940	1	6
681.125	1	12
682.311	1	4
683.496	1	5
684.682	1	-8
685.867	1	9
687.053	1	-4
688.238	1	-3
688.746	1	-6

File: GaN_sample D_spot 18_UVVIS_170 K_200um_550 ms 2x2mm1_348.txt
340.368	1	0
341.565	1	3
342.763	1	2
343.960	1	-4
345.157	1	8
346.354	1	-7
347.552	1	4
348.749	1	2
349.946	1	11
351.143	1	-6
352.340	1	0
353.537	1	-1
354.734	1	4
355.931	1	-7
357.127	1	5
358.324	1	5
359.521	1	4
360.718	1	3
361.914	1	0
363.111	1	17
364.308	1	4
365.504	1	-2
366.701	1	1
367.897	1	1
369.093	1	-4
370.290	1	12
371.486	1	-2
372.682	1	8
373.879	1	2
375.075	1	0
376.271	1	14
377.467	1	-3
378.663	1	1
379.859	1	0
381.055	1	-3
382.251	1	-1
383.447	1	12
384.643	1	0
385.839	1	-6
387.035	1	1
388.230	1	2
389.426	1	5
390.622	1	-2
391.817	1	4
393.013	1	0
394.208	1	6
395.404	1	5
396.599	1	-5
397.795	1	-1
398.990	1	-12
400.186	1	-6
401.381	1	6
402.576	1	0
403.771	1	1
404.967	1	-1
406.162	1	3
407.357	1	-6
408.552	1	3
409.747	1	-5
410.942	1	1
412.137	1	-3
413.332	1	2
414.526	1	3
415.721	1	-10
416.916	1	-10
418.111	1	1
419.305	1	-3
420.500	1	0
421.695	1	-1
422.889	1	-11
424.084	1	16
425.278	1	-2
426.472	1	1
427.667	1	-3
428.861	1	4
430.055	1	1
431.250	1	8
432.444	1	2
433.638	1	3
434.832	1	1
436.026	1	5
437.220	1	-5
438.414	1	-9
439.608	1	-1
440.802	1	9
441.996	1	2
443.190	1	-4
444.384	1	4
445.578	1	-3
446.771	1	-2
447.965	1	2
449.159	1	2
450.352	1	-7
451.546	1	-12
452.739	1	1
453.933	1	-4
455.126	1	6
456.320	1	0
457.513	1	8
458.706	1	11
459.899	1	-1
461.093	1	5
462.286	1	-6
463.479	1	-5
464.672	1	-9
465.865	1	-4
467.058	1	-3
468.251	1	1
469.444	1	2
470.637	1	-2
471.830	1	2
473.023	1	9
474.215	1	6
475.408	1	-3
476.601	1	-5
477.793	1	9
478.986	1	-3
480.179	1	0
481.371	1	-2
482.564	1	-4
483.756	1	-6
484.948	1	-3
486.141	1	12
487.333	1	-6
488.525	1	9
489.718	1	5
490.910	1	2
492.102	1	1
493.294	1	3
494.486	1	13
495.678	1	3
496.870	1	0
498.062	1	-2
499.254	1	7
500.446	1	-2
501.638	1	-5
502.829	1	-7
504.021	1	4
505.213	1	-5
506.404	1	-2
507.596	1	2
508.788	1	-2
509.979	1	9
511.171	1	2
512.362	1	-1
513.553	1	6
514.745	1	-1
515.936	1	1
517.127	1	2
518.319	1	2
519.510	1	4
520.701	1	9
521.892	1	9
523.083	1	3
524.274	1	-4
525.465	1	9
526.656	1	4
527.847	1	-4
529.038	1	-8
530.229	1	11
531.419	1	9
532.610	1	9
533.801	1	6
534.991	1	6
536.182	1	4
537.373	1	-7
538.563	1	-8
539.754	1	-8
540.944	1	5
542.134	1	-4
543.325	1	-1
544.515	1	2
545.705	1	9
546.896	1	4
548.086	1	4
549.276	1	-5
550.466	1	3
551.656	1	-4
552.846	1	3
554.036	1	-2
555.226	1	-5
556.416	1	-2
557.606	1	0
558.796	1	0
559.986	1	-6
561.175	1	-8
562.365	1	7
563.555	1	3
564.744	1	5
565.934	1	11
567.123	1	-4
568.313	1	-1
569.502	1	1
570.692	1	14
571.881	1	-3
573.070	1	-7
574.260	1	4
575.449	1	6
576.638	1	6
577.827	1	-4
579.016	1	1
580.205	1	1
581.394	1	-3
582.583	1	-5
583.772	1	-6
584.961	1	-2
586.150	1	-7
587.339	1	-6
588.528	1	7
589.717	1	10
590.905	1	6
592.094	1	5
593.283	1	2
594.471	1	6
595.660	1	2
596.848	1	9
598.037	1	4
599.225	1	8
600.413	1	-3
601.602	1	-2
602.790	1	4
603.978	1	4
605.166	1	-5
606.355	1	12
607.543	1	13
608.731	1	-9
609.919	1	-5
611.107	1	-7
612.295	1	-6
613.483	1	-8
614.671	1	12
615.858	1	-4
617.046	1	-2
618.234	1	7
619.422	1	-3
620.609	1	3
621.797	1	-9
622.985	1	3
624.172	1	1
625.360	1	0
626.547	1	-7
627.735	1	-12
628.922	1	-9
630.109	1	-1
631.297	1	2
632.484	1	-3
633.671	1	5
634.858	1	2
636.045	1	2
637.232	1	-1
638.419	1	-11
639.606	1	-6
640.793	1	-5
641.980	1	-7
643.167	1	-9
644.354	1	-1
645.541	1	0
646.728	1	-8
647.914	1	0
649.101	1	1
650.288	1	-6
651.474	1	8
652.661	1	3
653.847	1	-3
655.034	1	-9
656.220	1	0
657.406	1	0
658.593	1	-5
659.779	1	-4
660.965	1	13
662.152	1	5
663.338	1	6
664.524	1	-4
665.710	1	7
666.896	1	3
668.082	1	8
669.268	1	-3
670.454	1	-11
671.640	1	4
672.826	1	-2
674.011	1	-5
675.197	1	7
676.383	1	1
677.569	1	-6
678.754	1	3
679.940	1	2
681.125	1	8
682.311	1	5
683.496	1	-3
684.682	1	-1
685.867	1	5
687.053	1	-6
688.238	1	-6
688.746	1	-7

File: GaN_sample D_spot 18_UVVIS_170 K_200um_550 ms 2x2mm1_349.txt
340.368	1	-7
341.565	1	3
342.763	1	10
343.960	1	-7
345.157	1	-9
346.354	1	-5
347.552	1	15
348.749	1	5
349.946	1	6
351.143	1	-2
352.340	1	5
353.537	1	0
354.734	1	6
355.931	1	-7
357.127	1	-1
358.324	1	-1
359.521	1	4
360.718	1	-1
361.914	1	-5
363.111	1	11
364.308	1	13
365.504	1	3
366.701	1	-3
367.897	1	0
369.093	1	0
370.290	1	4
371.486	1	2
372.682	1	-2
373.879	1	20
375.075	1	3
376.271	1	7
377.467	1	1
378.663	1	4
379.859	1	10
381.055	1	0
382.251	1	5
383.447	1	7
384.643	1	2
385.839	1	-5
387.035	1	6
388.230	1	-2
389.426	1	1
390.622	1	5
391.817	1	-7
393.013	1	-2
394.208	1	9
395.404	1	5
396.599	1	-11
397.795	1	-1
398.990	1	-7
400.186	1	1
401.381	1	10
402.576	1	1
403.771	1	-1
404.967	1	1
406.162	1	5
407.357	1	-1
408.552	1	-1
409.747	1	0
410.942	1	5
412.137	1	-12
413.332	1	-10
414.526	1	13
415.721	1	-1
416.916	1	-3
418.111	1	5
419.305	1	-2
420.500	1	5
421.695	1	-13
422.889	1	-9
424.084	1	16
425.278	1	-2
426.472	1	-6
427.667	1	3
428.861	1	5
430.055	1	0
431.250	1	15
432.444	1	7
433.638	1	9
434.832	1	2
436.026	1	1
437.220	1	1
438.414	1	-8
439.608	1	-4
440.802	1	6
441.996	1	4
443.190	1	3
444.384	1	-3
445.578	1	9
446.771	1	-10
447.965	1	6
449.159	1	-1
450.352	1	-9
451.546	1	0
452.739	1	-4
453.933	1	-2
455.126	1	13
456.320	1	1
457.513	1	11
458.706	1	4
459.899	1	-7
461.093	1	1
462.286	1	-14
463.479	1	0
464.672	1	-9
465.865	1	5
467.058	1	-1
468.251	1	-3
469.444	1	-7
470.637	1	-3
471.830	1	-8
473.023	1	0
474.215	1	-2
475.408	1	-8
476.601	1	5
477.793	1	5
478.986	1	-6
480.179	1	-7
481.371	1	-6
482.564	1	-4
483.756	1	8
484.948	1	-1
486.141	1	0
487.333	1	-11
488.525	1	5
489.718	1	6
490.910	1	3
492.102	1	-2
493.294	1	-5
494.486	1	8
495.678	1	-7
496.870	1	-3
498.062	1	1
499.254	1	6
500.446	1	2
501.638	1	-8
502.829	1	-3
504.021	1	0
505.213	1	0
506.404	1	-4
507.596	1	-5
508.788	1	-1
509.979	1	12
511.171	1	-4
512.362	1	-5
513.553	1	2
514.745	1	0
515.936	1	-6
517.127	1	-2
518.319	1	3
519.510	1	2
520.701	1	4
521.892	1	0
523.083	1	9
524.274	1	6
525.465	1	4
526.656	1	5
527.847	1	0
529.038	1	2
530.229	1	11
531.419	1	4
532.610	1	7
533.801	1	-1
534.991	1	3
536.182	1	3
537.373	1	-4
538.563	1	-4
539.754	1	-5
540.944	1	-7
542.134	1	2
543.325	1	1
544.515	1	-2
545.705	1	7
546.896	1	8
548.086	1	4
549.276	1	-3
550.466	1	2
551.656	1	1
552.846	1	3
554.036	1	-1
555.226	1	-4
556.416	1	-3
557.606	1	7
558.796	1	1
559.986	1	-1
561.175	1	-4
562.365	1	-2
563.555	1	3
564.744	1	2
565.934	1	-1
567.123	1	-6
568.313	1	3
569.502	1	3
570.692	1	6
571.881	1	-2
573.070	1	-2
574.260	1	6
575.449	1	-4
576.638	1	17
577.827	1	2
579.016	1	11
580.205	1	-1
581.394	1	-3
582.583	1	0
583.772	1	-3
584.961	1	6
586.150	1	-1
587.339	1	1
588.528	1	-7
589.717	1	0
590.905	1	8
592.094	1	2
593.283	1	5
594.471	1	9
595.660	1	-1
596.848	1	-4
598.037	1	-3
599.225	1	1
600.413	1	-3
601.602	1	4
602.790	1	11
603.978	1	-6
605.166	1	6
606.355	1	11
607.543	1	8
608.731	1	2
609.919	1	2
611.107	1	-9
612.295	1	-3
613.483	1	-6
614.671	1	8
615.858	1	-1
617.046	1	-1
618.234	1	7
619.422	1	-4
620.609	1	6
621.797	1	4
622.985	1	0
624.172	1	-8
625.360	1	-1
626.547	1	-11
627.735	1	-7
628.922	1	-10
630.109	1	-6
631.297	1	2
632.484	1	-5
633.671	1	1
634.858	1	0
636.045	1	6
637.232	1	2
638.419	1	-7
639.606	1	-3
640.793	1	1
641.980	1	1
643.167	1	-2
644.354	1	3
645.541	1	0
646.728	1	-1
647.914	1	2
649.101	1	6
650.288	1	3
651.474	1	6
652.661	1	1
653.847	1	5
655.034	1	1
656.220	1	4
657.406	1	5
658.593	1	1
659.779	1	-9
660.965	1	11
662.152	1	0
663.338	1	1
664.524	1	10
665.710	1	-5
666.896	1	1
668.082	1	11
669.268	1	-4
670.454	1	-11
671.640	1	2
672.826	1	-3
674.011	1	11
675.197	1	10
676.383	1	0
677.569	1	-6
678.754	1	-1
679.940	1	4
681.125	1	-2
682.311	1	-3
683.496	1	2
684.682	1	0
685.867	1	8
687.053	1	-5
688.238	1	-3
688.746	1	-5

File: GaN_sample D_spot 18_UVVIS_170 K_200um_550 ms 2x2mm1_350.txt
340.368	1	0
341.565	1	-4
342.763	1	4
343.960	1	4
345.157	1	4
346.354	1	-1
347.552	1	5
348.749	1	6
349.946	1	4
351.143	1	-3
352.340	1	7
353.537	1	1
354.734	1	5
355.931	1	1
357.127	1	-1
358.324	1	8
359.521	1	7
360.718	1	3
361.914	1	2
363.111	1	13
364.308	1	12
365.504	1	10
366.701	1	7
367.897	1	4
369.093	1	-10
370.290	1	1
371.486	1	3
372.682	1	8
373.879	1	11
375.075	1	1
376.271	1	7
377.467	1	5
378.663	1	7
379.859	1	4
381.055	1	-3
382.251	1	4
383.447	1	3
384.643	1	5
385.839	1	-5
387.035	1	6
388.230	1	-2
389.426	1	2
390.622	1	-6
391.817	1	2
393.013	1	4
394.208	1	5
395.404	1	4
396.599	1	1
397.795	1	-1
398.990	1	-12
400.186	1	0
401.381	1	2
402.576	1	4
403.771	1	2
404.967	1	2
406.162	1	-6
407.357	1	-9
408.552	1	-10
409.747	1	2
410.942	1	0
412.137	1	-9
413.332	1	2
414.526	1	3
415.721	1	0
416.916	1	-6
418.111	1	4
419.305	1	3
420.500	1	3
421.695	1	-3
422.889	1	-2
424.084	1	10
425.278	1	0
426.472	1	-5
427.667	1	-10
428.861	1	-1
430.055	1	-1
431.250	1	19
432.444	1	7
433.638	1	0
434.832	1	6
436.026	1	1
437.220	1	-1
438.414	1	-3
439.608	1	-4
440.802	1	1
441.996	1	4
443.190	1	2
444.384	1	-5
445.578	1	1
446.771	1	-13
447.965	1	-1
449.159	1	-3
450.352	1	0
451.546	1	-12
452.739	1	2
453.933	1	3
455.126	1	3
456.320	1	4
457.513	1	10
458.706	1	8
459.899	1	-4
461.093	1	9
462.286	1	3
463.479	1	-6
464.672	1	0
465.865	1	3
467.058	1	-3
468.251	1	-4
469.444	1	-4
470.637	1	2
471.830	1	-5
473.023	1	3
474.215	1	6
475.408	1	-7
476.601	1	1
477.793	1	6
478.986	1	-6
480.179	1	-2
481.371	1	-1
482.564	1	0
483.756	1	2
484.948	1	-2
486.141	1	14
487.333	1	-7
488.525	1	9
489.718	1	2
490.910	1	-8
492.102	1	4
493.294	1	2
494.486	1	6
495.678	1	3
496.870	1	3
498.062	1	-6
499.254	1	8
500.446	1	0
501.638	1	-11
502.829	1	5
504.021	1	-5
505.213	1	-4
506.404	1	3
507.596	1	5
508.788	1	-11
509.979	1	-1
511.171	1	11
512.362	1	-1
513.553	1	2
514.745	1	-1
515.936	1	-5
517.127	1	-3
518.319	1	0
519.510	1	8
520.701	1	-2
521.892	1	-5
523.083	1	3
524.274	1	2
525.465	1	2
526.656	1	0
527.847	1	-7
529.038	1	-4
530.229	1	7
531.419	1	8
532.610	1	1
533.801	1	-7
534.991	1	-4
536.182	1	-8
537.373	1	-7
538.563	1	0
539.754	1	1
540.944	1	-3
542.134	1	1
543.325	1	5
544.515	1	3
545.705	1	11
546.896	1	7
548.086	1	3
549.276	1	0
550.466	1	3
551.656	1	0
552.846	1	5
554.036	1	-3
555.226	1	1
556.416	1	-1
557.606	1	-4
558.796	1	-11
559.986	1	1
561.175	1	-7
562.365	1	2
563.555	1	-4
564.744	1	4
565.934	1	7
567.123	1	-1
568.313	1	-1
569.502	1	-2
570.692	1	4
571.881	1	-11
573.070	1	4
574.260	1	3
575.449	1	-4
576.638	1	7
577.827	1	-6
579.016	1	0
580.205	1	1
581.394	1	1
582.583	1	-1
583.772	1	0
584.961	1	3
586.150	1	-2
587.339	1	-5
588.528	1	-3
589.717	1	1
590.905	1	5
592.094	1	5
593.283	1	5
594.471	1	9
595.660	1	-1
596.848	1	-1
598.037	1	-8
599.225	1	-3
600.413	1	-7
601.602	1	5
602.790	1	5
603.978	1	6
605.166	1	7
606.355	1	3
607.543	1	4
608.731	1	7
609.919	1	-4
611.107	1	10
612.295	1	6
613.483	1	-2
614.671	1	3
615.858	1	-4
617.046	1	-5
618.234	1	0
619.422	1	-8
620.609	1	-1
621.797	1	-1
622.985	1	10
624.172	1	-7
625.360	1	-1
626.547	1	-16
627.735	1	-10
628.922	1	-14
630.109	1	0
631.297	1	-2
632.484	1	2
633.671	1	7
634.858	1	0
636.045	1	10
637.232	1	3
638.419	1	-5
639.606	1	0
640.793	1	-8
641.980	1	0
643.167	1	0
644.354	1	0
645.541	1	8
646.728	1	-2
647.914	1	7
649.101	1	9
650.288	1	-1
651.474	1	12
652.661	1	1
653.847	1	-2
655.034	1	4
656.220	1	-4
657.406	1	-4
658.593	1	-2
659.779	1	0
660.965	1	12
662.152	1	1
663.338	1	6
664.524	1	4
665.710	1	3
666.896	1	2
668.082	1	4
669.268	1	-8
670.454	1	-6
671.640	1	2
672.826	1	2
674.011	1	6
675.197	1	2
676.383	1	2
677.569	1	-4
678.754	1	7
679.940	1	3
681.125	1	6
682.311	1	7
683.496	1	5
684.682	1	-1
685.867	1	6
687.053	1	-6
688.238	1	2
688.746	1	-2

File: GaN_sample D_spot 18_UVVIS_170 K_200um_550 ms 2x2mm1_351.txt
340.368	1	-5
341.565	1	-5
342.763	1	-1
343.960	1	-3
345.157	1	-7
346.354	1	-3
347.552	1	0
348.749	1	8
349.946	1	4
351.143	1	-2
352.340	1	-5
353.537	1	1
354.734	1	2
355.931	1	-1
357.127	1	2
358.324	1	9
359.521	1	2
360.718	1	6
361.914	1	4
363.111	1	8
364.308	1	3
365.504	1	-3
366.701	1	7
367.897	1	6
369.093	1	-4
370.290	1	0
371.486	1	-3
372.682	1	6
373.879	1	7
375.075	1	8
376.271	1	10
377.467	1	4
378.663	1	-4
379.859	1	7
381.055	1	2
382.251	1	-2
383.447	1	9
384.643	1	-6
385.839	1	-2
387.035	1	0
388.230	1	-12
389.426	1	4
390.622	1	0
391.817	1	-4
393.013	1	6
394.208	1	-1
395.404	1	1
396.599	1	-4
397.795	1	-5
398.990	1	-14
400.186	1	-17
401.381	1	12
402.576	1	-2
403.771	1	-3
404.967	1	-3
406.162	1	3
407.357	1	-4
408.552	1	-7
409.747	1	-1
410.942	1	3
412.137	1	-10
413.332	1	-5
414.526	1	7
415.721	1	-4
416.916	1	-7
418.111	1	2
419.305	1	1
420.500	1	0
421.695	1	-11
422.889	1	-5
424.084	1	4
425.278	1	-6
426.472	1	7
427.667	1	0
428.861	1	-1
430.055	1	-2
431.250	1	13
432.444	1	0
433.638	1	8
434.832	1	5
436.026	1	-6
437.220	1	6
438.414	1	-1
439.608	1	-1
440.802	1	11
441.996	1	2
443.190	1	3
444.384	1	2
445.578	1	6
446.771	1	-14
447.965	1	0
449.159	1	-5
450.352	1	1
451.546	1	-9
452.739	1	-4
453.933	1	-5
455.126	1	6
456.320	1	7
457.513	1	7
458.706	1	-6
459.899	1	5
461.093	1	9
462.286	1	-8
463.479	1	3
464.672	1	-6
465.865	1	-2
467.058	1	5
468.251	1	0
469.444	1	2
470.637	1	-8
471.830	1	-3
473.023	1	-2
474.215	1	1
475.408	1	-5
476.601	1	4
477.793	1	5
478.986	1	-9
480.179	1	-6
481.371	1	3
482.564	1	2
483.756	1	-3
484.948	1	0
486.141	1	10
487.333	1	-5
488.525	1	6
489.718	1	9
490.910	1	-2
492.102	1	-8
493.294	1	-2
494.486	1	4
495.678	1	1
496.870	1	-2
498.062	1	-2
499.254	1	8
500.446	1	4
501.638	1	-12
502.829	1	-10
504.021	1	6
505.213	1	-2
506.404	1	0
507.596	1	-7
508.788	1	-7
509.979	1	2
511.171	1	9
512.362	1	3
513.553	1	1
514.745	1	-4
515.936	1	2
517.127	1	9
518.319	1	1
519.510	1	3
520.701	1	-1
521.892	1	9
523.083	1	4
524.274	1	1
525.465	1	4
526.656	1	12
527.847	1	0
529.038	1	-6
530.229	1	3
531.419	1	7
532.610	1	14
533.801	1	6
534.991	1	-4
536.182	1	2
537.373	1	-3
538.563	1	3
539.754	1	0
540.944	1	-6
542.134	1	1
543.325	1	3
544.515	1	4
545.705	1	10
546.896	1	0
548.086	1	-1
549.276	1	1
550.466	1	-3
551.656	1	5
552.846	1	-5
554.036	1	-6
555.226	1	-1
556.416	1	-7
557.606	1	3
558.796	1	4
559.986	1	4
561.175	1	-6
562.365	1	7
563.555	1	1
564.744	1	-4
565.934	1	0
567.123	1	5
568.313	1	-2
569.502	1	1
570.692	1	7
571.881	1	3
573.070	1	-9
574.260	1	3
575.449	1	2
576.638	1	2
577.827	1	-2
579.016	1	-2
580.205	1	-11
581.394	1	3
582.583	1	5
583.772	1	-1
584.961	1	4
586.150	1	0
587.339	1	-1
588.528	1	-3
589.717	1	4
590.905	1	8
592.094	1	5
593.283	1	8
594.471	1	4
595.660	1	5
596.848	1	6
598.037	1	1
599.225	1	5
600.413	1	-1
601.602	1	-3
602.790	1	6
603.978	1	14
605.166	1	12
606.355	1	5
607.543	1	6
608.731	1	-4
609.919	1	2
611.107	1	-13
612.295	1	-4
613.483	1	-5
614.671	1	7
615.858	1	3
617.046	1	3
618.234	1	-2
619.422	1	-6
620.609	1	4
621.797	1	0
622.985	1	10
624.172	1	-5
625.360	1	5
626.547	1	-5
627.735	1	-15
628.922	1	-1
630.109	1	1
631.297	1	-3
632.484	1	2
633.671	1	6
634.858	1	3
636.045	1	9
637.232	1	7
638.419	1	-4
639.606	1	-9
640.793	1	-7
641.980	1	-1
643.167	1	-9
644.354	1	-4
645.541	1	6
646.728	1	2
647.914	1	-3
649.101	1	-5
650.288	1	-4
651.474	1	-2
652.661	1	0
653.847	1	0
655.034	1	-4
656.220	1	0
657.406	1	-3
658.593	1	-4
659.779	1	1
660.965	1	11
662.152	1	-9
663.338	1	7
664.524	1	10
665.710	1	-7
666.896	1	-4
668.082	1	6
669.268	1	2
670.454	1	4
671.640	1	10
672.826	1	5
674.011	1	5
675.197	1	0
676.383	1	5
677.569	1	-1
678.754	1	4
679.940	1	5
681.125	1	6
682.311	1	-7
683.496	1	1
684.682	1	4
685.867	1	-1
687.053	1	-7
688.238	1	5
688.746	1	-10

File: GaN_sample D_spot 18_UVVIS_170 K_200um_550 ms 2x2mm1_354.txt
340.368	1	0
341.565	1	5
342.763	1	-3
343.960	1	-2
345.157	1	-2
346.354	1	-8
347.552	1	8
348.749	1	1
349.946	1	13
351.143	1	3
352.340	1	3
353.537	1	-3
354.734	1	1
355.931	1	-4
357.127	1	-6
358.324	1	9
359.521	1	6
360.718	1	4
361.914	1	2
363.111	1	9
364.308	1	4
365.504	1	1
366.701	1	3
367.897	1	1
369.093	1	-5
370.290	1	3
371.486	1	-3
372.682	1	18
373.879	1	11
375.075	1	12
376.271	1	5
377.467	1	0
378.663	1	2
379.859	1	3
381.055	1	8
382.251	1	5
383.447	1	3
384.643	1	-1
385.839	1	-5
387.035	1	2
388.230	1	-8
389.426	1	0
390.622	1	-9
391.817	1	-6
393.013	1	1
394.208	1	10
395.404	1	6
396.599	1	-10
397.795	1	0
398.990	1	-9
400.186	1	-2
401.381	1	3
402.576	1	-1
403.771	1	6
404.967	1	-6
406.162	1	4
407.357	1	-1
408.552	1	-5
409.747	1	1
410.942	1	0
412.137	1	-5
413.332	1	-7
414.526	1	3
415.721	1	3
416.916	1	-6
418.111	1	3
419.305	1	-3
420.500	1	-11
421.695	1	-3
422.889	1	-12
424.084	1	14
425.278	1	-2
426.472	1	6
427.667	1	-1
428.861	1	-5
430.055	1	-1
431.250	1	16
432.444	1	4
433.638	1	6
434.832	1	3
436.026	1	3
437.220	1	0
438.414	1	-6
439.608	1	-3
440.802	1	4
441.996	1	-12
443.190	1	-4
444.384	1	-3
445.578	1	8
446.771	1	-8
447.965	1	-7
449.159	1	-1
450.352	1	-5
451.546	1	-9
452.739	1	-4
453.933	1	-5
455.126	1	13
456.320	1	-1
457.513	1	4
458.706	1	5
459.899	1	1
461.093	1	5
462.286	1	-4
463.479	1	-6
464.672	1	-5
465.865	1	-2
467.058	1	3
468.251	1	0
469.444	1	-5
470.637	1	8
471.830	1	0
473.023	1	4
474.215	1	-3
475.408	1	-7
476.601	1	7
477.793	1	5
478.986	1	-3
480.179	1	-2
481.371	1	-3
482.564	1	3
483.756	1	-2
484.948	1	1
486.141	1	10
487.333	1	-12
488.525	1	4
489.718	1	3
490.910	1	-6
492.102	1	-4
493.294	1	0
494.486	1	6
495.678	1	-2
496.870	1	-6
498.062	1	8
499.254	1	10
500.446	1	-7
501.638	1	-2
502.829	1	2
504.021	1	2
505.213	1	-6
506.404	1	-3
507.596	1	12
508.788	1	-6
509.979	1	-6
511.171	1	3
512.362	1	-2
513.553	1	-2
514.745	1	-1
515.936	1	-2
517.127	1	-6
518.319	1	-6
519.510	1	2
520.701	1	3
521.892	1	-9
523.083	1	-2
524.274	1	-5
525.465	1	6
526.656	1	10
527.847	1	-3
529.038	1	1
530.229	1	11
531.419	1	4
532.610	1	-4
533.801	1	6
534.991	1	5
536.182	1	2
537.373	1	-12
538.563	1	4
539.754	1	4
540.944	1	-7
542.134	1	-8
543.325	1	-6
544.515	1	12
545.705	1	10
546.896	1	6
548.086	1	2
549.276	1	1
550.466	1	2
551.656	1	3
552.846	1	2
554.036	1	-2
555.226	1	-6
556.416	1	-2
557.606	1	-2
558.796	1	0
559.986	1	2
561.175	1	-13
562.365	1	11
563.555	1	-2
564.744	1	0
565.934	1	2
567.123	1	2
568.313	1	-11
569.502	1	4
570.692	1	7
571.881	1	4
573.070	1	5
574.260	1	3
575.449	1	-1
576.638	1	0
577.827	1	0
579.016	1	3
580.205	1	5
581.394	1	-1
582.583	1	-5
583.772	1	1
584.961	1	0
586.150	1	-5
587.339	1	7
588.528	1	8
589.717	1	1
590.905	1	13
592.094	1	5
593.283	1	17
594.471	1	2
595.660	1	-3
596.848	1	5
598.037	1	0
599.225	1	1
600.413	1	-16
601.602	1	11
602.790	1	5
603.978	1	-1
605.166	1	1
606.355	1	-2
607.543	1	11
608.731	1	4
609.919	1	-1
611.107	1	-6
612.295	1	-1
613.483	1	-3
614.671	1	9
615.858	1	-2
617.046	1	-5
618.234	1	-2
619.422	1	-10
620.609	1	5
621.797	1	3
622.985	1	7
624.172	1	-7
625.360	1	3
626.547	1	-8
627.735	1	-18
628.922	1	-9
630.109	1	3
631.297	1	1
632.484	1	-6
633.671	1	7
634.858	1	1
636.045	1	10
637.232	1	-1
638.419	1	6
639.606	1	-16
640.793	1	-5
641.980	1	-8
643.167	1	-4
644.354	1	-6
645.541	1	-4
646.728	1	-1
647.914	1	-1
649.101	1	-2
650.288	1	8
651.474	1	11
652.661	1	0
653.847	1	4
655.034	1	3
656.220	1	0
657.406	1	-8
658.593	1	2
659.779	1	0
660.965	1	8
662.152	1	9
663.338	1	1
664.524	1	3
665.710	1	-1
666.896	1	5
668.082	1	2
669.268	1	-9
670.454	1	-12
671.640	1	0
672.826	1	7
674.011	1	7
675.197	1	4
676.383	1	-3
677.569	1	-6
678.754	1	2
679.940	1	8
681.125	1	5
682.311	1	-1
683.496	1	7
684.682	1	4
685.867	1	2
687.053	1	-15
688.238	1	-9
688.746	1	-1