Folder: cryo-il_analysis/Data/GaN_150K_450ms (part 31)

File: GaN_sample D_spot15_UVVIS_150 K_200um_450 ms 2x2mm1_305.txt
340.368	1	2
341.565	1	8
342.763	1	5
343.960	1	0
345.157	1	9
346.354	1	1
347.552	1	9
348.749	1	8
349.946	1	-4
351.143	1	9
352.340	1	11
353.537	1	-4
354.734	1	0
355.931	1	5
357.127	1	13
358.324	1	12
359.521	1	8
360.718	1	1
361.914	1	13
363.111	1	6
364.308	1	11
365.504	1	8
366.701	1	-2
367.897	1	10
369.093	1	15
370.290	1	18
371.486	1	15
372.682	1	10
373.879	1	-4
375.075	1	-5
376.271	1	1
377.467	1	11
378.663	1	6
379.859	1	-5
381.055	1	-4
382.251	1	2
383.447	1	11
384.643	1	3
385.839	1	7
387.035	1	-3
388.230	1	3
389.426	1	-2
390.622	1	-9
391.817	1	-5
393.013	1	5
394.208	1	-4
395.404	1	2
396.599	1	2
397.795	1	-2
398.990	1	7
400.186	1	6
401.381	1	0
402.576	1	0
403.771	1	-13
404.967	1	0
406.162	1	-8
407.357	1	4
408.552	1	-9
409.747	1	4
410.942	1	12
412.137	1	-4
413.332	1	5
414.526	1	-2
415.721	1	5
416.916	1	5
418.111	1	12
419.305	1	5
420.500	1	3
421.695	1	10
422.889	1	1
424.084	1	4
425.278	1	4
426.472	1	12
427.667	1	-7
428.861	1	7
430.055	1	9
431.250	1	1
432.444	1	5
433.638	1	9
434.832	1	3
436.026	1	4
437.220	1	3
438.414	1	1
439.608	1	-10
440.802	1	-5
441.996	1	-4
443.190	1	7
444.384	1	-1
445.578	1	-8
446.771	1	2
447.965	1	1
449.159	1	0
450.352	1	-9
451.546	1	4
452.739	1	7
453.933	1	-7
455.126	1	5
456.320	1	1
457.513	1	2
458.706	1	9
459.899	1	-1
461.093	1	-1
462.286	1	-7
463.479	1	-3
464.672	1	1
465.865	1	4
467.058	1	-5
468.251	1	-6
469.444	1	-3
470.637	1	-3
471.830	1	0
473.023	1	0
474.215	1	5
475.408	1	9
476.601	1	-2
477.793	1	3
478.986	1	13
480.179	1	-4
481.371	1	-12
482.564	1	2
483.756	1	3
484.948	1	9
486.141	1	5
487.333	1	-1
488.525	1	-3
489.718	1	-7
490.910	1	5
492.102	1	13
493.294	1	-8
494.486	1	2
495.678	1	-7
496.870	1	8
498.062	1	1
499.254	1	-8
500.446	1	0
501.638	1	10
502.829	1	4
504.021	1	7
505.213	1	2
506.404	1	5
507.596	1	13
508.788	1	1
509.979	1	-5
511.171	1	1
512.362	1	9
513.553	1	8
514.745	1	7
515.936	1	4
517.127	1	2
518.319	1	1
519.510	1	-3
520.701	1	3
521.892	1	-4
523.083	1	-3
524.274	1	1
525.465	1	10
526.656	1	0
527.847	1	-10
529.038	1	3
530.229	1	-7
531.419	1	2
532.610	1	0
533.801	1	8
534.991	1	-2
536.182	1	3
537.373	1	-1
538.563	1	1
539.754	1	2
540.944	1	3
542.134	1	-1
543.325	1	8
544.515	1	4
545.705	1	3
546.896	1	0
548.086	1	1
549.276	1	5
550.466	1	-3
551.656	1	1
552.846	1	8
554.036	1	16
555.226	1	0
556.416	1	8
557.606	1	-1
558.796	1	14
559.986	1	2
561.175	1	-7
562.365	1	-1
563.555	1	-1
564.744	1	6
565.934	1	12
567.123	1	16
568.313	1	8
569.502	1	7
570.692	1	8
571.881	1	-3
573.070	1	5
574.260	1	-6
575.449	1	-4
576.638	1	11
577.827	1	2
579.016	1	4
580.205	1	0
581.394	1	1
582.583	1	-5
583.772	1	1
584.961	1	-3
586.150	1	-3
587.339	1	-3
588.528	1	-4
589.717	1	-2
590.905	1	-2
592.094	1	12
593.283	1	5
594.471	1	-7
595.660	1	9
596.848	1	5
598.037	1	-3
599.225	1	1
600.413	1	4
601.602	1	5
602.790	1	-3
603.978	1	6
605.166	1	4
606.355	1	-11
607.543	1	-7
608.731	1	-9
609.919	1	0
611.107	1	11
612.295	1	2
613.483	1	-11
614.671	1	10
615.858	1	-3
617.046	1	3
618.234	1	-3
619.422	1	13
620.609	1	-2
621.797	1	-2
622.985	1	-7
624.172	1	0
625.360	1	-4
626.547	1	-3
627.735	1	10
628.922	1	5
630.109	1	1
631.297	1	6
632.484	1	12
633.671	1	1
634.858	1	4
636.045	1	1
637.232	1	6
638.419	1	-6
639.606	1	4
640.793	1	0
641.980	1	12
643.167	1	10
644.354	1	8
645.541	1	-3
646.728	1	-3
647.914	1	-2
649.101	1	1
650.288	1	4
651.474	1	4
652.661	1	10
653.847	1	7
655.034	1	-5
656.220	1	1
657.406	1	-3
658.593	1	1
659.779	1	10
660.965	1	-4
662.152	1	1
663.338	1	-8
664.524	1	12
665.710	1	-5
666.896	1	-3
668.082	1	0
669.268	1	-8
670.454	1	2
671.640	1	5
672.826	1	3
674.011	1	6
675.197	1	13
676.383	1	5
677.569	1	16
678.754	1	8
679.940	1	-1
681.125	1	-1
682.311	1	11
683.496	1	-4
684.682	1	6
685.867	1	9
687.053	1	19
688.238	1	5
688.746	1	1

File: GaN_sample D_spot15_UVVIS_150 K_200um_450 ms 2x2mm1_306.txt
340.368	1	6
341.565	1	6
342.763	1	0
343.960	1	10
345.157	1	6
346.354	1	-2
347.552	1	15
348.749	1	4
349.946	1	0
351.143	1	4
352.340	1	10
353.537	1	-7
354.734	1	9
355.931	1	-1
357.127	1	12
358.324	1	-3
359.521	1	6
360.718	1	0
361.914	1	5
363.111	1	-1
364.308	1	11
365.504	1	-1
366.701	1	-5
367.897	1	7
369.093	1	13
370.290	1	7
371.486	1	2
372.682	1	16
373.879	1	5
375.075	1	-13
376.271	1	-7
377.467	1	17
378.663	1	5
379.859	1	-1
381.055	1	-6
382.251	1	2
383.447	1	-2
384.643	1	2
385.839	1	2
387.035	1	3
388.230	1	1
389.426	1	1
390.622	1	3
391.817	1	-11
393.013	1	8
394.208	1	8
395.404	1	0
396.599	1	-2
397.795	1	-3
398.990	1	8
400.186	1	-3
401.381	1	1
402.576	1	4
403.771	1	-3
404.967	1	4
406.162	1	-12
407.357	1	1
408.552	1	-3
409.747	1	-1
410.942	1	12
412.137	1	-8
413.332	1	16
414.526	1	0
415.721	1	-2
416.916	1	0
418.111	1	0
419.305	1	-5
420.500	1	1
421.695	1	13
422.889	1	0
424.084	1	7
425.278	1	2
426.472	1	12
427.667	1	4
428.861	1	-5
430.055	1	10
431.250	1	3
432.444	1	2
433.638	1	3
434.832	1	-4
436.026	1	0
437.220	1	11
438.414	1	0
439.608	1	-3
440.802	1	3
441.996	1	1
443.190	1	3
444.384	1	7
445.578	1	-2
446.771	1	1
447.965	1	2
449.159	1	-10
450.352	1	-4
451.546	1	3
452.739	1	-1
453.933	1	-1
455.126	1	-2
456.320	1	5
457.513	1	6
458.706	1	10
459.899	1	-3
461.093	1	3
462.286	1	1
463.479	1	-9
464.672	1	4
465.865	1	7
467.058	1	-6
468.251	1	-6
469.444	1	-1
470.637	1	0
471.830	1	-3
473.023	1	0
474.215	1	4
475.408	1	4
476.601	1	3
477.793	1	5
478.986	1	12
480.179	1	2
481.371	1	-19
482.564	1	3
483.756	1	-3
484.948	1	4
486.141	1	10
487.333	1	-5
488.525	1	-11
489.718	1	-6
490.910	1	11
492.102	1	2
493.294	1	-2
494.486	1	-2
495.678	1	-1
496.870	1	2
498.062	1	0
499.254	1	-7
500.446	1	1
501.638	1	2
502.829	1	3
504.021	1	1
505.213	1	-1
506.404	1	3
507.596	1	7
508.788	1	0
509.979	1	8
511.171	1	-3
512.362	1	8
513.553	1	-2
514.745	1	2
515.936	1	0
517.127	1	9
518.319	1	6
519.510	1	-10
520.701	1	3
521.892	1	-3
523.083	1	-3
524.274	1	-3
525.465	1	9
526.656	1	1
527.847	1	1
529.038	1	8
530.229	1	8
531.419	1	5
532.610	1	14
533.801	1	2
534.991	1	-6
536.182	1	12
537.373	1	-7
538.563	1	2
539.754	1	0
540.944	1	13
542.134	1	1
543.325	1	11
544.515	1	1
545.705	1	0
546.896	1	1
548.086	1	9
549.276	1	6
550.466	1	0
551.656	1	2
552.846	1	6
554.036	1	9
555.226	1	-5
556.416	1	7
557.606	1	-14
558.796	1	3
559.986	1	9
561.175	1	5
562.365	1	4
563.555	1	11
564.744	1	10
565.934	1	10
567.123	1	-3
568.313	1	3
569.502	1	0
570.692	1	7
571.881	1	-1
573.070	1	-8
574.260	1	4
575.449	1	-2
576.638	1	7
577.827	1	-3
579.016	1	0
580.205	1	-3
581.394	1	-2
582.583	1	12
583.772	1	3
584.961	1	-7
586.150	1	11
587.339	1	-2
588.528	1	2
589.717	1	2
590.905	1	-9
592.094	1	4
593.283	1	0
594.471	1	-3
595.660	1	12
596.848	1	-3
598.037	1	-3
599.225	1	2
600.413	1	1
601.602	1	1
602.790	1	9
603.978	1	1
605.166	1	10
606.355	1	-15
607.543	1	10
608.731	1	-14
609.919	1	-10
611.107	1	14
612.295	1	1
613.483	1	-1
614.671	1	9
615.858	1	-2
617.046	1	1
618.234	1	-7
619.422	1	6
620.609	1	-5
621.797	1	1
622.985	1	2
624.172	1	7
625.360	1	3
626.547	1	5
627.735	1	3
628.922	1	-1
630.109	1	-5
631.297	1	-3
632.484	1	7
633.671	1	13
634.858	1	10
636.045	1	-3
637.232	1	9
638.419	1	2
639.606	1	5
640.793	1	10
641.980	1	7
643.167	1	0
644.354	1	10
645.541	1	4
646.728	1	8
647.914	1	-2
649.101	1	-8
650.288	1	0
651.474	1	6
652.661	1	2
653.847	1	6
655.034	1	-9
656.220	1	5
657.406	1	-7
658.593	1	6
659.779	1	5
660.965	1	8
662.152	1	-2
663.338	1	5
664.524	1	15
665.710	1	-1
666.896	1	0
668.082	1	7
669.268	1	-15
670.454	1	4
671.640	1	8
672.826	1	-1
674.011	1	3
675.197	1	3
676.383	1	3
677.569	1	4
678.754	1	0
679.940	1	-11
681.125	1	0
682.311	1	2
683.496	1	10
684.682	1	9
685.867	1	1
687.053	1	10
688.238	1	10
688.746	1	-1

File: GaN_sample D_spot15_UVVIS_150 K_200um_450 ms 2x2mm1_308.txt
340.368	1	-7
341.565	1	7
342.763	1	8
343.960	1	1
345.157	1	11
346.354	1	-3
347.552	1	13
348.749	1	11
349.946	1	1
351.143	1	5
352.340	1	-1
353.537	1	-3
354.734	1	1
355.931	1	8
357.127	1	5
358.324	1	3
359.521	1	9
360.718	1	11
361.914	1	9
363.111	1	8
364.308	1	6
365.504	1	-1
366.701	1	5
367.897	1	13
369.093	1	6
370.290	1	12
371.486	1	12
372.682	1	12
373.879	1	7
375.075	1	1
376.271	1	7
377.467	1	12
378.663	1	-5
379.859	1	-1
381.055	1	2
382.251	1	-10
383.447	1	2
384.643	1	4
385.839	1	11
387.035	1	14
388.230	1	8
389.426	1	2
390.622	1	0
391.817	1	-10
393.013	1	7
394.208	1	1
395.404	1	-1
396.599	1	4
397.795	1	-6
398.990	1	17
400.186	1	-4
401.381	1	-5
402.576	1	2
403.771	1	-9
404.967	1	3
406.162	1	-9
407.357	1	2
408.552	1	-2
409.747	1	-2
410.942	1	12
412.137	1	3
413.332	1	4
414.526	1	-6
415.721	1	1
416.916	1	3
418.111	1	5
419.305	1	9
420.500	1	5
421.695	1	13
422.889	1	2
424.084	1	3
425.278	1	5
426.472	1	8
427.667	1	0
428.861	1	3
430.055	1	8
431.250	1	6
432.444	1	-2
433.638	1	1
434.832	1	0
436.026	1	-6
437.220	1	3
438.414	1	-5
439.608	1	-3
440.802	1	0
441.996	1	1
443.190	1	-1
444.384	1	-1
445.578	1	-3
446.771	1	-2
447.965	1	5
449.159	1	-2
450.352	1	-1
451.546	1	2
452.739	1	2
453.933	1	-6
455.126	1	1
456.320	1	8
457.513	1	-5
458.706	1	9
459.899	1	0
461.093	1	7
462.286	1	-2
463.479	1	6
464.672	1	-1
465.865	1	2
467.058	1	-2
468.251	1	4
469.444	1	14
470.637	1	-6
471.830	1	7
473.023	1	10
474.215	1	12
475.408	1	7
476.601	1	2
477.793	1	-5
478.986	1	-1
480.179	1	6
481.371	1	-9
482.564	1	0
483.756	1	0
484.948	1	-4
486.141	1	6
487.333	1	-2
488.525	1	-5
489.718	1	-12
490.910	1	8
492.102	1	10
493.294	1	-8
494.486	1	3
495.678	1	-7
496.870	1	3
498.062	1	0
499.254	1	-1
500.446	1	-2
501.638	1	0
502.829	1	2
504.021	1	-4
505.213	1	-7
506.404	1	-4
507.596	1	7
508.788	1	3
509.979	1	-7
511.171	1	7
512.362	1	8
513.553	1	0
514.745	1	7
515.936	1	3
517.127	1	10
518.319	1	-1
519.510	1	-5
520.701	1	2
521.892	1	1
523.083	1	-3
524.274	1	4
525.465	1	17
526.656	1	3
527.847	1	-8
529.038	1	8
530.229	1	5
531.419	1	4
532.610	1	14
533.801	1	1
534.991	1	-2
536.182	1	0
537.373	1	3
538.563	1	0
539.754	1	9
540.944	1	3
542.134	1	8
543.325	1	1
544.515	1	4
545.705	1	1
546.896	1	-3
548.086	1	7
549.276	1	4
550.466	1	4
551.656	1	-2
552.846	1	5
554.036	1	11
555.226	1	1
556.416	1	13
557.606	1	-2
558.796	1	9
559.986	1	3
561.175	1	0
562.365	1	7
563.555	1	6
564.744	1	22
565.934	1	14
567.123	1	3
568.313	1	6
569.502	1	7
570.692	1	10
571.881	1	-2
573.070	1	5
574.260	1	6
575.449	1	2
576.638	1	3
577.827	1	0
579.016	1	2
580.205	1	-3
581.394	1	-4
582.583	1	13
583.772	1	16
584.961	1	-5
586.150	1	6
587.339	1	2
588.528	1	-6
589.717	1	-1
590.905	1	-3
592.094	1	9
593.283	1	-3
594.471	1	5
595.660	1	4
596.848	1	10
598.037	1	2
599.225	1	4
600.413	1	6
601.602	1	3
602.790	1	6
603.978	1	4
605.166	1	-1
606.355	1	-7
607.543	1	9
608.731	1	-5
609.919	1	-9
611.107	1	9
612.295	1	3
613.483	1	3
614.671	1	5
615.858	1	-8
617.046	1	-4
618.234	1	-6
619.422	1	18
620.609	1	8
621.797	1	5
622.985	1	0
624.172	1	3
625.360	1	1
626.547	1	-1
627.735	1	-3
628.922	1	1
630.109	1	-6
631.297	1	0
632.484	1	5
633.671	1	6
634.858	1	4
636.045	1	-9
637.232	1	0
638.419	1	-4
639.606	1	5
640.793	1	-1
641.980	1	13
643.167	1	7
644.354	1	9
645.541	1	3
646.728	1	15
647.914	1	-1
649.101	1	1
650.288	1	4
651.474	1	1
652.661	1	5
653.847	1	11
655.034	1	2
656.220	1	-4
657.406	1	-4
658.593	1	8
659.779	1	3
660.965	1	9
662.152	1	0
663.338	1	-5
664.524	1	11
665.710	1	-5
666.896	1	5
668.082	1	3
669.268	1	-1
670.454	1	8
671.640	1	7
672.826	1	0
674.011	1	4
675.197	1	1
676.383	1	-1
677.569	1	19
678.754	1	7
679.940	1	-9
681.125	1	1
682.311	1	4
683.496	1	-6
684.682	1	6
685.867	1	2
687.053	1	19
688.238	1	8
688.746	1	1

File: GaN_sample D_spot15_UVVIS_150 K_200um_450 ms 2x2mm1_318.txt
340.368	1	-2
341.565	1	4
342.763	1	0
343.960	1	5
345.157	1	14
346.354	1	4
347.552	1	13
348.749	1	9
349.946	1	0
351.143	1	4
352.340	1	8
353.537	1	-1
354.734	1	-4
355.931	1	4
357.127	1	9
358.324	1	1
359.521	1	14
360.718	1	0
361.914	1	6
363.111	1	3
364.308	1	8
365.504	1	-1
366.701	1	10
367.897	1	6
369.093	1	7
370.290	1	22
371.486	1	17
372.682	1	8
373.879	1	3
375.075	1	-7
376.271	1	2
377.467	1	14
378.663	1	-1
379.859	1	1
381.055	1	-6
382.251	1	2
383.447	1	8
384.643	1	6
385.839	1	10
387.035	1	0
388.230	1	3
389.426	1	0
390.622	1	-9
391.817	1	-2
393.013	1	11
394.208	1	7
395.404	1	4
396.599	1	1
397.795	1	-6
398.990	1	6
400.186	1	5
401.381	1	-3
402.576	1	-1
403.771	1	-7
404.967	1	2
406.162	1	-6
407.357	1	6
408.552	1	-1
409.747	1	7
410.942	1	8
412.137	1	2
413.332	1	7
414.526	1	-10
415.721	1	4
416.916	1	-11
418.111	1	9
419.305	1	3
420.500	1	2
421.695	1	2
422.889	1	1
424.084	1	5
425.278	1	-5
426.472	1	10
427.667	1	-4
428.861	1	7
430.055	1	7
431.250	1	7
432.444	1	10
433.638	1	3
434.832	1	1
436.026	1	0
437.220	1	4
438.414	1	9
439.608	1	-1
440.802	1	-2
441.996	1	5
443.190	1	-1
444.384	1	7
445.578	1	-4
446.771	1	8
447.965	1	0
449.159	1	-9
450.352	1	-9
451.546	1	-3
452.739	1	4
453.933	1	-4
455.126	1	3
456.320	1	0
457.513	1	-2
458.706	1	9
459.899	1	2
461.093	1	3
462.286	1	-8
463.479	1	3
464.672	1	9
465.865	1	-3
467.058	1	3
468.251	1	-2
469.444	1	-5
470.637	1	6
471.830	1	-2
473.023	1	9
474.215	1	8
475.408	1	0
476.601	1	-3
477.793	1	4
478.986	1	7
480.179	1	7
481.371	1	-2
482.564	1	0
483.756	1	4
484.948	1	5
486.141	1	4
487.333	1	-11
488.525	1	-3
489.718	1	-5
490.910	1	2
492.102	1	1
493.294	1	-10
494.486	1	-6
495.678	1	-1
496.870	1	4
498.062	1	0
499.254	1	-6
500.446	1	-7
501.638	1	-2
502.829	1	-8
504.021	1	6
505.213	1	-10
506.404	1	4
507.596	1	5
508.788	1	-4
509.979	1	2
511.171	1	11
512.362	1	12
513.553	1	2
514.745	1	5
515.936	1	5
517.127	1	9
518.319	1	5
519.510	1	-7
520.701	1	6
521.892	1	2
523.083	1	0
524.274	1	-5
525.465	1	5
526.656	1	5
527.847	1	-4
529.038	1	10
530.229	1	5
531.419	1	5
532.610	1	16
533.801	1	7
534.991	1	-1
536.182	1	1
537.373	1	3
538.563	1	4
539.754	1	-9
540.944	1	6
542.134	1	1
543.325	1	5
544.515	1	-4
545.705	1	0
546.896	1	0
548.086	1	12
549.276	1	1
550.466	1	5
551.656	1	0
552.846	1	9
554.036	1	5
555.226	1	-2
556.416	1	17
557.606	1	-11
558.796	1	17
559.986	1	-1
561.175	1	0
562.365	1	-1
563.555	1	5
564.744	1	9
565.934	1	5
567.123	1	1
568.313	1	4
569.502	1	0
570.692	1	7
571.881	1	-7
573.070	1	4
574.260	1	9
575.449	1	1
576.638	1	10
577.827	1	2
579.016	1	-5
580.205	1	7
581.394	1	2
582.583	1	0
583.772	1	8
584.961	1	0
586.150	1	-2
587.339	1	1
588.528	1	2
589.717	1	4
590.905	1	1
592.094	1	5
593.283	1	3
594.471	1	-3
595.660	1	5
596.848	1	2
598.037	1	-1
599.225	1	-9
600.413	1	1
601.602	1	11
602.790	1	7
603.978	1	2
605.166	1	-4
606.355	1	-16
607.543	1	8
608.731	1	-9
609.919	1	1
611.107	1	6
612.295	1	4
613.483	1	-2
614.671	1	2
615.858	1	-12
617.046	1	3
618.234	1	-5
619.422	1	13
620.609	1	-11
621.797	1	0
622.985	1	2
624.172	1	-2
625.360	1	-9
626.547	1	-5
627.735	1	0
628.922	1	7
630.109	1	-10
631.297	1	8
632.484	1	15
633.671	1	1
634.858	1	3
636.045	1	-5
637.232	1	4
638.419	1	3
639.606	1	6
640.793	1	3
641.980	1	0
643.167	1	1
644.354	1	0
645.541	1	-2
646.728	1	0
647.914	1	9
649.101	1	5
650.288	1	8
651.474	1	9
652.661	1	-1
653.847	1	-2
655.034	1	1
656.220	1	7
657.406	1	-4
658.593	1	5
659.779	1	-1
660.965	1	-2
662.152	1	-4
663.338	1	3
664.524	1	6
665.710	1	3
666.896	1	8
668.082	1	7
669.268	1	-3
670.454	1	-2
671.640	1	-3
672.826	1	-4
674.011	1	2
675.197	1	10
676.383	1	4
677.569	1	10
678.754	1	2
679.940	1	-11
681.125	1	1
682.311	1	9
683.496	1	-4
684.682	1	8
685.867	1	1
687.053	1	16
688.238	1	1
688.746	1	2

File: GaN_sample D_spot15_UVVIS_150 K_200um_450 ms 2x2mm1_319.txt
340.368	1	-4
341.565	1	7
342.763	1	-4
343.960	1	8
345.157	1	5
346.354	1	-1
347.552	1	16
348.749	1	7
349.946	1	-3
351.143	1	7
352.340	1	8
353.537	1	-6
354.734	1	-3
355.931	1	2
357.127	1	8
358.324	1	-3
359.521	1	11
360.718	1	4
361.914	1	-2
363.111	1	2
364.308	1	1
365.504	1	0
366.701	1	2
367.897	1	19
369.093	1	6
370.290	1	3
371.486	1	15
372.682	1	11
373.879	1	8
375.075	1	-6
376.271	1	-9
377.467	1	8
378.663	1	5
379.859	1	-1
381.055	1	0
382.251	1	-7
383.447	1	4
384.643	1	-4
385.839	1	5
387.035	1	-5
388.230	1	3
389.426	1	-4
390.622	1	-2
391.817	1	-7
393.013	1	8
394.208	1	4
395.404	1	5
396.599	1	1
397.795	1	3
398.990	1	10
400.186	1	6
401.381	1	4
402.576	1	0
403.771	1	-7
404.967	1	7
406.162	1	-7
407.357	1	7
408.552	1	-2
409.747	1	3
410.942	1	6
412.137	1	-5
413.332	1	7
414.526	1	-8
415.721	1	1
416.916	1	-6
418.111	1	0
419.305	1	1
420.500	1	13
421.695	1	5
422.889	1	3
424.084	1	8
425.278	1	5
426.472	1	10
427.667	1	-2
428.861	1	-1
430.055	1	5
431.250	1	8
432.444	1	1
433.638	1	13
434.832	1	-3
436.026	1	-3
437.220	1	9
438.414	1	10
439.608	1	-11
440.802	1	-1
441.996	1	1
443.190	1	3
444.384	1	5
445.578	1	-2
446.771	1	0
447.965	1	2
449.159	1	-4
450.352	1	-1
451.546	1	2
452.739	1	3
453.933	1	-9
455.126	1	2
456.320	1	4
457.513	1	-3
458.706	1	3
459.899	1	-3
461.093	1	10
462.286	1	-5
463.479	1	0
464.672	1	-1
465.865	1	9
467.058	1	4
468.251	1	-2
469.444	1	4
470.637	1	4
471.830	1	-7
473.023	1	2
474.215	1	2
475.408	1	1
476.601	1	4
477.793	1	3
478.986	1	8
480.179	1	-2
481.371	1	-18
482.564	1	3
483.756	1	12
484.948	1	7
486.141	1	17
487.333	1	-3
488.525	1	-4
489.718	1	-10
490.910	1	14
492.102	1	0
493.294	1	-8
494.486	1	0
495.678	1	4
496.870	1	2
498.062	1	3
499.254	1	-7
500.446	1	-6
501.638	1	-1
502.829	1	-8
504.021	1	7
505.213	1	1
506.404	1	9
507.596	1	5
508.788	1	-1
509.979	1	9
511.171	1	9
512.362	1	7
513.553	1	-3
514.745	1	2
515.936	1	6
517.127	1	8
518.319	1	4
519.510	1	-4
520.701	1	10
521.892	1	2
523.083	1	-3
524.274	1	2
525.465	1	12
526.656	1	2
527.847	1	-9
529.038	1	-1
530.229	1	3
531.419	1	5
532.610	1	6
533.801	1	5
534.991	1	3
536.182	1	-6
537.373	1	1
538.563	1	-9
539.754	1	4
540.944	1	7
542.134	1	-2
543.325	1	13
544.515	1	6
545.705	1	7
546.896	1	12
548.086	1	-5
549.276	1	2
550.466	1	-2
551.656	1	9
552.846	1	5
554.036	1	1
555.226	1	-1
556.416	1	1
557.606	1	-6
558.796	1	17
559.986	1	4
561.175	1	-1
562.365	1	-9
563.555	1	-1
564.744	1	11
565.934	1	13
567.123	1	-5
568.313	1	5
569.502	1	12
570.692	1	-2
571.881	1	6
573.070	1	-3
574.260	1	-1
575.449	1	-3
576.638	1	-1
577.827	1	-1
579.016	1	2
580.205	1	-2
581.394	1	-9
582.583	1	-1
583.772	1	12
584.961	1	1
586.150	1	4
587.339	1	5
588.528	1	4
589.717	1	2
590.905	1	7
592.094	1	2
593.283	1	-1
594.471	1	-2
595.660	1	4
596.848	1	2
598.037	1	0
599.225	1	-1
600.413	1	9
601.602	1	15
602.790	1	2
603.978	1	3
605.166	1	2
606.355	1	-3
607.543	1	9
608.731	1	-12
609.919	1	-2
611.107	1	1
612.295	1	11
613.483	1	4
614.671	1	10
615.858	1	-6
617.046	1	1
618.234	1	-8
619.422	1	1
620.609	1	-5
621.797	1	0
622.985	1	-2
624.172	1	3
625.360	1	0
626.547	1	-8
627.735	1	3
628.922	1	1
630.109	1	-13
631.297	1	9
632.484	1	2
633.671	1	12
634.858	1	5
636.045	1	-8
637.232	1	6
638.419	1	0
639.606	1	9
640.793	1	5
641.980	1	15
643.167	1	-4
644.354	1	8
645.541	1	-2
646.728	1	4
647.914	1	-6
649.101	1	-10
650.288	1	10
651.474	1	9
652.661	1	7
653.847	1	7
655.034	1	3
656.220	1	-3
657.406	1	-3
658.593	1	16
659.779	1	2
660.965	1	1
662.152	1	-6
663.338	1	4
664.524	1	8
665.710	1	4
666.896	1	-2
668.082	1	5
669.268	1	-1
670.454	1	9
671.640	1	5
672.826	1	0
674.011	1	-1
675.197	1	1
676.383	1	-8
677.569	1	14
678.754	1	-4
679.940	1	-11
681.125	1	-2
682.311	1	2
683.496	1	5
684.682	1	0
685.867	1	-4
687.053	1	9
688.238	1	7
688.746	1	-5

File: GaN_sample D_spot15_UVVIS_150 K_200um_450 ms 2x2mm1_320.txt
340.368	1	-7
341.565	1	6
342.763	1	3
343.960	1	-2
345.157	1	16
346.354	1	2
347.552	1	5
348.749	1	8
349.946	1	-5
351.143	1	0
352.340	1	5
353.537	1	4
354.734	1	12
355.931	1	9
357.127	1	-4
358.324	1	6
359.521	1	15
360.718	1	1
361.914	1	5
363.111	1	9
364.308	1	2
365.504	1	-1
366.701	1	1
367.897	1	10
369.093	1	3
370.290	1	7
371.486	1	12
372.682	1	6
373.879	1	-2
375.075	1	-2
376.271	1	5
377.467	1	17
378.663	1	6
379.859	1	7
381.055	1	2
382.251	1	-11
383.447	1	2
384.643	1	-2
385.839	1	9
387.035	1	7
388.230	1	3
389.426	1	-4
390.622	1	-7
391.817	1	-5
393.013	1	6
394.208	1	2
395.404	1	10
396.599	1	5
397.795	1	-1
398.990	1	5
400.186	1	-6
401.381	1	-2
402.576	1	1
403.771	1	-10
404.967	1	7
406.162	1	7
407.357	1	5
408.552	1	-8
409.747	1	2
410.942	1	3
412.137	1	-10
413.332	1	7
414.526	1	-5
415.721	1	3
416.916	1	-8
418.111	1	-3
419.305	1	13
420.500	1	0
421.695	1	11
422.889	1	8
424.084	1	-2
425.278	1	-5
426.472	1	2
427.667	1	1
428.861	1	6
430.055	1	6
431.250	1	-1
432.444	1	-7
433.638	1	10
434.832	1	0
436.026	1	6
437.220	1	3
438.414	1	3
439.608	1	-7
440.802	1	4
441.996	1	3
443.190	1	8
444.384	1	8
445.578	1	-2
446.771	1	1
447.965	1	5
449.159	1	-3
450.352	1	-1
451.546	1	-7
452.739	1	10
453.933	1	-1
455.126	1	-5
456.320	1	14
457.513	1	3
458.706	1	12
459.899	1	-1
461.093	1	4
462.286	1	1
463.479	1	-4
464.672	1	1
465.865	1	-1
467.058	1	0
468.251	1	-6
469.444	1	8
470.637	1	3
471.830	1	8
473.023	1	10
474.215	1	0
475.408	1	-1
476.601	1	3
477.793	1	-6
478.986	1	7
480.179	1	8
481.371	1	-2
482.564	1	3
483.756	1	2
484.948	1	2
486.141	1	9
487.333	1	-3
488.525	1	-5
489.718	1	-9
490.910	1	8
492.102	1	5
493.294	1	-11
494.486	1	5
495.678	1	2
496.870	1	0
498.062	1	-5
499.254	1	-2
500.446	1	-9
501.638	1	1
502.829	1	-4
504.021	1	2
505.213	1	-12
506.404	1	1
507.596	1	1
508.788	1	1
509.979	1	3
511.171	1	-1
512.362	1	5
513.553	1	0
514.745	1	0
515.936	1	-5
517.127	1	5
518.319	1	2
519.510	1	-1
520.701	1	6
521.892	1	2
523.083	1	-2
524.274	1	7
525.465	1	-2
526.656	1	4
527.847	1	-8
529.038	1	3
530.229	1	9
531.419	1	6
532.610	1	-1
533.801	1	5
534.991	1	0
536.182	1	4
537.373	1	-1
538.563	1	-2
539.754	1	-3
540.944	1	-2
542.134	1	8
543.325	1	1
544.515	1	-4
545.705	1	3
546.896	1	8
548.086	1	8
549.276	1	7
550.466	1	-1
551.656	1	3
552.846	1	-2
554.036	1	10
555.226	1	2
556.416	1	7
557.606	1	-9
558.796	1	11
559.986	1	11
561.175	1	1
562.365	1	2
563.555	1	7
564.744	1	11
565.934	1	9
567.123	1	-2
568.313	1	4
569.502	1	5
570.692	1	5
571.881	1	1
573.070	1	2
574.260	1	1
575.449	1	-10
576.638	1	8
577.827	1	-9
579.016	1	-1
580.205	1	-2
581.394	1	-4
582.583	1	0
583.772	1	10
584.961	1	-4
586.150	1	4
587.339	1	3
588.528	1	3
589.717	1	-4
590.905	1	2
592.094	1	7
593.283	1	-1
594.471	1	-4
595.660	1	12
596.848	1	3
598.037	1	-4
599.225	1	7
600.413	1	-1
601.602	1	-1
602.790	1	5
603.978	1	-2
605.166	1	-2
606.355	1	-11
607.543	1	1
608.731	1	-15
609.919	1	-9
611.107	1	3
612.295	1	5
613.483	1	-1
614.671	1	6
615.858	1	-3
617.046	1	2
618.234	1	-9
619.422	1	16
620.609	1	-2
621.797	1	-2
622.985	1	-5
624.172	1	0
625.360	1	11
626.547	1	-6
627.735	1	0
628.922	1	3
630.109	1	-4
631.297	1	-3
632.484	1	-1
633.671	1	3
634.858	1	1
636.045	1	-5
637.232	1	1
638.419	1	3
639.606	1	9
640.793	1	2
641.980	1	2
643.167	1	4
644.354	1	2
645.541	1	2
646.728	1	15
647.914	1	5
649.101	1	-1
650.288	1	-3
651.474	1	2
652.661	1	5
653.847	1	8
655.034	1	2
656.220	1	6
657.406	1	-1
658.593	1	8
659.779	1	1
660.965	1	4
662.152	1	3
663.338	1	2
664.524	1	11
665.710	1	11
666.896	1	4
668.082	1	6
669.268	1	1
670.454	1	3
671.640	1	10
672.826	1	6
674.011	1	-1
675.197	1	-3
676.383	1	7
677.569	1	6
678.754	1	-7
679.940	1	7
681.125	1	0
682.311	1	7
683.496	1	0
684.682	1	4
685.867	1	0
687.053	1	10
688.238	1	6
688.746	1	3