Folder: cryo-il_analysis/Data/GaN_200K_800ms (part 33)

File: GaN_sample F_spot 12_UVVIS_200 K_200um_800 ms 2x2mm1_335.txt
340.368	1	9
341.565	1	-5
342.763	1	1
343.960	1	3
345.157	1	-10
346.354	1	-3
347.552	1	-11
348.749	1	-3
349.946	1	-9
351.143	1	-3
352.340	1	6
353.537	1	-2
354.734	1	-2
355.931	1	-3
357.127	1	-2
358.324	1	-2
359.521	1	11
360.718	1	2
361.914	1	6
363.111	1	8
364.308	1	-8
365.504	1	5
366.701	1	8
367.897	1	17
369.093	1	5
370.290	1	8
371.486	1	15
372.682	1	13
373.879	1	11
375.075	1	2
376.271	1	5
377.467	1	16
378.663	1	-6
379.859	1	6
381.055	1	15
382.251	1	-2
383.447	1	-7
384.643	1	8
385.839	1	-2
387.035	1	-1
388.230	1	5
389.426	1	1
390.622	1	5
391.817	1	4
393.013	1	-7
394.208	1	1
395.404	1	-2
396.599	1	-3
397.795	1	2
398.990	1	-3
400.186	1	7
401.381	1	-5
402.576	1	-5
403.771	1	7
404.967	1	1
406.162	1	7
407.357	1	1
408.552	1	-9
409.747	1	-9
410.942	1	4
412.137	1	2
413.332	1	2
414.526	1	-5
415.721	1	0
416.916	1	-9
418.111	1	2
419.305	1	4
420.500	1	1
421.695	1	-5
422.889	1	-3
424.084	1	-1
425.278	1	12
426.472	1	-1
427.667	1	4
428.861	1	-3
430.055	1	3
431.250	1	-8
432.444	1	10
433.638	1	-7
434.832	1	1
436.026	1	7
437.220	1	1
438.414	1	-2
439.608	1	-10
440.802	1	-9
441.996	1	4
443.190	1	1
444.384	1	-8
445.578	1	-13
446.771	1	12
447.965	1	4
449.159	1	-9
450.352	1	1
451.546	1	-3
452.739	1	1
453.933	1	-1
455.126	1	-8
456.320	1	-9
457.513	1	6
458.706	1	-1
459.899	1	-5
461.093	1	2
462.286	1	-6
463.479	1	-3
464.672	1	0
465.865	1	-2
467.058	1	-2
468.251	1	-1
469.444	1	4
470.637	1	-4
471.830	1	-2
473.023	1	-1
474.215	1	9
475.408	1	-8
476.601	1	0
477.793	1	9
478.986	1	-2
480.179	1	-3
481.371	1	-3
482.564	1	2
483.756	1	3
484.948	1	-9
486.141	1	-7
487.333	1	-3
488.525	1	-6
489.718	1	-1
490.910	1	-4
492.102	1	-6
493.294	1	1
494.486	1	1
495.678	1	-11
496.870	1	4
498.062	1	1
499.254	1	3
500.446	1	-8
501.638	1	-2
502.829	1	-3
504.021	1	4
505.213	1	7
506.404	1	3
507.596	1	-5
508.788	1	14
509.979	1	-3
511.171	1	-13
512.362	1	-7
513.553	1	-10
514.745	1	-8
515.936	1	1
517.127	1	-6
518.319	1	-1
519.510	1	-10
520.701	1	1
521.892	1	10
523.083	1	-6
524.274	1	0
525.465	1	7
526.656	1	-5
527.847	1	0
529.038	1	2
530.229	1	0
531.419	1	9
532.610	1	-2
533.801	1	6
534.991	1	5
536.182	1	3
537.373	1	6
538.563	1	3
539.754	1	5
540.944	1	-5
542.134	1	-2
543.325	1	-7
544.515	1	2
545.705	1	-4
546.896	1	3
548.086	1	3
549.276	1	-5
550.466	1	-8
551.656	1	0
552.846	1	-3
554.036	1	-7
555.226	1	7
556.416	1	-5
557.606	1	10
558.796	1	1
559.986	1	-11
561.175	1	0
562.365	1	0
563.555	1	2
564.744	1	1
565.934	1	11
567.123	1	11
568.313	1	7
569.502	1	6
570.692	1	-1
571.881	1	10
573.070	1	1
574.260	1	12
575.449	1	-5
576.638	1	-8
577.827	1	-3
579.016	1	7
580.205	1	-1
581.394	1	-2
582.583	1	15
583.772	1	4
584.961	1	-2
586.150	1	2
587.339	1	4
588.528	1	-1
589.717	1	1
590.905	1	0
592.094	1	1
593.283	1	-6
594.471	1	8
595.660	1	6
596.848	1	5
598.037	1	-9
599.225	1	-3
600.413	1	14
601.602	1	6
602.790	1	1
603.978	1	-1
605.166	1	-1
606.355	1	1
607.543	1	-6
608.731	1	-11
609.919	1	8
611.107	1	-2
612.295	1	-6
613.483	1	4
614.671	1	6
615.858	1	-3
617.046	1	4
618.234	1	5
619.422	1	-11
620.609	1	4
621.797	1	-7
622.985	1	-2
624.172	1	-2
625.360	1	1
626.547	1	4
627.735	1	3
628.922	1	8
630.109	1	-9
631.297	1	6
632.484	1	-4
633.671	1	2
634.858	1	4
636.045	1	4
637.232	1	0
638.419	1	-1
639.606	1	-5
640.793	1	12
641.980	1	3
643.167	1	-6
644.354	1	-7
645.541	1	7
646.728	1	5
647.914	1	0
649.101	1	2
650.288	1	7
651.474	1	-7
652.661	1	-5
653.847	1	12
655.034	1	11
656.220	1	-5
657.406	1	5
658.593	1	9
659.779	1	-5
660.965	1	12
662.152	1	7
663.338	1	5
664.524	1	3
665.710	1	1
666.896	1	-11
668.082	1	2
669.268	1	-7
670.454	1	0
671.640	1	5
672.826	1	-5
674.011	1	1
675.197	1	-10
676.383	1	-10
677.569	1	-10
678.754	1	-9
679.940	1	-6
681.125	1	2
682.311	1	4
683.496	1	0
684.682	1	-3
685.867	1	-8
687.053	1	4
688.238	1	5
688.746	1	2

File: GaN_sample F_spot 12_UVVIS_200 K_200um_800 ms 2x2mm1_336.txt
340.368	1	0
341.565	1	-10
342.763	1	6
343.960	1	-2
345.157	1	-6
346.354	1	6
347.552	1	1
348.749	1	-4
349.946	1	-5
351.143	1	-3
352.340	1	5
353.537	1	-9
354.734	1	14
355.931	1	-6
357.127	1	-4
358.324	1	-1
359.521	1	11
360.718	1	1
361.914	1	5
363.111	1	9
364.308	1	4
365.504	1	10
366.701	1	5
367.897	1	7
369.093	1	7
370.290	1	12
371.486	1	15
372.682	1	8
373.879	1	10
375.075	1	5
376.271	1	2
377.467	1	5
378.663	1	3
379.859	1	8
381.055	1	11
382.251	1	-3
383.447	1	-2
384.643	1	9
385.839	1	0
387.035	1	8
388.230	1	12
389.426	1	10
390.622	1	0
391.817	1	9
393.013	1	-4
394.208	1	-1
395.404	1	-1
396.599	1	-5
397.795	1	-3
398.990	1	-2
400.186	1	-11
401.381	1	-3
402.576	1	-3
403.771	1	11
404.967	1	3
406.162	1	6
407.357	1	-8
408.552	1	5
409.747	1	0
410.942	1	7
412.137	1	-2
413.332	1	-3
414.526	1	-7
415.721	1	-1
416.916	1	-6
418.111	1	-2
419.305	1	3
420.500	1	-2
421.695	1	-6
422.889	1	-6
424.084	1	-1
425.278	1	11
426.472	1	-8
427.667	1	-3
428.861	1	-3
430.055	1	3
431.250	1	-2
432.444	1	0
433.638	1	-1
434.832	1	3
436.026	1	8
437.220	1	10
438.414	1	-7
439.608	1	-9
440.802	1	-2
441.996	1	3
443.190	1	0
444.384	1	-5
445.578	1	-11
446.771	1	10
447.965	1	5
449.159	1	0
450.352	1	-2
451.546	1	-7
452.739	1	7
453.933	1	-7
455.126	1	-12
456.320	1	-1
457.513	1	1
458.706	1	2
459.899	1	0
461.093	1	-2
462.286	1	-6
463.479	1	2
464.672	1	5
465.865	1	1
467.058	1	4
468.251	1	-3
469.444	1	-13
470.637	1	4
471.830	1	-3
473.023	1	3
474.215	1	11
475.408	1	1
476.601	1	0
477.793	1	-6
478.986	1	2
480.179	1	5
481.371	1	-6
482.564	1	-4
483.756	1	10
484.948	1	3
486.141	1	-3
487.333	1	3
488.525	1	0
489.718	1	0
490.910	1	-7
492.102	1	-7
493.294	1	-4
494.486	1	-5
495.678	1	-1
496.870	1	5
498.062	1	-1
499.254	1	13
500.446	1	-9
501.638	1	-9
502.829	1	-6
504.021	1	-2
505.213	1	8
506.404	1	-2
507.596	1	1
508.788	1	13
509.979	1	-6
511.171	1	-1
512.362	1	-1
513.553	1	-6
514.745	1	5
515.936	1	-1
517.127	1	3
518.319	1	-7
519.510	1	-7
520.701	1	1
521.892	1	1
523.083	1	0
524.274	1	-2
525.465	1	6
526.656	1	-5
527.847	1	7
529.038	1	2
530.229	1	2
531.419	1	5
532.610	1	-3
533.801	1	9
534.991	1	-6
536.182	1	0
537.373	1	5
538.563	1	2
539.754	1	12
540.944	1	1
542.134	1	11
543.325	1	9
544.515	1	-5
545.705	1	4
546.896	1	-5
548.086	1	-5
549.276	1	-7
550.466	1	2
551.656	1	14
552.846	1	-2
554.036	1	-8
555.226	1	-6
556.416	1	-3
557.606	1	-3
558.796	1	3
559.986	1	-2
561.175	1	4
562.365	1	-6
563.555	1	-3
564.744	1	10
565.934	1	-2
567.123	1	4
568.313	1	18
569.502	1	-3
570.692	1	6
571.881	1	4
573.070	1	6
574.260	1	11
575.449	1	-2
576.638	1	-1
577.827	1	-9
579.016	1	12
580.205	1	-1
581.394	1	-4
582.583	1	17
583.772	1	8
584.961	1	9
586.150	1	1
587.339	1	11
588.528	1	7
589.717	1	3
590.905	1	1
592.094	1	-2
593.283	1	-5
594.471	1	10
595.660	1	-8
596.848	1	3
598.037	1	4
599.225	1	-10
600.413	1	8
601.602	1	14
602.790	1	-7
603.978	1	1
605.166	1	5
606.355	1	-1
607.543	1	-5
608.731	1	2
609.919	1	2
611.107	1	4
612.295	1	0
613.483	1	4
614.671	1	5
615.858	1	8
617.046	1	1
618.234	1	-5
619.422	1	-19
620.609	1	8
621.797	1	-3
622.985	1	2
624.172	1	6
625.360	1	6
626.547	1	3
627.735	1	-2
628.922	1	5
630.109	1	-5
631.297	1	-9
632.484	1	-2
633.671	1	-4
634.858	1	1
636.045	1	4
637.232	1	-3
638.419	1	0
639.606	1	-10
640.793	1	12
641.980	1	10
643.167	1	-8
644.354	1	0
645.541	1	-5
646.728	1	-2
647.914	1	4
649.101	1	-1
650.288	1	2
651.474	1	3
652.661	1	-2
653.847	1	5
655.034	1	1
656.220	1	-8
657.406	1	4
658.593	1	4
659.779	1	3
660.965	1	6
662.152	1	1
663.338	1	12
664.524	1	4
665.710	1	-3
666.896	1	-9
668.082	1	2
669.268	1	-6
670.454	1	1
671.640	1	1
672.826	1	3
674.011	1	-4
675.197	1	-5
676.383	1	8
677.569	1	0
678.754	1	-6
679.940	1	-1
681.125	1	0
682.311	1	9
683.496	1	5
684.682	1	1
685.867	1	2
687.053	1	-2
688.238	1	2
688.746	1	2

File: GaN_sample F_spot 12_UVVIS_200 K_200um_800 ms 2x2mm1_339.txt
340.368	1	2
341.565	1	-14
342.763	1	1
343.960	1	-2
345.157	1	-10
346.354	1	-1
347.552	1	-4
348.749	1	-5
349.946	1	-11
351.143	1	1
352.340	1	-2
353.537	1	4
354.734	1	4
355.931	1	-6
357.127	1	-5
358.324	1	-2
359.521	1	10
360.718	1	-1
361.914	1	9
363.111	1	4
364.308	1	-5
365.504	1	13
366.701	1	11
367.897	1	12
369.093	1	13
370.290	1	17
371.486	1	22
372.682	1	10
373.879	1	-2
375.075	1	-3
376.271	1	13
377.467	1	12
378.663	1	-2
379.859	1	-10
381.055	1	9
382.251	1	-12
383.447	1	-1
384.643	1	16
385.839	1	-6
387.035	1	9
388.230	1	9
389.426	1	3
390.622	1	2
391.817	1	1
393.013	1	-7
394.208	1	5
395.404	1	-8
396.599	1	-13
397.795	1	12
398.990	1	3
400.186	1	-6
401.381	1	-4
402.576	1	-9
403.771	1	2
404.967	1	11
406.162	1	4
407.357	1	-4
408.552	1	-12
409.747	1	0
410.942	1	9
412.137	1	2
413.332	1	9
414.526	1	-2
415.721	1	2
416.916	1	-6
418.111	1	0
419.305	1	-3
420.500	1	-4
421.695	1	-1
422.889	1	0
424.084	1	6
425.278	1	8
426.472	1	-6
427.667	1	15
428.861	1	-2
430.055	1	6
431.250	1	1
432.444	1	4
433.638	1	1
434.832	1	3
436.026	1	13
437.220	1	3
438.414	1	-14
439.608	1	-10
440.802	1	-10
441.996	1	7
443.190	1	2
444.384	1	-2
445.578	1	-8
446.771	1	11
447.965	1	1
449.159	1	-5
450.352	1	0
451.546	1	1
452.739	1	4
453.933	1	1
455.126	1	-6
456.320	1	-7
457.513	1	11
458.706	1	3
459.899	1	5
461.093	1	6
462.286	1	-8
463.479	1	-2
464.672	1	-4
465.865	1	-6
467.058	1	-5
468.251	1	-7
469.444	1	-9
470.637	1	-1
471.830	1	-1
473.023	1	11
474.215	1	5
475.408	1	-3
476.601	1	-6
477.793	1	-1
478.986	1	1
480.179	1	1
481.371	1	-3
482.564	1	0
483.756	1	14
484.948	1	-11
486.141	1	-4
487.333	1	-3
488.525	1	-9
489.718	1	-5
490.910	1	-4
492.102	1	-5
493.294	1	2
494.486	1	-1
495.678	1	3
496.870	1	5
498.062	1	-4
499.254	1	-1
500.446	1	-9
501.638	1	-1
502.829	1	11
504.021	1	-2
505.213	1	6
506.404	1	4
507.596	1	-3
508.788	1	12
509.979	1	3
511.171	1	1
512.362	1	-11
513.553	1	-9
514.745	1	-6
515.936	1	0
517.127	1	-4
518.319	1	-2
519.510	1	-4
520.701	1	-3
521.892	1	6
523.083	1	1
524.274	1	-8
525.465	1	8
526.656	1	5
527.847	1	1
529.038	1	-1
530.229	1	11
531.419	1	-1
532.610	1	-2
533.801	1	8
534.991	1	-4
536.182	1	2
537.373	1	8
538.563	1	15
539.754	1	11
540.944	1	-2
542.134	1	6
543.325	1	3
544.515	1	0
545.705	1	-4
546.896	1	-5
548.086	1	-1
549.276	1	5
550.466	1	-3
551.656	1	-3
552.846	1	2
554.036	1	-3
555.226	1	-8
556.416	1	-7
557.606	1	8
558.796	1	2
559.986	1	-2
561.175	1	8
562.365	1	-4
563.555	1	2
564.744	1	9
565.934	1	4
567.123	1	7
568.313	1	2
569.502	1	-4
570.692	1	4
571.881	1	8
573.070	1	-5
574.260	1	0
575.449	1	-4
576.638	1	-1
577.827	1	-4
579.016	1	6
580.205	1	-1
581.394	1	-4
582.583	1	15
583.772	1	8
584.961	1	4
586.150	1	-8
587.339	1	-2
588.528	1	1
589.717	1	4
590.905	1	6
592.094	1	-1
593.283	1	4
594.471	1	2
595.660	1	-1
596.848	1	3
598.037	1	-5
599.225	1	-5
600.413	1	2
601.602	1	19
602.790	1	1
603.978	1	2
605.166	1	1
606.355	1	1
607.543	1	-1
608.731	1	-9
609.919	1	7
611.107	1	-7
612.295	1	0
613.483	1	0
614.671	1	5
615.858	1	5
617.046	1	4
618.234	1	3
619.422	1	-4
620.609	1	8
621.797	1	0
622.985	1	-4
624.172	1	-2
625.360	1	-2
626.547	1	0
627.735	1	0
628.922	1	8
630.109	1	-10
631.297	1	6
632.484	1	-4
633.671	1	-7
634.858	1	-5
636.045	1	10
637.232	1	-5
638.419	1	-3
639.606	1	0
640.793	1	2
641.980	1	5
643.167	1	-13
644.354	1	-5
645.541	1	-6
646.728	1	-1
647.914	1	-2
649.101	1	-4
650.288	1	10
651.474	1	0
652.661	1	-1
653.847	1	10
655.034	1	9
656.220	1	-6
657.406	1	-1
658.593	1	10
659.779	1	2
660.965	1	9
662.152	1	3
663.338	1	10
664.524	1	5
665.710	1	4
666.896	1	0
668.082	1	8
669.268	1	-5
670.454	1	7
671.640	1	-1
672.826	1	1
674.011	1	-3
675.197	1	-5
676.383	1	4
677.569	1	-8
678.754	1	2
679.940	1	-9
681.125	1	8
682.311	1	2
683.496	1	-3
684.682	1	-4
685.867	1	0
687.053	1	3
688.238	1	6
688.746	1	2

File: GaN_sample F_spot 12_UVVIS_200 K_200um_800 ms 2x2mm1_341.txt
340.368	1	5
341.565	1	-15
342.763	1	4
343.960	1	10
345.157	1	-11
346.354	1	-4
347.552	1	-1
348.749	1	-5
349.946	1	-8
351.143	1	-1
352.340	1	-1
353.537	1	-2
354.734	1	1
355.931	1	-6
357.127	1	-1
358.324	1	2
359.521	1	2
360.718	1	11
361.914	1	3
363.111	1	1
364.308	1	0
365.504	1	19
366.701	1	2
367.897	1	18
369.093	1	6
370.290	1	10
371.486	1	13
372.682	1	16
373.879	1	6
375.075	1	-1
376.271	1	11
377.467	1	-1
378.663	1	0
379.859	1	0
381.055	1	3
382.251	1	-2
383.447	1	0
384.643	1	14
385.839	1	-1
387.035	1	-3
388.230	1	1
389.426	1	7
390.622	1	0
391.817	1	0
393.013	1	-2
394.208	1	2
395.404	1	-8
396.599	1	-3
397.795	1	8
398.990	1	-5
400.186	1	1
401.381	1	-4
402.576	1	0
403.771	1	3
404.967	1	2
406.162	1	2
407.357	1	-7
408.552	1	-2
409.747	1	6
410.942	1	14
412.137	1	4
413.332	1	-9
414.526	1	0
415.721	1	-7
416.916	1	-1
418.111	1	8
419.305	1	-6
420.500	1	-1
421.695	1	-8
422.889	1	-1
424.084	1	-5
425.278	1	10
426.472	1	1
427.667	1	11
428.861	1	5
430.055	1	10
431.250	1	0
432.444	1	-4
433.638	1	7
434.832	1	5
436.026	1	7
437.220	1	5
438.414	1	-14
439.608	1	-10
440.802	1	0
441.996	1	-4
443.190	1	-4
444.384	1	-10
445.578	1	-8
446.771	1	10
447.965	1	7
449.159	1	-2
450.352	1	-2
451.546	1	-11
452.739	1	-1
453.933	1	-3
455.126	1	-12
456.320	1	-2
457.513	1	5
458.706	1	4
459.899	1	-5
461.093	1	1
462.286	1	0
463.479	1	0
464.672	1	-1
465.865	1	-2
467.058	1	4
468.251	1	-5
469.444	1	-8
470.637	1	4
471.830	1	2
473.023	1	3
474.215	1	6
475.408	1	-6
476.601	1	4
477.793	1	-1
478.986	1	-6
480.179	1	2
481.371	1	1
482.564	1	2
483.756	1	7
484.948	1	-14
486.141	1	-7
487.333	1	2
488.525	1	-4
489.718	1	-1
490.910	1	-1
492.102	1	-10
493.294	1	1
494.486	1	6
495.678	1	2
496.870	1	4
498.062	1	2
499.254	1	-7
500.446	1	-6
501.638	1	-2
502.829	1	-2
504.021	1	1
505.213	1	3
506.404	1	-8
507.596	1	-1
508.788	1	16
509.979	1	1
511.171	1	-3
512.362	1	-12
513.553	1	-10
514.745	1	-10
515.936	1	0
517.127	1	-2
518.319	1	-1
519.510	1	4
520.701	1	0
521.892	1	-4
523.083	1	0
524.274	1	-2
525.465	1	3
526.656	1	-1
527.847	1	0
529.038	1	9
530.229	1	0
531.419	1	6
532.610	1	-9
533.801	1	9
534.991	1	0
536.182	1	-4
537.373	1	-1
538.563	1	9
539.754	1	4
540.944	1	4
542.134	1	7
543.325	1	-3
544.515	1	-2
545.705	1	12
546.896	1	-1
548.086	1	5
549.276	1	-3
550.466	1	0
551.656	1	3
552.846	1	8
554.036	1	4
555.226	1	-1
556.416	1	5
557.606	1	6
558.796	1	0
559.986	1	-2
561.175	1	-4
562.365	1	-4
563.555	1	-9
564.744	1	5
565.934	1	6
567.123	1	11
568.313	1	1
569.502	1	1
570.692	1	9
571.881	1	9
573.070	1	1
574.260	1	3
575.449	1	-3
576.638	1	1
577.827	1	-5
579.016	1	9
580.205	1	-4
581.394	1	-4
582.583	1	8
583.772	1	6
584.961	1	-1
586.150	1	-3
587.339	1	-6
588.528	1	-1
589.717	1	3
590.905	1	-5
592.094	1	3
593.283	1	4
594.471	1	12
595.660	1	2
596.848	1	4
598.037	1	2
599.225	1	-8
600.413	1	13
601.602	1	11
602.790	1	5
603.978	1	0
605.166	1	3
606.355	1	9
607.543	1	5
608.731	1	-7
609.919	1	3
611.107	1	-1
612.295	1	-6
613.483	1	-8
614.671	1	3
615.858	1	0
617.046	1	0
618.234	1	7
619.422	1	-9
620.609	1	2
621.797	1	-8
622.985	1	7
624.172	1	0
625.360	1	-2
626.547	1	1
627.735	1	4
628.922	1	6
630.109	1	-6
631.297	1	1
632.484	1	-8
633.671	1	-3
634.858	1	-5
636.045	1	16
637.232	1	-1
638.419	1	6
639.606	1	5
640.793	1	5
641.980	1	5
643.167	1	-1
644.354	1	0
645.541	1	1
646.728	1	3
647.914	1	-5
649.101	1	-2
650.288	1	8
651.474	1	-3
652.661	1	9
653.847	1	8
655.034	1	1
656.220	1	-1
657.406	1	2
658.593	1	10
659.779	1	2
660.965	1	4
662.152	1	-1
663.338	1	10
664.524	1	1
665.710	1	-1
666.896	1	-9
668.082	1	4
669.268	1	-10
670.454	1	8
671.640	1	4
672.826	1	-2
674.011	1	-1
675.197	1	-11
676.383	1	0
677.569	1	-6
678.754	1	-6
679.940	1	-7
681.125	1	-2
682.311	1	5
683.496	1	0
684.682	1	-7
685.867	1	4
687.053	1	-7
688.238	1	0
688.746	1	0

File: GaN_sample F_spot 12_UVVIS_200 K_200um_800 ms 2x2mm1_347.txt
340.368	1	4
341.565	1	-11
342.763	1	2
343.960	1	-7
345.157	1	-5
346.354	1	-4
347.552	1	-1
348.749	1	-2
349.946	1	-2
351.143	1	-2
352.340	1	6
353.537	1	0
354.734	1	5
355.931	1	2
357.127	1	4
358.324	1	3
359.521	1	-2
360.718	1	9
361.914	1	-3
363.111	1	-3
364.308	1	3
365.504	1	16
366.701	1	12
367.897	1	16
369.093	1	18
370.290	1	25
371.486	1	11
372.682	1	12
373.879	1	7
375.075	1	2
376.271	1	6
377.467	1	4
378.663	1	0
379.859	1	-1
381.055	1	9
382.251	1	-7
383.447	1	1
384.643	1	4
385.839	1	8
387.035	1	0
388.230	1	9
389.426	1	-5
390.622	1	-4
391.817	1	1
393.013	1	2
394.208	1	0
395.404	1	-2
396.599	1	-7
397.795	1	4
398.990	1	3
400.186	1	1
401.381	1	-8
402.576	1	-3
403.771	1	4
404.967	1	-6
406.162	1	7
407.357	1	1
408.552	1	-6
409.747	1	-5
410.942	1	8
412.137	1	7
413.332	1	2
414.526	1	-4
415.721	1	2
416.916	1	-19
418.111	1	0
419.305	1	13
420.500	1	-7
421.695	1	-2
422.889	1	-6
424.084	1	0
425.278	1	9
426.472	1	-1
427.667	1	2
428.861	1	-1
430.055	1	2
431.250	1	-7
432.444	1	8
433.638	1	-7
434.832	1	2
436.026	1	7
437.220	1	1
438.414	1	-4
439.608	1	-8
440.802	1	-5
441.996	1	-4
443.190	1	1
444.384	1	-10
445.578	1	-11
446.771	1	13
447.965	1	2
449.159	1	0
450.352	1	-5
451.546	1	1
452.739	1	1
453.933	1	1
455.126	1	-8
456.320	1	-1
457.513	1	1
458.706	1	6
459.899	1	4
461.093	1	0
462.286	1	6
463.479	1	-4
464.672	1	-11
465.865	1	5
467.058	1	-6
468.251	1	2
469.444	1	-1
470.637	1	-1
471.830	1	-1
473.023	1	3
474.215	1	10
475.408	1	6
476.601	1	-3
477.793	1	3
478.986	1	-2
480.179	1	6
481.371	1	5
482.564	1	3
483.756	1	-2
484.948	1	-4
486.141	1	-7
487.333	1	6
488.525	1	-6
489.718	1	2
490.910	1	-6
492.102	1	-6
493.294	1	-2
494.486	1	8
495.678	1	0
496.870	1	6
498.062	1	-3
499.254	1	-7
500.446	1	-9
501.638	1	-7
502.829	1	4
504.021	1	1
505.213	1	11
506.404	1	2
507.596	1	1
508.788	1	15
509.979	1	-1
511.171	1	1
512.362	1	2
513.553	1	-11
514.745	1	-12
515.936	1	-4
517.127	1	-1
518.319	1	3
519.510	1	1
520.701	1	-5
521.892	1	3
523.083	1	2
524.274	1	-6
525.465	1	5
526.656	1	-3
527.847	1	10
529.038	1	5
530.229	1	-8
531.419	1	2
532.610	1	-5
533.801	1	9
534.991	1	-5
536.182	1	-2
537.373	1	9
538.563	1	2
539.754	1	10
540.944	1	-4
542.134	1	12
543.325	1	2
544.515	1	-2
545.705	1	2
546.896	1	-9
548.086	1	2
549.276	1	-1
550.466	1	3
551.656	1	-2
552.846	1	-1
554.036	1	-9
555.226	1	-17
556.416	1	-9
557.606	1	8
558.796	1	3
559.986	1	2
561.175	1	2
562.365	1	4
563.555	1	-3
564.744	1	4
565.934	1	18
567.123	1	5
568.313	1	-5
569.502	1	-9
570.692	1	0
571.881	1	7
573.070	1	2
574.260	1	12
575.449	1	-2
576.638	1	-9
577.827	1	-10
579.016	1	5
580.205	1	-2
581.394	1	0
582.583	1	4
583.772	1	1
584.961	1	-1
586.150	1	3
587.339	1	7
588.528	1	1
589.717	1	7
590.905	1	4
592.094	1	0
593.283	1	0
594.471	1	5
595.660	1	-4
596.848	1	12
598.037	1	3
599.225	1	-7
600.413	1	5
601.602	1	10
602.790	1	6
603.978	1	3
605.166	1	4
606.355	1	9
607.543	1	5
608.731	1	2
609.919	1	5
611.107	1	0
612.295	1	4
613.483	1	2
614.671	1	1
615.858	1	1
617.046	1	-2
618.234	1	9
619.422	1	-7
620.609	1	2
621.797	1	5
622.985	1	2
624.172	1	1
625.360	1	8
626.547	1	4
627.735	1	2
628.922	1	6
630.109	1	-6
631.297	1	-2
632.484	1	-9
633.671	1	1
634.858	1	0
636.045	1	15
637.232	1	-7
638.419	1	-7
639.606	1	4
640.793	1	4
641.980	1	-4
643.167	1	-6
644.354	1	4
645.541	1	2
646.728	1	-6
647.914	1	-7
649.101	1	-6
650.288	1	7
651.474	1	-8
652.661	1	-7
653.847	1	12
655.034	1	-1
656.220	1	-3
657.406	1	10
658.593	1	6
659.779	1	-2
660.965	1	4
662.152	1	-5
663.338	1	7
664.524	1	-2
665.710	1	4
666.896	1	-5
668.082	1	2
669.268	1	-3
670.454	1	5
671.640	1	2
672.826	1	2
674.011	1	0
675.197	1	-7
676.383	1	0
677.569	1	1
678.754	1	-17
679.940	1	-6
681.125	1	6
682.311	1	0
683.496	1	0
684.682	1	-4
685.867	1	0
687.053	1	4
688.238	1	-2
688.746	1	-2

File: GaN_sample F_spot 12_UVVIS_200 K_200um_800 ms 2x2mm1_348.txt
340.368	1	4
341.565	1	-10
342.763	1	1
343.960	1	-5
345.157	1	-10
346.354	1	2
347.552	1	-7
348.749	1	-6
349.946	1	-8
351.143	1	-3
352.340	1	-1
353.537	1	-1
354.734	1	4
355.931	1	-3
357.127	1	10
358.324	1	-4
359.521	1	10
360.718	1	5
361.914	1	5
363.111	1	-3
364.308	1	-1
365.504	1	12
366.701	1	14
367.897	1	15
369.093	1	4
370.290	1	1
371.486	1	21
372.682	1	17
373.879	1	6
375.075	1	5
376.271	1	17
377.467	1	8
378.663	1	1
379.859	1	2
381.055	1	5
382.251	1	0
383.447	1	12
384.643	1	7
385.839	1	0
387.035	1	-6
388.230	1	10
389.426	1	-7
390.622	1	-8
391.817	1	13
393.013	1	-5
394.208	1	-5
395.404	1	-1
396.599	1	9
397.795	1	-2
398.990	1	-7
400.186	1	3
401.381	1	0
402.576	1	-5
403.771	1	11
404.967	1	-4
406.162	1	2
407.357	1	-1
408.552	1	-3
409.747	1	1
410.942	1	11
412.137	1	10
413.332	1	-3
414.526	1	-1
415.721	1	7
416.916	1	2
418.111	1	-3
419.305	1	0
420.500	1	-4
421.695	1	-12
422.889	1	-7
424.084	1	1
425.278	1	5
426.472	1	-3
427.667	1	1
428.861	1	-3
430.055	1	-7
431.250	1	-6
432.444	1	0
433.638	1	0
434.832	1	7
436.026	1	2
437.220	1	-2
438.414	1	-14
439.608	1	-10
440.802	1	1
441.996	1	-1
443.190	1	-5
444.384	1	-2
445.578	1	-1
446.771	1	7
447.965	1	-1
449.159	1	-3
450.352	1	2
451.546	1	1
452.739	1	5
453.933	1	-9
455.126	1	-16
456.320	1	-3
457.513	1	3
458.706	1	1
459.899	1	-5
461.093	1	4
462.286	1	-11
463.479	1	-4
464.672	1	1
465.865	1	-3
467.058	1	7
468.251	1	6
469.444	1	-8
470.637	1	-1
471.830	1	0
473.023	1	1
474.215	1	14
475.408	1	0
476.601	1	-4
477.793	1	-4
478.986	1	0
480.179	1	-3
481.371	1	2
482.564	1	0
483.756	1	-8
484.948	1	-9
486.141	1	-5
487.333	1	-3
488.525	1	-2
489.718	1	2
490.910	1	5
492.102	1	2
493.294	1	-4
494.486	1	0
495.678	1	-8
496.870	1	8
498.062	1	-3
499.254	1	-3
500.446	1	-2
501.638	1	0
502.829	1	1
504.021	1	3
505.213	1	0
506.404	1	7
507.596	1	5
508.788	1	12
509.979	1	-4
511.171	1	-7
512.362	1	-1
513.553	1	-13
514.745	1	-6
515.936	1	-1
517.127	1	-4
518.319	1	-1
519.510	1	6
520.701	1	6
521.892	1	-3
523.083	1	-5
524.274	1	7
525.465	1	9
526.656	1	-3
527.847	1	-1
529.038	1	2
530.229	1	8
531.419	1	7
532.610	1	-5
533.801	1	8
534.991	1	2
536.182	1	-5
537.373	1	0
538.563	1	2
539.754	1	13
540.944	1	-9
542.134	1	1
543.325	1	0
544.515	1	-1
545.705	1	-13
546.896	1	-8
548.086	1	3
549.276	1	-7
550.466	1	-5
551.656	1	5
552.846	1	2
554.036	1	-4
555.226	1	-8
556.416	1	-6
557.606	1	1
558.796	1	-5
559.986	1	3
561.175	1	5
562.365	1	-2
563.555	1	1
564.744	1	1
565.934	1	8
567.123	1	6
568.313	1	3
569.502	1	0
570.692	1	3
571.881	1	8
573.070	1	2
574.260	1	11
575.449	1	-4
576.638	1	3
577.827	1	-7
579.016	1	7
580.205	1	-1
581.394	1	-8
582.583	1	6
583.772	1	-1
584.961	1	0
586.150	1	-8
587.339	1	4
588.528	1	10
589.717	1	2
590.905	1	6
592.094	1	-3
593.283	1	-2
594.471	1	-1
595.660	1	-5
596.848	1	-2
598.037	1	4
599.225	1	-4
600.413	1	14
601.602	1	10
602.790	1	-4
603.978	1	-2
605.166	1	11
606.355	1	13
607.543	1	2
608.731	1	-7
609.919	1	8
611.107	1	-3
612.295	1	-7
613.483	1	-1
614.671	1	-3
615.858	1	4
617.046	1	-1
618.234	1	-8
619.422	1	-4
620.609	1	5
621.797	1	-5
622.985	1	6
624.172	1	-9
625.360	1	0
626.547	1	-2
627.735	1	9
628.922	1	4
630.109	1	-13
631.297	1	1
632.484	1	-1
633.671	1	-2
634.858	1	-6
636.045	1	7
637.232	1	1
638.419	1	6
639.606	1	1
640.793	1	12
641.980	1	11
643.167	1	-3
644.354	1	-2
645.541	1	-1
646.728	1	-3
647.914	1	-1
649.101	1	-6
650.288	1	7
651.474	1	-1
652.661	1	0
653.847	1	3
655.034	1	-7
656.220	1	-1
657.406	1	1
658.593	1	6
659.779	1	0
660.965	1	4
662.152	1	5
663.338	1	11
664.524	1	1
665.710	1	-4
666.896	1	-6
668.082	1	4
669.268	1	-8
670.454	1	2
671.640	1	-2
672.826	1	3
674.011	1	-6
675.197	1	-9
676.383	1	-1
677.569	1	-6
678.754	1	2
679.940	1	2
681.125	1	-4
682.311	1	6
683.496	1	-1
684.682	1	-12
685.867	1	-5
687.053	1	1
688.238	1	11
688.746	1	5