Folder: cryo-il_analysis/Data/GaN_200K_800ms (part 26)

File: GaN_sample F_spot 12_UVVIS_200 K_200um_800 ms 2x2mm1_228.txt
340.368	1	5
341.565	1	-1
342.763	1	5
343.960	1	5
345.157	1	-9
346.354	1	9
347.552	1	0
348.749	1	2
349.946	1	-7
351.143	1	7
352.340	1	11
353.537	1	2
354.734	1	2
355.931	1	0
357.127	1	5
358.324	1	0
359.521	1	13
360.718	1	4
361.914	1	6
363.111	1	14
364.308	1	3
365.504	1	20
366.701	1	6
367.897	1	27
369.093	1	32
370.290	1	27
371.486	1	33
372.682	1	32
373.879	1	13
375.075	1	15
376.271	1	24
377.467	1	12
378.663	1	2
379.859	1	16
381.055	1	12
382.251	1	2
383.447	1	5
384.643	1	10
385.839	1	7
387.035	1	3
388.230	1	10
389.426	1	4
390.622	1	1
391.817	1	3
393.013	1	-6
394.208	1	9
395.404	1	0
396.599	1	-1
397.795	1	3
398.990	1	7
400.186	1	-3
401.381	1	-6
402.576	1	-4
403.771	1	3
404.967	1	-1
406.162	1	2
407.357	1	4
408.552	1	1
409.747	1	3
410.942	1	10
412.137	1	2
413.332	1	5
414.526	1	0
415.721	1	-2
416.916	1	-7
418.111	1	-5
419.305	1	2
420.500	1	1
421.695	1	0
422.889	1	-6
424.084	1	-6
425.278	1	4
426.472	1	6
427.667	1	6
428.861	1	0
430.055	1	9
431.250	1	-6
432.444	1	2
433.638	1	1
434.832	1	9
436.026	1	5
437.220	1	0
438.414	1	-2
439.608	1	-10
440.802	1	2
441.996	1	6
443.190	1	-1
444.384	1	-4
445.578	1	0
446.771	1	5
447.965	1	3
449.159	1	-8
450.352	1	-4
451.546	1	0
452.739	1	4
453.933	1	0
455.126	1	2
456.320	1	4
457.513	1	-1
458.706	1	3
459.899	1	2
461.093	1	3
462.286	1	2
463.479	1	4
464.672	1	3
465.865	1	-6
467.058	1	-8
468.251	1	0
469.444	1	-8
470.637	1	-1
471.830	1	1
473.023	1	-1
474.215	1	14
475.408	1	-4
476.601	1	3
477.793	1	-2
478.986	1	-10
480.179	1	-2
481.371	1	12
482.564	1	2
483.756	1	5
484.948	1	-17
486.141	1	-4
487.333	1	5
488.525	1	-4
489.718	1	0
490.910	1	1
492.102	1	-7
493.294	1	0
494.486	1	0
495.678	1	-5
496.870	1	1
498.062	1	-6
499.254	1	6
500.446	1	0
501.638	1	2
502.829	1	-1
504.021	1	5
505.213	1	5
506.404	1	6
507.596	1	-1
508.788	1	15
509.979	1	7
511.171	1	-1
512.362	1	-8
513.553	1	-9
514.745	1	-3
515.936	1	5
517.127	1	0
518.319	1	2
519.510	1	-7
520.701	1	-4
521.892	1	7
523.083	1	-5
524.274	1	10
525.465	1	2
526.656	1	-3
527.847	1	4
529.038	1	0
530.229	1	3
531.419	1	11
532.610	1	-3
533.801	1	15
534.991	1	2
536.182	1	3
537.373	1	6
538.563	1	4
539.754	1	3
540.944	1	0
542.134	1	9
543.325	1	6
544.515	1	1
545.705	1	-1
546.896	1	-1
548.086	1	7
549.276	1	2
550.466	1	12
551.656	1	4
552.846	1	2
554.036	1	3
555.226	1	-13
556.416	1	-3
557.606	1	9
558.796	1	5
559.986	1	2
561.175	1	16
562.365	1	5
563.555	1	2
564.744	1	6
565.934	1	10
567.123	1	5
568.313	1	13
569.502	1	-2
570.692	1	9
571.881	1	11
573.070	1	6
574.260	1	13
575.449	1	2
576.638	1	4
577.827	1	6
579.016	1	2
580.205	1	6
581.394	1	0
582.583	1	14
583.772	1	13
584.961	1	7
586.150	1	-7
587.339	1	9
588.528	1	3
589.717	1	-3
590.905	1	0
592.094	1	3
593.283	1	-2
594.471	1	11
595.660	1	1
596.848	1	8
598.037	1	1
599.225	1	-8
600.413	1	7
601.602	1	10
602.790	1	-1
603.978	1	-2
605.166	1	5
606.355	1	3
607.543	1	4
608.731	1	-5
609.919	1	12
611.107	1	-7
612.295	1	2
613.483	1	4
614.671	1	2
615.858	1	1
617.046	1	-1
618.234	1	-4
619.422	1	-4
620.609	1	7
621.797	1	-9
622.985	1	0
624.172	1	-1
625.360	1	3
626.547	1	-5
627.735	1	-2
628.922	1	10
630.109	1	-9
631.297	1	3
632.484	1	-2
633.671	1	1
634.858	1	2
636.045	1	11
637.232	1	-11
638.419	1	-1
639.606	1	5
640.793	1	12
641.980	1	9
643.167	1	-3
644.354	1	-2
645.541	1	-5
646.728	1	-3
647.914	1	0
649.101	1	-9
650.288	1	6
651.474	1	-2
652.661	1	-9
653.847	1	5
655.034	1	4
656.220	1	-7
657.406	1	5
658.593	1	4
659.779	1	-1
660.965	1	10
662.152	1	3
663.338	1	12
664.524	1	1
665.710	1	6
666.896	1	-7
668.082	1	-2
669.268	1	-9
670.454	1	-2
671.640	1	0
672.826	1	4
674.011	1	-8
675.197	1	-8
676.383	1	6
677.569	1	-11
678.754	1	-11
679.940	1	-1
681.125	1	6
682.311	1	5
683.496	1	5
684.682	1	-9
685.867	1	-8
687.053	1	-1
688.238	1	8
688.746	1	-6

File: GaN_sample F_spot 12_UVVIS_200 K_200um_800 ms 2x2mm1_231.txt
340.368	1	2
341.565	1	-7
342.763	1	5
343.960	1	1
345.157	1	-7
346.354	1	-10
347.552	1	-3
348.749	1	-4
349.946	1	4
351.143	1	9
352.340	1	-1
353.537	1	-1
354.734	1	11
355.931	1	4
357.127	1	2
358.324	1	4
359.521	1	15
360.718	1	17
361.914	1	11
363.111	1	6
364.308	1	9
365.504	1	19
366.701	1	12
367.897	1	29
369.093	1	27
370.290	1	36
371.486	1	29
372.682	1	27
373.879	1	9
375.075	1	13
376.271	1	23
377.467	1	7
378.663	1	1
379.859	1	7
381.055	1	14
382.251	1	5
383.447	1	5
384.643	1	13
385.839	1	4
387.035	1	14
388.230	1	11
389.426	1	4
390.622	1	-4
391.817	1	0
393.013	1	6
394.208	1	2
395.404	1	-4
396.599	1	4
397.795	1	5
398.990	1	-5
400.186	1	2
401.381	1	-12
402.576	1	-4
403.771	1	0
404.967	1	5
406.162	1	11
407.357	1	-1
408.552	1	-3
409.747	1	-3
410.942	1	17
412.137	1	11
413.332	1	9
414.526	1	-1
415.721	1	-5
416.916	1	-5
418.111	1	4
419.305	1	-5
420.500	1	-10
421.695	1	0
422.889	1	-6
424.084	1	3
425.278	1	12
426.472	1	1
427.667	1	7
428.861	1	-1
430.055	1	-1
431.250	1	0
432.444	1	9
433.638	1	-3
434.832	1	8
436.026	1	3
437.220	1	5
438.414	1	-16
439.608	1	-2
440.802	1	9
441.996	1	4
443.190	1	2
444.384	1	-6
445.578	1	-5
446.771	1	12
447.965	1	8
449.159	1	-3
450.352	1	-7
451.546	1	2
452.739	1	8
453.933	1	-2
455.126	1	1
456.320	1	-12
457.513	1	11
458.706	1	5
459.899	1	0
461.093	1	7
462.286	1	2
463.479	1	-4
464.672	1	-1
465.865	1	3
467.058	1	-2
468.251	1	-4
469.444	1	-6
470.637	1	-2
471.830	1	1
473.023	1	-1
474.215	1	7
475.408	1	1
476.601	1	1
477.793	1	7
478.986	1	1
480.179	1	4
481.371	1	-1
482.564	1	0
483.756	1	8
484.948	1	-8
486.141	1	-1
487.333	1	-4
488.525	1	0
489.718	1	6
490.910	1	-1
492.102	1	-10
493.294	1	-4
494.486	1	0
495.678	1	0
496.870	1	2
498.062	1	7
499.254	1	7
500.446	1	-1
501.638	1	-2
502.829	1	2
504.021	1	2
505.213	1	2
506.404	1	-9
507.596	1	1
508.788	1	9
509.979	1	-2
511.171	1	-4
512.362	1	-10
513.553	1	-16
514.745	1	2
515.936	1	-7
517.127	1	-1
518.319	1	0
519.510	1	2
520.701	1	10
521.892	1	1
523.083	1	6
524.274	1	7
525.465	1	8
526.656	1	4
527.847	1	5
529.038	1	5
530.229	1	7
531.419	1	10
532.610	1	2
533.801	1	15
534.991	1	5
536.182	1	-8
537.373	1	10
538.563	1	4
539.754	1	0
540.944	1	0
542.134	1	5
543.325	1	-2
544.515	1	-1
545.705	1	3
546.896	1	8
548.086	1	0
549.276	1	3
550.466	1	9
551.656	1	7
552.846	1	11
554.036	1	2
555.226	1	-6
556.416	1	1
557.606	1	1
558.796	1	8
559.986	1	-7
561.175	1	7
562.365	1	0
563.555	1	-3
564.744	1	5
565.934	1	9
567.123	1	9
568.313	1	14
569.502	1	3
570.692	1	15
571.881	1	19
573.070	1	-3
574.260	1	15
575.449	1	1
576.638	1	-3
577.827	1	5
579.016	1	5
580.205	1	0
581.394	1	4
582.583	1	7
583.772	1	6
584.961	1	4
586.150	1	4
587.339	1	7
588.528	1	13
589.717	1	1
590.905	1	3
592.094	1	-4
593.283	1	0
594.471	1	13
595.660	1	-5
596.848	1	2
598.037	1	2
599.225	1	-6
600.413	1	5
601.602	1	12
602.790	1	6
603.978	1	3
605.166	1	3
606.355	1	1
607.543	1	1
608.731	1	0
609.919	1	13
611.107	1	-2
612.295	1	-3
613.483	1	5
614.671	1	2
615.858	1	3
617.046	1	7
618.234	1	2
619.422	1	-8
620.609	1	5
621.797	1	2
622.985	1	0
624.172	1	6
625.360	1	-3
626.547	1	2
627.735	1	6
628.922	1	0
630.109	1	-15
631.297	1	-2
632.484	1	-2
633.671	1	-1
634.858	1	-1
636.045	1	13
637.232	1	0
638.419	1	-2
639.606	1	-2
640.793	1	11
641.980	1	8
643.167	1	-4
644.354	1	3
645.541	1	6
646.728	1	4
647.914	1	-5
649.101	1	1
650.288	1	2
651.474	1	-5
652.661	1	-3
653.847	1	11
655.034	1	0
656.220	1	-1
657.406	1	-4
658.593	1	11
659.779	1	5
660.965	1	8
662.152	1	1
663.338	1	7
664.524	1	-13
665.710	1	-6
666.896	1	1
668.082	1	3
669.268	1	5
670.454	1	2
671.640	1	2
672.826	1	-4
674.011	1	-3
675.197	1	-5
676.383	1	12
677.569	1	-4
678.754	1	5
679.940	1	0
681.125	1	1
682.311	1	1
683.496	1	-7
684.682	1	3
685.867	1	-2
687.053	1	-3
688.238	1	9
688.746	1	-2

File: GaN_sample F_spot 12_UVVIS_200 K_200um_800 ms 2x2mm1_232.txt
340.368	1	9
341.565	1	-5
342.763	1	-1
343.960	1	6
345.157	1	-10
346.354	1	0
347.552	1	-2
348.749	1	6
349.946	1	0
351.143	1	2
352.340	1	-5
353.537	1	6
354.734	1	2
355.931	1	1
357.127	1	1
358.324	1	1
359.521	1	10
360.718	1	2
361.914	1	7
363.111	1	10
364.308	1	5
365.504	1	23
366.701	1	18
367.897	1	17
369.093	1	29
370.290	1	30
371.486	1	24
372.682	1	27
373.879	1	12
375.075	1	16
376.271	1	16
377.467	1	18
378.663	1	5
379.859	1	5
381.055	1	17
382.251	1	2
383.447	1	5
384.643	1	12
385.839	1	2
387.035	1	1
388.230	1	6
389.426	1	7
390.622	1	-3
391.817	1	2
393.013	1	-1
394.208	1	4
395.404	1	-1
396.599	1	-7
397.795	1	5
398.990	1	-4
400.186	1	-3
401.381	1	-5
402.576	1	7
403.771	1	5
404.967	1	7
406.162	1	1
407.357	1	-4
408.552	1	-3
409.747	1	8
410.942	1	11
412.137	1	12
413.332	1	0
414.526	1	3
415.721	1	0
416.916	1	-4
418.111	1	-3
419.305	1	-3
420.500	1	-5
421.695	1	2
422.889	1	-6
424.084	1	-6
425.278	1	21
426.472	1	0
427.667	1	-1
428.861	1	-8
430.055	1	7
431.250	1	2
432.444	1	5
433.638	1	1
434.832	1	2
436.026	1	7
437.220	1	3
438.414	1	-9
439.608	1	-12
440.802	1	-6
441.996	1	4
443.190	1	3
444.384	1	-4
445.578	1	-7
446.771	1	9
447.965	1	-4
449.159	1	-14
450.352	1	-2
451.546	1	-8
452.739	1	2
453.933	1	-5
455.126	1	-4
456.320	1	-6
457.513	1	6
458.706	1	8
459.899	1	-7
461.093	1	4
462.286	1	0
463.479	1	0
464.672	1	0
465.865	1	-5
467.058	1	-4
468.251	1	4
469.444	1	-9
470.637	1	-2
471.830	1	0
473.023	1	1
474.215	1	25
475.408	1	-12
476.601	1	-2
477.793	1	2
478.986	1	-1
480.179	1	-2
481.371	1	-3
482.564	1	2
483.756	1	6
484.948	1	-12
486.141	1	0
487.333	1	-5
488.525	1	-4
489.718	1	-1
490.910	1	6
492.102	1	-2
493.294	1	1
494.486	1	5
495.678	1	-2
496.870	1	3
498.062	1	2
499.254	1	4
500.446	1	-12
501.638	1	-3
502.829	1	9
504.021	1	6
505.213	1	8
506.404	1	4
507.596	1	-1
508.788	1	17
509.979	1	7
511.171	1	4
512.362	1	1
513.553	1	-10
514.745	1	-4
515.936	1	-7
517.127	1	-2
518.319	1	7
519.510	1	2
520.701	1	6
521.892	1	9
523.083	1	2
524.274	1	-1
525.465	1	9
526.656	1	-4
527.847	1	-6
529.038	1	6
530.229	1	3
531.419	1	4
532.610	1	-3
533.801	1	18
534.991	1	8
536.182	1	-7
537.373	1	-1
538.563	1	3
539.754	1	8
540.944	1	-2
542.134	1	14
543.325	1	-2
544.515	1	-2
545.705	1	5
546.896	1	0
548.086	1	2
549.276	1	-2
550.466	1	4
551.656	1	13
552.846	1	16
554.036	1	-1
555.226	1	-11
556.416	1	-2
557.606	1	7
558.796	1	8
559.986	1	-3
561.175	1	0
562.365	1	2
563.555	1	2
564.744	1	2
565.934	1	3
567.123	1	8
568.313	1	7
569.502	1	8
570.692	1	13
571.881	1	8
573.070	1	-8
574.260	1	13
575.449	1	4
576.638	1	-6
577.827	1	3
579.016	1	14
580.205	1	5
581.394	1	0
582.583	1	23
583.772	1	4
584.961	1	10
586.150	1	2
587.339	1	2
588.528	1	9
589.717	1	3
590.905	1	2
592.094	1	1
593.283	1	4
594.471	1	9
595.660	1	1
596.848	1	7
598.037	1	-3
599.225	1	-7
600.413	1	8
601.602	1	7
602.790	1	1
603.978	1	-1
605.166	1	12
606.355	1	4
607.543	1	-3
608.731	1	6
609.919	1	13
611.107	1	-8
612.295	1	1
613.483	1	12
614.671	1	7
615.858	1	15
617.046	1	2
618.234	1	-2
619.422	1	-7
620.609	1	4
621.797	1	-1
622.985	1	12
624.172	1	5
625.360	1	-4
626.547	1	-5
627.735	1	7
628.922	1	4
630.109	1	-5
631.297	1	-3
632.484	1	2
633.671	1	-6
634.858	1	0
636.045	1	15
637.232	1	-2
638.419	1	-1
639.606	1	-1
640.793	1	16
641.980	1	5
643.167	1	2
644.354	1	10
645.541	1	-7
646.728	1	1
647.914	1	-3
649.101	1	1
650.288	1	13
651.474	1	4
652.661	1	0
653.847	1	10
655.034	1	2
656.220	1	-8
657.406	1	-1
658.593	1	10
659.779	1	5
660.965	1	4
662.152	1	9
663.338	1	5
664.524	1	6
665.710	1	3
666.896	1	-4
668.082	1	7
669.268	1	1
670.454	1	11
671.640	1	14
672.826	1	3
674.011	1	1
675.197	1	-1
676.383	1	-1
677.569	1	-4
678.754	1	-1
679.940	1	-1
681.125	1	11
682.311	1	12
683.496	1	7
684.682	1	-2
685.867	1	2
687.053	1	-2
688.238	1	16
688.746	1	2

File: GaN_sample F_spot 12_UVVIS_200 K_200um_800 ms 2x2mm1_233.txt
340.368	1	1
341.565	1	-3
342.763	1	6
343.960	1	5
345.157	1	-2
346.354	1	7
347.552	1	0
348.749	1	-1
349.946	1	-3
351.143	1	5
352.340	1	6
353.537	1	-3
354.734	1	-1
355.931	1	1
357.127	1	0
358.324	1	9
359.521	1	11
360.718	1	2
361.914	1	9
363.111	1	5
364.308	1	4
365.504	1	17
366.701	1	19
367.897	1	24
369.093	1	24
370.290	1	37
371.486	1	29
372.682	1	24
373.879	1	19
375.075	1	21
376.271	1	27
377.467	1	14
378.663	1	11
379.859	1	9
381.055	1	14
382.251	1	1
383.447	1	3
384.643	1	10
385.839	1	1
387.035	1	1
388.230	1	3
389.426	1	-2
390.622	1	-6
391.817	1	8
393.013	1	-7
394.208	1	-2
395.404	1	-3
396.599	1	-2
397.795	1	-8
398.990	1	1
400.186	1	2
401.381	1	-9
402.576	1	-2
403.771	1	6
404.967	1	-1
406.162	1	4
407.357	1	2
408.552	1	-3
409.747	1	1
410.942	1	9
412.137	1	7
413.332	1	3
414.526	1	3
415.721	1	-5
416.916	1	-3
418.111	1	0
419.305	1	-5
420.500	1	1
421.695	1	-5
422.889	1	-9
424.084	1	-5
425.278	1	11
426.472	1	1
427.667	1	2
428.861	1	-6
430.055	1	3
431.250	1	-2
432.444	1	9
433.638	1	3
434.832	1	7
436.026	1	6
437.220	1	6
438.414	1	-10
439.608	1	-8
440.802	1	0
441.996	1	2
443.190	1	2
444.384	1	-4
445.578	1	-8
446.771	1	18
447.965	1	-6
449.159	1	-7
450.352	1	1
451.546	1	4
452.739	1	4
453.933	1	-2
455.126	1	-7
456.320	1	-5
457.513	1	10
458.706	1	-7
459.899	1	1
461.093	1	0
462.286	1	-1
463.479	1	-5
464.672	1	7
465.865	1	-1
467.058	1	-10
468.251	1	-3
469.444	1	0
470.637	1	-1
471.830	1	-4
473.023	1	2
474.215	1	7
475.408	1	-3
476.601	1	-2
477.793	1	-4
478.986	1	9
480.179	1	3
481.371	1	0
482.564	1	2
483.756	1	13
484.948	1	-5
486.141	1	-8
487.333	1	10
488.525	1	4
489.718	1	6
490.910	1	3
492.102	1	-7
493.294	1	-2
494.486	1	2
495.678	1	-1
496.870	1	-2
498.062	1	-4
499.254	1	-3
500.446	1	-8
501.638	1	-2
502.829	1	0
504.021	1	0
505.213	1	9
506.404	1	3
507.596	1	2
508.788	1	11
509.979	1	3
511.171	1	-3
512.362	1	6
513.553	1	-10
514.745	1	-8
515.936	1	-3
517.127	1	7
518.319	1	-7
519.510	1	8
520.701	1	9
521.892	1	12
523.083	1	-4
524.274	1	8
525.465	1	17
526.656	1	0
527.847	1	-3
529.038	1	3
530.229	1	0
531.419	1	4
532.610	1	2
533.801	1	11
534.991	1	6
536.182	1	3
537.373	1	7
538.563	1	5
539.754	1	10
540.944	1	1
542.134	1	1
543.325	1	6
544.515	1	5
545.705	1	-5
546.896	1	4
548.086	1	0
549.276	1	4
550.466	1	3
551.656	1	2
552.846	1	0
554.036	1	-1
555.226	1	-6
556.416	1	1
557.606	1	1
558.796	1	-2
559.986	1	-6
561.175	1	11
562.365	1	3
563.555	1	-7
564.744	1	1
565.934	1	11
567.123	1	4
568.313	1	9
569.502	1	-6
570.692	1	1
571.881	1	13
573.070	1	6
574.260	1	8
575.449	1	-2
576.638	1	0
577.827	1	-7
579.016	1	12
580.205	1	5
581.394	1	7
582.583	1	14
583.772	1	7
584.961	1	6
586.150	1	-1
587.339	1	4
588.528	1	7
589.717	1	10
590.905	1	-4
592.094	1	-4
593.283	1	0
594.471	1	16
595.660	1	-2
596.848	1	1
598.037	1	7
599.225	1	1
600.413	1	13
601.602	1	18
602.790	1	-3
603.978	1	-2
605.166	1	13
606.355	1	8
607.543	1	3
608.731	1	6
609.919	1	6
611.107	1	1
612.295	1	1
613.483	1	-1
614.671	1	4
615.858	1	3
617.046	1	5
618.234	1	2
619.422	1	-8
620.609	1	5
621.797	1	-2
622.985	1	13
624.172	1	5
625.360	1	4
626.547	1	-1
627.735	1	5
628.922	1	1
630.109	1	-10
631.297	1	-9
632.484	1	-1
633.671	1	4
634.858	1	-5
636.045	1	10
637.232	1	4
638.419	1	5
639.606	1	1
640.793	1	6
641.980	1	8
643.167	1	7
644.354	1	5
645.541	1	7
646.728	1	-3
647.914	1	0
649.101	1	-4
650.288	1	7
651.474	1	-6
652.661	1	6
653.847	1	-4
655.034	1	6
656.220	1	-6
657.406	1	-1
658.593	1	5
659.779	1	2
660.965	1	10
662.152	1	5
663.338	1	12
664.524	1	3
665.710	1	3
666.896	1	1
668.082	1	5
669.268	1	-1
670.454	1	1
671.640	1	4
672.826	1	2
674.011	1	2
675.197	1	4
676.383	1	1
677.569	1	-5
678.754	1	-3
679.940	1	0
681.125	1	-3
682.311	1	9
683.496	1	0
684.682	1	-6
685.867	1	-4
687.053	1	7
688.238	1	13
688.746	1	-2

File: GaN_sample F_spot 12_UVVIS_200 K_200um_800 ms 2x2mm1_234.txt
340.368	1	1
341.565	1	2
342.763	1	3
343.960	1	-1
345.157	1	-5
346.354	1	12
347.552	1	-4
348.749	1	-8
349.946	1	-3
351.143	1	-1
352.340	1	2
353.537	1	2
354.734	1	-1
355.931	1	2
357.127	1	-3
358.324	1	5
359.521	1	5
360.718	1	10
361.914	1	11
363.111	1	-3
364.308	1	4
365.504	1	10
366.701	1	18
367.897	1	28
369.093	1	29
370.290	1	29
371.486	1	31
372.682	1	19
373.879	1	13
375.075	1	9
376.271	1	15
377.467	1	12
378.663	1	9
379.859	1	15
381.055	1	9
382.251	1	4
383.447	1	3
384.643	1	12
385.839	1	2
387.035	1	0
388.230	1	12
389.426	1	8
390.622	1	-1
391.817	1	-2
393.013	1	-3
394.208	1	1
395.404	1	-6
396.599	1	-4
397.795	1	4
398.990	1	-3
400.186	1	5
401.381	1	-3
402.576	1	0
403.771	1	3
404.967	1	-2
406.162	1	0
407.357	1	-6
408.552	1	-9
409.747	1	5
410.942	1	1
412.137	1	5
413.332	1	2
414.526	1	-3
415.721	1	2
416.916	1	-10
418.111	1	-13
419.305	1	-3
420.500	1	-6
421.695	1	-2
422.889	1	-14
424.084	1	2
425.278	1	1
426.472	1	-4
427.667	1	4
428.861	1	0
430.055	1	1
431.250	1	-9
432.444	1	12
433.638	1	2
434.832	1	1
436.026	1	-1
437.220	1	8
438.414	1	-6
439.608	1	-9
440.802	1	-11
441.996	1	0
443.190	1	5
444.384	1	-8
445.578	1	-8
446.771	1	6
447.965	1	-7
449.159	1	-2
450.352	1	-1
451.546	1	-8
452.739	1	12
453.933	1	-3
455.126	1	-4
456.320	1	-1
457.513	1	2
458.706	1	2
459.899	1	-6
461.093	1	10
462.286	1	2
463.479	1	-1
464.672	1	3
465.865	1	-3
467.058	1	-6
468.251	1	5
469.444	1	-7
470.637	1	-8
471.830	1	-1
473.023	1	0
474.215	1	12
475.408	1	6
476.601	1	2
477.793	1	-9
478.986	1	2
480.179	1	1
481.371	1	6
482.564	1	8
483.756	1	11
484.948	1	-5
486.141	1	-2
487.333	1	1
488.525	1	5
489.718	1	5
490.910	1	-5
492.102	1	-2
493.294	1	-2
494.486	1	-1
495.678	1	-1
496.870	1	7
498.062	1	4
499.254	1	2
500.446	1	-9
501.638	1	-3
502.829	1	-3
504.021	1	2
505.213	1	14
506.404	1	8
507.596	1	2
508.788	1	9
509.979	1	-3
511.171	1	2
512.362	1	0
513.553	1	-8
514.745	1	1
515.936	1	9
517.127	1	1
518.319	1	11
519.510	1	8
520.701	1	1
521.892	1	4
523.083	1	0
524.274	1	1
525.465	1	10
526.656	1	3
527.847	1	4
529.038	1	6
530.229	1	11
531.419	1	3
532.610	1	-6
533.801	1	14
534.991	1	0
536.182	1	-5
537.373	1	7
538.563	1	5
539.754	1	1
540.944	1	-5
542.134	1	14
543.325	1	1
544.515	1	3
545.705	1	-4
546.896	1	-2
548.086	1	0
549.276	1	1
550.466	1	5
551.656	1	4
552.846	1	1
554.036	1	8
555.226	1	-10
556.416	1	-1
557.606	1	1
558.796	1	-5
559.986	1	-2
561.175	1	-7
562.365	1	4
563.555	1	0
564.744	1	8
565.934	1	5
567.123	1	-2
568.313	1	10
569.502	1	10
570.692	1	5
571.881	1	17
573.070	1	8
574.260	1	12
575.449	1	-5
576.638	1	1
577.827	1	0
579.016	1	12
580.205	1	-4
581.394	1	3
582.583	1	16
583.772	1	15
584.961	1	9
586.150	1	2
587.339	1	5
588.528	1	8
589.717	1	5
590.905	1	4
592.094	1	2
593.283	1	-4
594.471	1	6
595.660	1	0
596.848	1	11
598.037	1	2
599.225	1	-8
600.413	1	6
601.602	1	8
602.790	1	0
603.978	1	2
605.166	1	10
606.355	1	6
607.543	1	2
608.731	1	7
609.919	1	14
611.107	1	6
612.295	1	-3
613.483	1	11
614.671	1	4
615.858	1	0
617.046	1	5
618.234	1	-10
619.422	1	-3
620.609	1	1
621.797	1	-4
622.985	1	13
624.172	1	-8
625.360	1	1
626.547	1	2
627.735	1	2
628.922	1	8
630.109	1	-3
631.297	1	-6
632.484	1	-8
633.671	1	5
634.858	1	-6
636.045	1	9
637.232	1	-4
638.419	1	4
639.606	1	12
640.793	1	9
641.980	1	1
643.167	1	1
644.354	1	8
645.541	1	4
646.728	1	3
647.914	1	1
649.101	1	-4
650.288	1	-5
651.474	1	4
652.661	1	-2
653.847	1	7
655.034	1	7
656.220	1	-1
657.406	1	1
658.593	1	8
659.779	1	2
660.965	1	1
662.152	1	5
663.338	1	2
664.524	1	-7
665.710	1	6
666.896	1	0
668.082	1	5
669.268	1	5
670.454	1	7
671.640	1	5
672.826	1	1
674.011	1	-4
675.197	1	-13
676.383	1	5
677.569	1	-6
678.754	1	-2
679.940	1	4
681.125	1	11
682.311	1	11
683.496	1	-8
684.682	1	-1
685.867	1	0
687.053	1	-1
688.238	1	7
688.746	1	0

File: GaN_sample F_spot 12_UVVIS_200 K_200um_800 ms 2x2mm1_241.txt
340.368	1	2
341.565	1	-14
342.763	1	8
343.960	1	1
345.157	1	-5
346.354	1	-2
347.552	1	-3
348.749	1	-7
349.946	1	-11
351.143	1	10
352.340	1	3
353.537	1	8
354.734	1	5
355.931	1	-2
357.127	1	-8
358.324	1	4
359.521	1	13
360.718	1	7
361.914	1	5
363.111	1	9
364.308	1	9
365.504	1	16
366.701	1	15
367.897	1	24
369.093	1	21
370.290	1	30
371.486	1	28
372.682	1	20
373.879	1	13
375.075	1	16
376.271	1	13
377.467	1	9
378.663	1	7
379.859	1	2
381.055	1	11
382.251	1	5
383.447	1	-8
384.643	1	22
385.839	1	5
387.035	1	10
388.230	1	10
389.426	1	3
390.622	1	1
391.817	1	13
393.013	1	-5
394.208	1	11
395.404	1	0
396.599	1	1
397.795	1	5
398.990	1	-4
400.186	1	0
401.381	1	2
402.576	1	-4
403.771	1	2
404.967	1	-1
406.162	1	7
407.357	1	4
408.552	1	7
409.747	1	-6
410.942	1	10
412.137	1	8
413.332	1	-7
414.526	1	-1
415.721	1	0
416.916	1	-10
418.111	1	6
419.305	1	8
420.500	1	1
421.695	1	-8
422.889	1	-4
424.084	1	-6
425.278	1	13
426.472	1	4
427.667	1	-6
428.861	1	2
430.055	1	0
431.250	1	-1
432.444	1	3
433.638	1	-10
434.832	1	10
436.026	1	3
437.220	1	8
438.414	1	-7
439.608	1	-7
440.802	1	-3
441.996	1	-2
443.190	1	0
444.384	1	-6
445.578	1	-5
446.771	1	15
447.965	1	-1
449.159	1	-2
450.352	1	5
451.546	1	4
452.739	1	5
453.933	1	-7
455.126	1	-5
456.320	1	-1
457.513	1	5
458.706	1	7
459.899	1	3
461.093	1	-2
462.286	1	-3
463.479	1	-5
464.672	1	3
465.865	1	-2
467.058	1	1
468.251	1	8
469.444	1	-5
470.637	1	-4
471.830	1	-6
473.023	1	3
474.215	1	5
475.408	1	-6
476.601	1	7
477.793	1	-5
478.986	1	-4
480.179	1	-2
481.371	1	2
482.564	1	2
483.756	1	-4
484.948	1	3
486.141	1	-6
487.333	1	6
488.525	1	0
489.718	1	8
490.910	1	-4
492.102	1	-1
493.294	1	-3
494.486	1	12
495.678	1	-3
496.870	1	1
498.062	1	-2
499.254	1	-4
500.446	1	-9
501.638	1	0
502.829	1	13
504.021	1	1
505.213	1	5
506.404	1	5
507.596	1	8
508.788	1	15
509.979	1	4
511.171	1	8
512.362	1	0
513.553	1	-9
514.745	1	-1
515.936	1	2
517.127	1	-6
518.319	1	4
519.510	1	13
520.701	1	-2
521.892	1	5
523.083	1	0
524.274	1	1
525.465	1	2
526.656	1	-8
527.847	1	6
529.038	1	2
530.229	1	9
531.419	1	7
532.610	1	-2
533.801	1	17
534.991	1	7
536.182	1	9
537.373	1	4
538.563	1	-1
539.754	1	6
540.944	1	-2
542.134	1	6
543.325	1	0
544.515	1	-7
545.705	1	-2
546.896	1	-2
548.086	1	-1
549.276	1	5
550.466	1	6
551.656	1	3
552.846	1	1
554.036	1	7
555.226	1	-5
556.416	1	3
557.606	1	4
558.796	1	-1
559.986	1	-7
561.175	1	0
562.365	1	8
563.555	1	7
564.744	1	2
565.934	1	3
567.123	1	-3
568.313	1	7
569.502	1	-2
570.692	1	5
571.881	1	13
573.070	1	8
574.260	1	9
575.449	1	-5
576.638	1	-5
577.827	1	-4
579.016	1	3
580.205	1	-5
581.394	1	-1
582.583	1	14
583.772	1	2
584.961	1	-2
586.150	1	0
587.339	1	-1
588.528	1	2
589.717	1	2
590.905	1	-2
592.094	1	-7
593.283	1	-1
594.471	1	16
595.660	1	-9
596.848	1	-3
598.037	1	4
599.225	1	3
600.413	1	7
601.602	1	11
602.790	1	4
603.978	1	0
605.166	1	4
606.355	1	3
607.543	1	0
608.731	1	1
609.919	1	4
611.107	1	4
612.295	1	-6
613.483	1	4
614.671	1	-3
615.858	1	-2
617.046	1	-3
618.234	1	3
619.422	1	-11
620.609	1	2
621.797	1	-5
622.985	1	0
624.172	1	-10
625.360	1	6
626.547	1	3
627.735	1	-5
628.922	1	6
630.109	1	-6
631.297	1	7
632.484	1	-5
633.671	1	4
634.858	1	1
636.045	1	14
637.232	1	0
638.419	1	-3
639.606	1	1
640.793	1	5
641.980	1	9
643.167	1	-6
644.354	1	-6
645.541	1	4
646.728	1	3
647.914	1	1
649.101	1	5
650.288	1	9
651.474	1	0
652.661	1	-1
653.847	1	-2
655.034	1	2
656.220	1	-5
657.406	1	8
658.593	1	1
659.779	1	5
660.965	1	-3
662.152	1	-2
663.338	1	4
664.524	1	6
665.710	1	-5
666.896	1	-6
668.082	1	0
669.268	1	1
670.454	1	2
671.640	1	4
672.826	1	-8
674.011	1	-1
675.197	1	0
676.383	1	-3
677.569	1	-10
678.754	1	0
679.940	1	2
681.125	1	0
682.311	1	1
683.496	1	2
684.682	1	-1
685.867	1	5
687.053	1	0
688.238	1	6
688.746	1	-2