Folder: cryo-il_analysis/Data/GaN_130K_350ms (part 21)

File: GaN_sample F_spot6_UVVIS_130 K_200um_350 ms 2x2mm1_260.txt
340.368	1	5
341.565	1	1
342.763	1	5
343.960	1	1
345.157	1	-7
346.354	1	6
347.552	1	1
348.749	1	4
349.946	1	1
351.143	1	1
352.340	1	7
353.537	1	-10
354.734	1	8
355.931	1	-3
357.127	1	11
358.324	1	0
359.521	1	0
360.718	1	6
361.914	1	7
363.111	1	11
364.308	1	14
365.504	1	23
366.701	1	11
367.897	1	9
369.093	1	11
370.290	1	9
371.486	1	9
372.682	1	11
373.879	1	13
375.075	1	17
376.271	1	-1
377.467	1	9
378.663	1	12
379.859	1	5
381.055	1	10
382.251	1	6
383.447	1	1
384.643	1	7
385.839	1	6
387.035	1	7
388.230	1	-4
389.426	1	-2
390.622	1	0
391.817	1	6
393.013	1	10
394.208	1	0
395.404	1	-8
396.599	1	21
397.795	1	-5
398.990	1	2
400.186	1	3
401.381	1	4
402.576	1	0
403.771	1	4
404.967	1	6
406.162	1	-3
407.357	1	-6
408.552	1	-5
409.747	1	1
410.942	1	0
412.137	1	5
413.332	1	2
414.526	1	-2
415.721	1	4
416.916	1	3
418.111	1	7
419.305	1	7
420.500	1	1
421.695	1	6
422.889	1	1
424.084	1	-3
425.278	1	-1
426.472	1	2
427.667	1	11
428.861	1	0
430.055	1	-3
431.250	1	7
432.444	1	12
433.638	1	9
434.832	1	5
436.026	1	5
437.220	1	7
438.414	1	-9
439.608	1	14
440.802	1	-4
441.996	1	12
443.190	1	0
444.384	1	5
445.578	1	0
446.771	1	8
447.965	1	4
449.159	1	10
450.352	1	14
451.546	1	12
452.739	1	-3
453.933	1	8
455.126	1	-4
456.320	1	-3
457.513	1	-4
458.706	1	1
459.899	1	2
461.093	1	0
462.286	1	1
463.479	1	8
464.672	1	-1
465.865	1	-8
467.058	1	5
468.251	1	1
469.444	1	3
470.637	1	11
471.830	1	9
473.023	1	10
474.215	1	10
475.408	1	9
476.601	1	4
477.793	1	-9
478.986	1	2
480.179	1	-14
481.371	1	3
482.564	1	3
483.756	1	1
484.948	1	-1
486.141	1	5
487.333	1	0
488.525	1	6
489.718	1	1
490.910	1	-5
492.102	1	14
493.294	1	-1
494.486	1	6
495.678	1	-9
496.870	1	10
498.062	1	-5
499.254	1	4
500.446	1	10
501.638	1	-2
502.829	1	0
504.021	1	5
505.213	1	2
506.404	1	0
507.596	1	-2
508.788	1	-2
509.979	1	-7
511.171	1	5
512.362	1	-1
513.553	1	4
514.745	1	6
515.936	1	11
517.127	1	1
518.319	1	1
519.510	1	6
520.701	1	2
521.892	1	-2
523.083	1	3
524.274	1	-4
525.465	1	10
526.656	1	3
527.847	1	-1
529.038	1	-5
530.229	1	5
531.419	1	9
532.610	1	2
533.801	1	13
534.991	1	-5
536.182	1	8
537.373	1	5
538.563	1	7
539.754	1	-1
540.944	1	6
542.134	1	7
543.325	1	10
544.515	1	7
545.705	1	6
546.896	1	0
548.086	1	0
549.276	1	-7
550.466	1	4
551.656	1	8
552.846	1	-4
554.036	1	3
555.226	1	3
556.416	1	5
557.606	1	5
558.796	1	12
559.986	1	-4
561.175	1	3
562.365	1	-2
563.555	1	5
564.744	1	12
565.934	1	6
567.123	1	2
568.313	1	4
569.502	1	7
570.692	1	12
571.881	1	-7
573.070	1	9
574.260	1	10
575.449	1	-5
576.638	1	2
577.827	1	-6
579.016	1	-4
580.205	1	-3
581.394	1	-2
582.583	1	9
583.772	1	3
584.961	1	-9
586.150	1	6
587.339	1	-5
588.528	1	1
589.717	1	0
590.905	1	13
592.094	1	-2
593.283	1	-5
594.471	1	4
595.660	1	7
596.848	1	2
598.037	1	0
599.225	1	7
600.413	1	9
601.602	1	0
602.790	1	-7
603.978	1	0
605.166	1	11
606.355	1	6
607.543	1	3
608.731	1	2
609.919	1	-3
611.107	1	6
612.295	1	10
613.483	1	-7
614.671	1	7
615.858	1	1
617.046	1	11
618.234	1	8
619.422	1	4
620.609	1	-8
621.797	1	2
622.985	1	-1
624.172	1	-3
625.360	1	9
626.547	1	-2
627.735	1	13
628.922	1	1
630.109	1	8
631.297	1	2
632.484	1	-5
633.671	1	-9
634.858	1	5
636.045	1	15
637.232	1	-12
638.419	1	6
639.606	1	4
640.793	1	-11
641.980	1	-1
643.167	1	-7
644.354	1	0
645.541	1	4
646.728	1	5
647.914	1	-1
649.101	1	-7
650.288	1	7
651.474	1	6
652.661	1	3
653.847	1	5
655.034	1	1
656.220	1	2
657.406	1	3
658.593	1	-5
659.779	1	-3
660.965	1	-2
662.152	1	5
663.338	1	4
664.524	1	-6
665.710	1	-4
666.896	1	-2
668.082	1	3
669.268	1	-12
670.454	1	0
671.640	1	-9
672.826	1	-7
674.011	1	-5
675.197	1	-3
676.383	1	7
677.569	1	6
678.754	1	0
679.940	1	-3
681.125	1	3
682.311	1	-8
683.496	1	1
684.682	1	0
685.867	1	0
687.053	1	1
688.238	1	4
688.746	1	5

File: GaN_sample F_spot6_UVVIS_130 K_200um_350 ms 2x2mm1_262.txt
340.368	1	5
341.565	1	8
342.763	1	7
343.960	1	-5
345.157	1	-5
346.354	1	1
347.552	1	0
348.749	1	12
349.946	1	7
351.143	1	-5
352.340	1	18
353.537	1	-7
354.734	1	1
355.931	1	5
357.127	1	4
358.324	1	2
359.521	1	2
360.718	1	2
361.914	1	7
363.111	1	13
364.308	1	9
365.504	1	17
366.701	1	6
367.897	1	3
369.093	1	13
370.290	1	3
371.486	1	12
372.682	1	-2
373.879	1	14
375.075	1	16
376.271	1	10
377.467	1	13
378.663	1	6
379.859	1	-4
381.055	1	1
382.251	1	4
383.447	1	0
384.643	1	14
385.839	1	6
387.035	1	17
388.230	1	-2
389.426	1	2
390.622	1	-2
391.817	1	5
393.013	1	3
394.208	1	-2
395.404	1	-6
396.599	1	17
397.795	1	0
398.990	1	6
400.186	1	-3
401.381	1	3
402.576	1	4
403.771	1	9
404.967	1	-5
406.162	1	-2
407.357	1	6
408.552	1	2
409.747	1	2
410.942	1	1
412.137	1	-1
413.332	1	5
414.526	1	8
415.721	1	-1
416.916	1	6
418.111	1	9
419.305	1	-2
420.500	1	2
421.695	1	2
422.889	1	6
424.084	1	6
425.278	1	-4
426.472	1	3
427.667	1	5
428.861	1	4
430.055	1	2
431.250	1	7
432.444	1	6
433.638	1	6
434.832	1	4
436.026	1	3
437.220	1	-7
438.414	1	-1
439.608	1	10
440.802	1	-3
441.996	1	9
443.190	1	-1
444.384	1	-9
445.578	1	-1
446.771	1	5
447.965	1	-6
449.159	1	10
450.352	1	3
451.546	1	5
452.739	1	7
453.933	1	13
455.126	1	0
456.320	1	2
457.513	1	-3
458.706	1	2
459.899	1	-3
461.093	1	8
462.286	1	5
463.479	1	6
464.672	1	4
465.865	1	-9
467.058	1	3
468.251	1	10
469.444	1	8
470.637	1	1
471.830	1	8
473.023	1	8
474.215	1	1
475.408	1	2
476.601	1	-2
477.793	1	-1
478.986	1	0
480.179	1	2
481.371	1	4
482.564	1	-1
483.756	1	8
484.948	1	1
486.141	1	0
487.333	1	2
488.525	1	4
489.718	1	7
490.910	1	3
492.102	1	7
493.294	1	5
494.486	1	11
495.678	1	-11
496.870	1	2
498.062	1	-3
499.254	1	8
500.446	1	2
501.638	1	2
502.829	1	-2
504.021	1	-1
505.213	1	-5
506.404	1	5
507.596	1	-5
508.788	1	-4
509.979	1	-7
511.171	1	3
512.362	1	2
513.553	1	5
514.745	1	4
515.936	1	17
517.127	1	0
518.319	1	-7
519.510	1	7
520.701	1	-1
521.892	1	6
523.083	1	3
524.274	1	8
525.465	1	15
526.656	1	3
527.847	1	-6
529.038	1	-8
530.229	1	4
531.419	1	4
532.610	1	7
533.801	1	12
534.991	1	6
536.182	1	12
537.373	1	5
538.563	1	8
539.754	1	-4
540.944	1	6
542.134	1	-1
543.325	1	0
544.515	1	8
545.705	1	7
546.896	1	-1
548.086	1	2
549.276	1	3
550.466	1	11
551.656	1	7
552.846	1	-3
554.036	1	-2
555.226	1	6
556.416	1	3
557.606	1	-2
558.796	1	8
559.986	1	8
561.175	1	3
562.365	1	5
563.555	1	0
564.744	1	4
565.934	1	2
567.123	1	3
568.313	1	2
569.502	1	5
570.692	1	8
571.881	1	2
573.070	1	-4
574.260	1	6
575.449	1	7
576.638	1	-3
577.827	1	-1
579.016	1	0
580.205	1	2
581.394	1	4
582.583	1	10
583.772	1	2
584.961	1	-11
586.150	1	7
587.339	1	7
588.528	1	0
589.717	1	2
590.905	1	6
592.094	1	1
593.283	1	-2
594.471	1	5
595.660	1	0
596.848	1	-5
598.037	1	8
599.225	1	-2
600.413	1	11
601.602	1	4
602.790	1	9
603.978	1	0
605.166	1	10
606.355	1	10
607.543	1	3
608.731	1	6
609.919	1	19
611.107	1	-3
612.295	1	14
613.483	1	1
614.671	1	3
615.858	1	-7
617.046	1	11
618.234	1	0
619.422	1	3
620.609	1	-5
621.797	1	1
622.985	1	7
624.172	1	0
625.360	1	1
626.547	1	1
627.735	1	6
628.922	1	-3
630.109	1	6
631.297	1	0
632.484	1	-11
633.671	1	-3
634.858	1	16
636.045	1	17
637.232	1	0
638.419	1	6
639.606	1	2
640.793	1	-9
641.980	1	0
643.167	1	6
644.354	1	-6
645.541	1	5
646.728	1	3
647.914	1	-3
649.101	1	-4
650.288	1	2
651.474	1	-4
652.661	1	8
653.847	1	-3
655.034	1	6
656.220	1	6
657.406	1	0
658.593	1	0
659.779	1	4
660.965	1	-2
662.152	1	4
663.338	1	5
664.524	1	5
665.710	1	2
666.896	1	2
668.082	1	5
669.268	1	-1
670.454	1	-5
671.640	1	-3
672.826	1	4
674.011	1	3
675.197	1	-2
676.383	1	5
677.569	1	0
678.754	1	3
679.940	1	-7
681.125	1	11
682.311	1	-14
683.496	1	0
684.682	1	-3
685.867	1	-9
687.053	1	4
688.238	1	8
688.746	1	5

File: GaN_sample F_spot6_UVVIS_130 K_200um_350 ms 2x2mm1_265.txt
340.368	1	2
341.565	1	3
342.763	1	-1
343.960	1	-12
345.157	1	-4
346.354	1	1
347.552	1	7
348.749	1	2
349.946	1	12
351.143	1	-4
352.340	1	15
353.537	1	7
354.734	1	-5
355.931	1	6
357.127	1	0
358.324	1	-4
359.521	1	3
360.718	1	9
361.914	1	13
363.111	1	17
364.308	1	13
365.504	1	14
366.701	1	7
367.897	1	8
369.093	1	11
370.290	1	11
371.486	1	18
372.682	1	8
373.879	1	16
375.075	1	19
376.271	1	7
377.467	1	18
378.663	1	12
379.859	1	2
381.055	1	5
382.251	1	4
383.447	1	4
384.643	1	9
385.839	1	6
387.035	1	11
388.230	1	-2
389.426	1	11
390.622	1	1
391.817	1	3
393.013	1	5
394.208	1	-3
395.404	1	-6
396.599	1	9
397.795	1	-7
398.990	1	5
400.186	1	7
401.381	1	5
402.576	1	10
403.771	1	8
404.967	1	-9
406.162	1	-7
407.357	1	-8
408.552	1	-7
409.747	1	-1
410.942	1	6
412.137	1	-4
413.332	1	0
414.526	1	4
415.721	1	1
416.916	1	5
418.111	1	9
419.305	1	3
420.500	1	10
421.695	1	-3
422.889	1	5
424.084	1	9
425.278	1	-9
426.472	1	2
427.667	1	10
428.861	1	-6
430.055	1	-7
431.250	1	15
432.444	1	10
433.638	1	5
434.832	1	8
436.026	1	2
437.220	1	-5
438.414	1	-6
439.608	1	3
440.802	1	-11
441.996	1	8
443.190	1	5
444.384	1	-8
445.578	1	-4
446.771	1	4
447.965	1	9
449.159	1	1
450.352	1	3
451.546	1	2
452.739	1	-2
453.933	1	11
455.126	1	-6
456.320	1	-4
457.513	1	-7
458.706	1	4
459.899	1	-3
461.093	1	7
462.286	1	10
463.479	1	5
464.672	1	9
465.865	1	-2
467.058	1	0
468.251	1	-7
469.444	1	-7
470.637	1	8
471.830	1	11
473.023	1	12
474.215	1	10
475.408	1	-2
476.601	1	-3
477.793	1	0
478.986	1	6
480.179	1	-4
481.371	1	6
482.564	1	-2
483.756	1	3
484.948	1	9
486.141	1	1
487.333	1	5
488.525	1	12
489.718	1	-2
490.910	1	-2
492.102	1	12
493.294	1	8
494.486	1	5
495.678	1	-6
496.870	1	8
498.062	1	6
499.254	1	-2
500.446	1	9
501.638	1	-2
502.829	1	3
504.021	1	-6
505.213	1	4
506.404	1	-1
507.596	1	-3
508.788	1	3
509.979	1	-4
511.171	1	12
512.362	1	3
513.553	1	5
514.745	1	-2
515.936	1	13
517.127	1	4
518.319	1	4
519.510	1	0
520.701	1	-2
521.892	1	6
523.083	1	6
524.274	1	3
525.465	1	3
526.656	1	10
527.847	1	7
529.038	1	-6
530.229	1	7
531.419	1	6
532.610	1	4
533.801	1	19
534.991	1	0
536.182	1	15
537.373	1	-2
538.563	1	2
539.754	1	-1
540.944	1	1
542.134	1	9
543.325	1	3
544.515	1	7
545.705	1	-2
546.896	1	8
548.086	1	-3
549.276	1	-5
550.466	1	7
551.656	1	10
552.846	1	-3
554.036	1	10
555.226	1	2
556.416	1	11
557.606	1	3
558.796	1	13
559.986	1	0
561.175	1	-3
562.365	1	11
563.555	1	7
564.744	1	-6
565.934	1	-2
567.123	1	4
568.313	1	7
569.502	1	1
570.692	1	9
571.881	1	1
573.070	1	3
574.260	1	0
575.449	1	-2
576.638	1	-5
577.827	1	-10
579.016	1	6
580.205	1	-6
581.394	1	-4
582.583	1	16
583.772	1	0
584.961	1	-1
586.150	1	8
587.339	1	2
588.528	1	9
589.717	1	3
590.905	1	14
592.094	1	0
593.283	1	-3
594.471	1	1
595.660	1	3
596.848	1	2
598.037	1	4
599.225	1	10
600.413	1	8
601.602	1	4
602.790	1	2
603.978	1	-2
605.166	1	5
606.355	1	7
607.543	1	1
608.731	1	8
609.919	1	3
611.107	1	10
612.295	1	7
613.483	1	-5
614.671	1	1
615.858	1	-2
617.046	1	2
618.234	1	-2
619.422	1	1
620.609	1	-7
621.797	1	-3
622.985	1	11
624.172	1	3
625.360	1	3
626.547	1	1
627.735	1	15
628.922	1	-10
630.109	1	4
631.297	1	6
632.484	1	-6
633.671	1	-5
634.858	1	10
636.045	1	7
637.232	1	-5
638.419	1	2
639.606	1	-3
640.793	1	-7
641.980	1	2
643.167	1	4
644.354	1	2
645.541	1	0
646.728	1	6
647.914	1	1
649.101	1	-2
650.288	1	5
651.474	1	0
652.661	1	-1
653.847	1	1
655.034	1	4
656.220	1	-1
657.406	1	3
658.593	1	6
659.779	1	-6
660.965	1	1
662.152	1	6
663.338	1	0
664.524	1	0
665.710	1	-1
666.896	1	14
668.082	1	1
669.268	1	-3
670.454	1	-6
671.640	1	-3
672.826	1	-3
674.011	1	-1
675.197	1	4
676.383	1	4
677.569	1	-5
678.754	1	0
679.940	1	3
681.125	1	10
682.311	1	-2
683.496	1	-1
684.682	1	-4
685.867	1	0
687.053	1	1
688.238	1	9
688.746	1	-2

File: GaN_sample F_spot6_UVVIS_130 K_200um_350 ms 2x2mm1_267.txt
340.368	1	0
341.565	1	0
342.763	1	8
343.960	1	1
345.157	1	-14
346.354	1	-5
347.552	1	5
348.749	1	1
349.946	1	2
351.143	1	8
352.340	1	14
353.537	1	2
354.734	1	1
355.931	1	-2
357.127	1	16
358.324	1	0
359.521	1	5
360.718	1	7
361.914	1	6
363.111	1	7
364.308	1	9
365.504	1	13
366.701	1	7
367.897	1	0
369.093	1	14
370.290	1	11
371.486	1	8
372.682	1	9
373.879	1	14
375.075	1	11
376.271	1	15
377.467	1	9
378.663	1	7
379.859	1	11
381.055	1	7
382.251	1	5
383.447	1	2
384.643	1	-2
385.839	1	9
387.035	1	9
388.230	1	7
389.426	1	9
390.622	1	4
391.817	1	13
393.013	1	6
394.208	1	0
395.404	1	-7
396.599	1	5
397.795	1	-2
398.990	1	-2
400.186	1	1
401.381	1	7
402.576	1	7
403.771	1	11
404.967	1	-6
406.162	1	9
407.357	1	0
408.552	1	-6
409.747	1	4
410.942	1	10
412.137	1	-1
413.332	1	0
414.526	1	1
415.721	1	5
416.916	1	10
418.111	1	9
419.305	1	3
420.500	1	6
421.695	1	4
422.889	1	6
424.084	1	0
425.278	1	2
426.472	1	5
427.667	1	11
428.861	1	10
430.055	1	9
431.250	1	6
432.444	1	8
433.638	1	4
434.832	1	3
436.026	1	8
437.220	1	-1
438.414	1	-2
439.608	1	11
440.802	1	-3
441.996	1	8
443.190	1	4
444.384	1	-1
445.578	1	6
446.771	1	7
447.965	1	6
449.159	1	-1
450.352	1	8
451.546	1	8
452.739	1	7
453.933	1	-3
455.126	1	-4
456.320	1	7
457.513	1	1
458.706	1	5
459.899	1	7
461.093	1	11
462.286	1	-3
463.479	1	4
464.672	1	9
465.865	1	-4
467.058	1	14
468.251	1	7
469.444	1	4
470.637	1	-2
471.830	1	8
473.023	1	5
474.215	1	2
475.408	1	6
476.601	1	0
477.793	1	-2
478.986	1	6
480.179	1	-4
481.371	1	2
482.564	1	1
483.756	1	-7
484.948	1	1
486.141	1	0
487.333	1	-12
488.525	1	6
489.718	1	6
490.910	1	1
492.102	1	12
493.294	1	4
494.486	1	9
495.678	1	2
496.870	1	1
498.062	1	-6
499.254	1	-1
500.446	1	9
501.638	1	-1
502.829	1	3
504.021	1	2
505.213	1	10
506.404	1	-1
507.596	1	5
508.788	1	6
509.979	1	-5
511.171	1	12
512.362	1	-3
513.553	1	9
514.745	1	2
515.936	1	7
517.127	1	3
518.319	1	-8
519.510	1	-1
520.701	1	3
521.892	1	13
523.083	1	4
524.274	1	-6
525.465	1	5
526.656	1	7
527.847	1	1
529.038	1	2
530.229	1	10
531.419	1	1
532.610	1	-4
533.801	1	24
534.991	1	1
536.182	1	-2
537.373	1	0
538.563	1	12
539.754	1	-2
540.944	1	6
542.134	1	9
543.325	1	13
544.515	1	9
545.705	1	3
546.896	1	4
548.086	1	-6
549.276	1	-1
550.466	1	9
551.656	1	1
552.846	1	-6
554.036	1	-7
555.226	1	0
556.416	1	5
557.606	1	2
558.796	1	14
559.986	1	4
561.175	1	6
562.365	1	10
563.555	1	8
564.744	1	-3
565.934	1	8
567.123	1	6
568.313	1	2
569.502	1	5
570.692	1	8
571.881	1	4
573.070	1	4
574.260	1	12
575.449	1	5
576.638	1	1
577.827	1	-8
579.016	1	-2
580.205	1	-4
581.394	1	4
582.583	1	19
583.772	1	3
584.961	1	3
586.150	1	11
587.339	1	2
588.528	1	3
589.717	1	-7
590.905	1	7
592.094	1	-5
593.283	1	-5
594.471	1	2
595.660	1	1
596.848	1	9
598.037	1	8
599.225	1	-2
600.413	1	5
601.602	1	2
602.790	1	-5
603.978	1	12
605.166	1	3
606.355	1	8
607.543	1	-1
608.731	1	17
609.919	1	12
611.107	1	5
612.295	1	10
613.483	1	-3
614.671	1	5
615.858	1	-3
617.046	1	10
618.234	1	11
619.422	1	-1
620.609	1	-6
621.797	1	8
622.985	1	10
624.172	1	-1
625.360	1	2
626.547	1	4
627.735	1	7
628.922	1	-6
630.109	1	9
631.297	1	-6
632.484	1	-3
633.671	1	0
634.858	1	3
636.045	1	20
637.232	1	3
638.419	1	5
639.606	1	7
640.793	1	-11
641.980	1	4
643.167	1	7
644.354	1	-5
645.541	1	-4
646.728	1	0
647.914	1	-2
649.101	1	3
650.288	1	3
651.474	1	-6
652.661	1	0
653.847	1	-2
655.034	1	3
656.220	1	2
657.406	1	1
658.593	1	-5
659.779	1	-3
660.965	1	5
662.152	1	-7
663.338	1	-1
664.524	1	-4
665.710	1	4
666.896	1	6
668.082	1	2
669.268	1	-3
670.454	1	4
671.640	1	-3
672.826	1	4
674.011	1	-2
675.197	1	-4
676.383	1	2
677.569	1	1
678.754	1	2
679.940	1	-4
681.125	1	16
682.311	1	-5
683.496	1	1
684.682	1	-9
685.867	1	3
687.053	1	-1
688.238	1	6
688.746	1	-2

File: GaN_sample F_spot6_UVVIS_130 K_200um_350 ms 2x2mm1_268.txt
340.368	1	4
341.565	1	-9
342.763	1	-3
343.960	1	-10
345.157	1	-14
346.354	1	1
347.552	1	-3
348.749	1	3
349.946	1	7
351.143	1	0
352.340	1	8
353.537	1	1
354.734	1	-1
355.931	1	-1
357.127	1	3
358.324	1	-2
359.521	1	5
360.718	1	3
361.914	1	0
363.111	1	9
364.308	1	12
365.504	1	17
366.701	1	9
367.897	1	7
369.093	1	16
370.290	1	17
371.486	1	4
372.682	1	-4
373.879	1	9
375.075	1	9
376.271	1	2
377.467	1	16
378.663	1	9
379.859	1	5
381.055	1	9
382.251	1	8
383.447	1	2
384.643	1	10
385.839	1	12
387.035	1	8
388.230	1	-2
389.426	1	5
390.622	1	4
391.817	1	9
393.013	1	6
394.208	1	-14
395.404	1	-5
396.599	1	12
397.795	1	-4
398.990	1	4
400.186	1	-3
401.381	1	10
402.576	1	0
403.771	1	9
404.967	1	1
406.162	1	-11
407.357	1	7
408.552	1	-4
409.747	1	0
410.942	1	-6
412.137	1	-7
413.332	1	-8
414.526	1	5
415.721	1	1
416.916	1	-7
418.111	1	1
419.305	1	-1
420.500	1	1
421.695	1	5
422.889	1	-5
424.084	1	6
425.278	1	-1
426.472	1	6
427.667	1	11
428.861	1	-3
430.055	1	3
431.250	1	8
432.444	1	3
433.638	1	5
434.832	1	-3
436.026	1	9
437.220	1	-9
438.414	1	7
439.608	1	11
440.802	1	-6
441.996	1	9
443.190	1	7
444.384	1	-1
445.578	1	-4
446.771	1	4
447.965	1	6
449.159	1	4
450.352	1	13
451.546	1	0
452.739	1	5
453.933	1	3
455.126	1	2
456.320	1	-4
457.513	1	-5
458.706	1	10
459.899	1	-7
461.093	1	9
462.286	1	13
463.479	1	10
464.672	1	1
465.865	1	-5
467.058	1	-1
468.251	1	9
469.444	1	0
470.637	1	6
471.830	1	2
473.023	1	7
474.215	1	12
475.408	1	10
476.601	1	0
477.793	1	1
478.986	1	3
480.179	1	5
481.371	1	11
482.564	1	1
483.756	1	0
484.948	1	4
486.141	1	-7
487.333	1	-8
488.525	1	3
489.718	1	6
490.910	1	-5
492.102	1	5
493.294	1	11
494.486	1	10
495.678	1	-8
496.870	1	5
498.062	1	-3
499.254	1	6
500.446	1	11
501.638	1	6
502.829	1	-1
504.021	1	2
505.213	1	6
506.404	1	0
507.596	1	7
508.788	1	-3
509.979	1	1
511.171	1	16
512.362	1	12
513.553	1	8
514.745	1	-4
515.936	1	8
517.127	1	-2
518.319	1	4
519.510	1	4
520.701	1	4
521.892	1	11
523.083	1	7
524.274	1	-2
525.465	1	3
526.656	1	2
527.847	1	1
529.038	1	-1
530.229	1	5
531.419	1	7
532.610	1	4
533.801	1	14
534.991	1	-1
536.182	1	-2
537.373	1	-1
538.563	1	4
539.754	1	5
540.944	1	8
542.134	1	12
543.325	1	1
544.515	1	17
545.705	1	2
546.896	1	6
548.086	1	-8
549.276	1	-1
550.466	1	10
551.656	1	7
552.846	1	6
554.036	1	1
555.226	1	6
556.416	1	11
557.606	1	1
558.796	1	9
559.986	1	7
561.175	1	14
562.365	1	6
563.555	1	7
564.744	1	8
565.934	1	-3
567.123	1	2
568.313	1	-6
569.502	1	-3
570.692	1	9
571.881	1	-5
573.070	1	1
574.260	1	-1
575.449	1	13
576.638	1	1
577.827	1	-4
579.016	1	-5
580.205	1	-3
581.394	1	-1
582.583	1	5
583.772	1	-1
584.961	1	1
586.150	1	10
587.339	1	0
588.528	1	7
589.717	1	2
590.905	1	9
592.094	1	-6
593.283	1	-7
594.471	1	0
595.660	1	7
596.848	1	1
598.037	1	2
599.225	1	5
600.413	1	1
601.602	1	-8
602.790	1	-1
603.978	1	3
605.166	1	16
606.355	1	9
607.543	1	2
608.731	1	8
609.919	1	6
611.107	1	9
612.295	1	4
613.483	1	6
614.671	1	-4
615.858	1	-9
617.046	1	7
618.234	1	6
619.422	1	-3
620.609	1	-5
621.797	1	-2
622.985	1	6
624.172	1	3
625.360	1	1
626.547	1	5
627.735	1	2
628.922	1	-7
630.109	1	5
631.297	1	4
632.484	1	-5
633.671	1	6
634.858	1	5
636.045	1	1
637.232	1	-2
638.419	1	1
639.606	1	2
640.793	1	-4
641.980	1	5
643.167	1	9
644.354	1	-9
645.541	1	0
646.728	1	1
647.914	1	-4
649.101	1	-5
650.288	1	11
651.474	1	-4
652.661	1	-2
653.847	1	-6
655.034	1	-5
656.220	1	2
657.406	1	-3
658.593	1	11
659.779	1	-4
660.965	1	6
662.152	1	1
663.338	1	-8
664.524	1	0
665.710	1	2
666.896	1	-1
668.082	1	-1
669.268	1	6
670.454	1	2
671.640	1	-11
672.826	1	2
674.011	1	6
675.197	1	1
676.383	1	4
677.569	1	-1
678.754	1	2
679.940	1	2
681.125	1	9
682.311	1	-15
683.496	1	0
684.682	1	0
685.867	1	7
687.053	1	3
688.238	1	6
688.746	1	1

File: GaN_sample F_spot6_UVVIS_130 K_200um_350 ms 2x2mm1_269.txt
340.368	1	4
341.565	1	2
342.763	1	4
343.960	1	-9
345.157	1	-4
346.354	1	-5
347.552	1	6
348.749	1	1
349.946	1	9
351.143	1	2
352.340	1	11
353.537	1	-7
354.734	1	3
355.931	1	9
357.127	1	4
358.324	1	2
359.521	1	8
360.718	1	10
361.914	1	1
363.111	1	9
364.308	1	13
365.504	1	10
366.701	1	15
367.897	1	1
369.093	1	13
370.290	1	21
371.486	1	9
372.682	1	0
373.879	1	15
375.075	1	15
376.271	1	14
377.467	1	12
378.663	1	6
379.859	1	1
381.055	1	9
382.251	1	3
383.447	1	7
384.643	1	-3
385.839	1	3
387.035	1	16
388.230	1	0
389.426	1	-2
390.622	1	5
391.817	1	13
393.013	1	6
394.208	1	-7
395.404	1	-3
396.599	1	2
397.795	1	-3
398.990	1	-8
400.186	1	-3
401.381	1	5
402.576	1	7
403.771	1	11
404.967	1	2
406.162	1	1
407.357	1	5
408.552	1	1
409.747	1	4
410.942	1	1
412.137	1	3
413.332	1	-2
414.526	1	-1
415.721	1	4
416.916	1	4
418.111	1	15
419.305	1	1
420.500	1	4
421.695	1	-2
422.889	1	5
424.084	1	13
425.278	1	-2
426.472	1	10
427.667	1	13
428.861	1	-8
430.055	1	-1
431.250	1	9
432.444	1	8
433.638	1	13
434.832	1	3
436.026	1	-5
437.220	1	-1
438.414	1	1
439.608	1	8
440.802	1	-1
441.996	1	3
443.190	1	-1
444.384	1	-4
445.578	1	-2
446.771	1	5
447.965	1	5
449.159	1	3
450.352	1	3
451.546	1	13
452.739	1	-1
453.933	1	4
455.126	1	4
456.320	1	6
457.513	1	1
458.706	1	2
459.899	1	1
461.093	1	3
462.286	1	12
463.479	1	13
464.672	1	7
465.865	1	-6
467.058	1	4
468.251	1	-5
469.444	1	-3
470.637	1	-1
471.830	1	7
473.023	1	3
474.215	1	-3
475.408	1	4
476.601	1	-1
477.793	1	-5
478.986	1	0
480.179	1	4
481.371	1	7
482.564	1	-3
483.756	1	1
484.948	1	8
486.141	1	3
487.333	1	-11
488.525	1	0
489.718	1	9
490.910	1	-4
492.102	1	3
493.294	1	3
494.486	1	14
495.678	1	-1
496.870	1	3
498.062	1	-4
499.254	1	4
500.446	1	2
501.638	1	2
502.829	1	-4
504.021	1	1
505.213	1	3
506.404	1	4
507.596	1	6
508.788	1	-2
509.979	1	-3
511.171	1	5
512.362	1	-5
513.553	1	6
514.745	1	4
515.936	1	12
517.127	1	4
518.319	1	-2
519.510	1	2
520.701	1	-7
521.892	1	1
523.083	1	9
524.274	1	-10
525.465	1	2
526.656	1	2
527.847	1	-1
529.038	1	-5
530.229	1	10
531.419	1	8
532.610	1	-14
533.801	1	14
534.991	1	4
536.182	1	8
537.373	1	8
538.563	1	17
539.754	1	-6
540.944	1	0
542.134	1	1
543.325	1	-1
544.515	1	6
545.705	1	0
546.896	1	8
548.086	1	-6
549.276	1	3
550.466	1	1
551.656	1	7
552.846	1	-2
554.036	1	-8
555.226	1	9
556.416	1	8
557.606	1	-8
558.796	1	6
559.986	1	0
561.175	1	2
562.365	1	13
563.555	1	7
564.744	1	3
565.934	1	1
567.123	1	-1
568.313	1	3
569.502	1	-1
570.692	1	9
571.881	1	1
573.070	1	-4
574.260	1	5
575.449	1	9
576.638	1	-12
577.827	1	0
579.016	1	-1
580.205	1	-5
581.394	1	1
582.583	1	12
583.772	1	5
584.961	1	0
586.150	1	9
587.339	1	-3
588.528	1	3
589.717	1	-2
590.905	1	8
592.094	1	1
593.283	1	-12
594.471	1	6
595.660	1	-10
596.848	1	5
598.037	1	6
599.225	1	5
600.413	1	6
601.602	1	-6
602.790	1	-3
603.978	1	7
605.166	1	8
606.355	1	10
607.543	1	-1
608.731	1	-1
609.919	1	8
611.107	1	9
612.295	1	9
613.483	1	0
614.671	1	3
615.858	1	-6
617.046	1	2
618.234	1	-1
619.422	1	3
620.609	1	-9
621.797	1	-7
622.985	1	8
624.172	1	2
625.360	1	6
626.547	1	4
627.735	1	2
628.922	1	6
630.109	1	16
631.297	1	1
632.484	1	-7
633.671	1	-10
634.858	1	12
636.045	1	6
637.232	1	-7
638.419	1	8
639.606	1	12
640.793	1	-8
641.980	1	6
643.167	1	-2
644.354	1	-1
645.541	1	1
646.728	1	14
647.914	1	-5
649.101	1	1
650.288	1	3
651.474	1	-4
652.661	1	4
653.847	1	0
655.034	1	-1
656.220	1	4
657.406	1	2
658.593	1	-1
659.779	1	2
660.965	1	2
662.152	1	6
663.338	1	8
664.524	1	-3
665.710	1	-7
666.896	1	1
668.082	1	-4
669.268	1	-2
670.454	1	8
671.640	1	-9
672.826	1	-5
674.011	1	6
675.197	1	-1
676.383	1	0
677.569	1	3
678.754	1	4
679.940	1	-14
681.125	1	14
682.311	1	-5
683.496	1	1
684.682	1	-2
685.867	1	-5
687.053	1	-2
688.238	1	8
688.746	1	2