Folder: cryo-il_analysis/Data/GaN_170K_550ms (part 29)

File: GaN_sample D_spot 18_UVVIS_170 K_200um_550 ms 2x2mm1_357.txt
340.368	1	0
341.565	1	0
342.763	1	1
343.960	1	-4
345.157	1	0
346.354	1	-7
347.552	1	7
348.749	1	3
349.946	1	9
351.143	1	1
352.340	1	7
353.537	1	0
354.734	1	11
355.931	1	2
357.127	1	3
358.324	1	-1
359.521	1	5
360.718	1	-4
361.914	1	2
363.111	1	9
364.308	1	13
365.504	1	5
366.701	1	5
367.897	1	8
369.093	1	3
370.290	1	7
371.486	1	1
372.682	1	8
373.879	1	4
375.075	1	4
376.271	1	1
377.467	1	4
378.663	1	7
379.859	1	-2
381.055	1	5
382.251	1	2
383.447	1	13
384.643	1	2
385.839	1	-5
387.035	1	11
388.230	1	1
389.426	1	3
390.622	1	-1
391.817	1	9
393.013	1	-1
394.208	1	7
395.404	1	3
396.599	1	3
397.795	1	-6
398.990	1	-8
400.186	1	-3
401.381	1	4
402.576	1	2
403.771	1	7
404.967	1	-3
406.162	1	-10
407.357	1	-2
408.552	1	4
409.747	1	2
410.942	1	1
412.137	1	-9
413.332	1	-14
414.526	1	-4
415.721	1	-6
416.916	1	-10
418.111	1	4
419.305	1	4
420.500	1	0
421.695	1	-14
422.889	1	-3
424.084	1	20
425.278	1	1
426.472	1	1
427.667	1	-1
428.861	1	2
430.055	1	2
431.250	1	15
432.444	1	1
433.638	1	13
434.832	1	3
436.026	1	1
437.220	1	-3
438.414	1	-3
439.608	1	-8
440.802	1	10
441.996	1	4
443.190	1	-3
444.384	1	3
445.578	1	14
446.771	1	-14
447.965	1	-1
449.159	1	-1
450.352	1	-10
451.546	1	-3
452.739	1	1
453.933	1	-6
455.126	1	4
456.320	1	5
457.513	1	10
458.706	1	4
459.899	1	3
461.093	1	8
462.286	1	2
463.479	1	-2
464.672	1	-6
465.865	1	4
467.058	1	1
468.251	1	-1
469.444	1	-1
470.637	1	5
471.830	1	2
473.023	1	1
474.215	1	5
475.408	1	-6
476.601	1	-3
477.793	1	6
478.986	1	-1
480.179	1	-3
481.371	1	-1
482.564	1	6
483.756	1	5
484.948	1	-1
486.141	1	15
487.333	1	-9
488.525	1	9
489.718	1	2
490.910	1	0
492.102	1	-2
493.294	1	0
494.486	1	13
495.678	1	17
496.870	1	-2
498.062	1	-5
499.254	1	0
500.446	1	-7
501.638	1	-2
502.829	1	7
504.021	1	4
505.213	1	-7
506.404	1	-1
507.596	1	2
508.788	1	-2
509.979	1	-2
511.171	1	-3
512.362	1	-1
513.553	1	-4
514.745	1	-7
515.936	1	2
517.127	1	2
518.319	1	10
519.510	1	14
520.701	1	4
521.892	1	6
523.083	1	1
524.274	1	-5
525.465	1	0
526.656	1	11
527.847	1	-2
529.038	1	-4
530.229	1	11
531.419	1	-2
532.610	1	8
533.801	1	2
534.991	1	-4
536.182	1	-4
537.373	1	-4
538.563	1	1
539.754	1	-4
540.944	1	-9
542.134	1	5
543.325	1	6
544.515	1	5
545.705	1	1
546.896	1	10
548.086	1	-2
549.276	1	-3
550.466	1	-3
551.656	1	7
552.846	1	4
554.036	1	1
555.226	1	-3
556.416	1	3
557.606	1	3
558.796	1	-2
559.986	1	6
561.175	1	-4
562.365	1	6
563.555	1	-5
564.744	1	-3
565.934	1	13
567.123	1	-4
568.313	1	1
569.502	1	-1
570.692	1	5
571.881	1	-4
573.070	1	10
574.260	1	6
575.449	1	3
576.638	1	5
577.827	1	-1
579.016	1	3
580.205	1	-5
581.394	1	4
582.583	1	1
583.772	1	-6
584.961	1	0
586.150	1	-5
587.339	1	2
588.528	1	-4
589.717	1	5
590.905	1	3
592.094	1	-2
593.283	1	-3
594.471	1	-1
595.660	1	3
596.848	1	8
598.037	1	-6
599.225	1	-5
600.413	1	-2
601.602	1	7
602.790	1	1
603.978	1	-4
605.166	1	11
606.355	1	1
607.543	1	9
608.731	1	6
609.919	1	0
611.107	1	4
612.295	1	0
613.483	1	-5
614.671	1	7
615.858	1	-1
617.046	1	-1
618.234	1	-5
619.422	1	-10
620.609	1	4
621.797	1	13
622.985	1	3
624.172	1	-1
625.360	1	5
626.547	1	-9
627.735	1	-10
628.922	1	-15
630.109	1	3
631.297	1	-6
632.484	1	-2
633.671	1	2
634.858	1	-2
636.045	1	2
637.232	1	6
638.419	1	-13
639.606	1	-4
640.793	1	-2
641.980	1	-6
643.167	1	-8
644.354	1	-1
645.541	1	-6
646.728	1	-1
647.914	1	-6
649.101	1	2
650.288	1	-4
651.474	1	10
652.661	1	0
653.847	1	-3
655.034	1	-1
656.220	1	4
657.406	1	-10
658.593	1	-5
659.779	1	2
660.965	1	10
662.152	1	-7
663.338	1	6
664.524	1	10
665.710	1	1
666.896	1	3
668.082	1	7
669.268	1	-9
670.454	1	-8
671.640	1	3
672.826	1	4
674.011	1	9
675.197	1	3
676.383	1	1
677.569	1	-8
678.754	1	2
679.940	1	12
681.125	1	3
682.311	1	-1
683.496	1	1
684.682	1	0
685.867	1	4
687.053	1	-5
688.238	1	-7
688.746	1	-2

File: GaN_sample D_spot 18_UVVIS_170 K_200um_550 ms 2x2mm1_359.txt
340.368	1	-3
341.565	1	3
342.763	1	1
343.960	1	-2
345.157	1	1
346.354	1	-4
347.552	1	5
348.749	1	5
349.946	1	5
351.143	1	-2
352.340	1	8
353.537	1	10
354.734	1	6
355.931	1	3
357.127	1	-2
358.324	1	8
359.521	1	5
360.718	1	3
361.914	1	3
363.111	1	10
364.308	1	11
365.504	1	4
366.701	1	5
367.897	1	7
369.093	1	3
370.290	1	6
371.486	1	-4
372.682	1	4
373.879	1	8
375.075	1	8
376.271	1	8
377.467	1	4
378.663	1	3
379.859	1	2
381.055	1	10
382.251	1	9
383.447	1	7
384.643	1	-2
385.839	1	-2
387.035	1	-1
388.230	1	-13
389.426	1	4
390.622	1	-4
391.817	1	-2
393.013	1	6
394.208	1	9
395.404	1	8
396.599	1	-6
397.795	1	-2
398.990	1	-11
400.186	1	-7
401.381	1	9
402.576	1	-7
403.771	1	4
404.967	1	-4
406.162	1	-3
407.357	1	0
408.552	1	0
409.747	1	-7
410.942	1	9
412.137	1	-2
413.332	1	-8
414.526	1	0
415.721	1	-5
416.916	1	-2
418.111	1	3
419.305	1	-1
420.500	1	-5
421.695	1	-10
422.889	1	-5
424.084	1	14
425.278	1	-6
426.472	1	0
427.667	1	2
428.861	1	0
430.055	1	0
431.250	1	16
432.444	1	9
433.638	1	9
434.832	1	7
436.026	1	-8
437.220	1	0
438.414	1	-6
439.608	1	1
440.802	1	8
441.996	1	-6
443.190	1	5
444.384	1	4
445.578	1	2
446.771	1	-3
447.965	1	0
449.159	1	-2
450.352	1	-5
451.546	1	-5
452.739	1	1
453.933	1	5
455.126	1	19
456.320	1	1
457.513	1	9
458.706	1	4
459.899	1	-1
461.093	1	20
462.286	1	0
463.479	1	0
464.672	1	-7
465.865	1	-3
467.058	1	2
468.251	1	-6
469.444	1	0
470.637	1	-6
471.830	1	5
473.023	1	-10
474.215	1	6
475.408	1	-6
476.601	1	5
477.793	1	-1
478.986	1	-7
480.179	1	-3
481.371	1	-5
482.564	1	-2
483.756	1	-2
484.948	1	2
486.141	1	12
487.333	1	-4
488.525	1	9
489.718	1	3
490.910	1	-4
492.102	1	-3
493.294	1	-5
494.486	1	12
495.678	1	1
496.870	1	-3
498.062	1	-1
499.254	1	3
500.446	1	0
501.638	1	-9
502.829	1	-5
504.021	1	0
505.213	1	-7
506.404	1	1
507.596	1	9
508.788	1	-6
509.979	1	3
511.171	1	6
512.362	1	3
513.553	1	-7
514.745	1	-5
515.936	1	1
517.127	1	-4
518.319	1	5
519.510	1	6
520.701	1	1
521.892	1	1
523.083	1	3
524.274	1	-7
525.465	1	-3
526.656	1	8
527.847	1	-5
529.038	1	2
530.229	1	7
531.419	1	9
532.610	1	2
533.801	1	5
534.991	1	-5
536.182	1	4
537.373	1	2
538.563	1	4
539.754	1	1
540.944	1	-1
542.134	1	3
543.325	1	-7
544.515	1	-9
545.705	1	3
546.896	1	-7
548.086	1	-1
549.276	1	-6
550.466	1	-4
551.656	1	2
552.846	1	-9
554.036	1	8
555.226	1	-6
556.416	1	-2
557.606	1	-4
558.796	1	5
559.986	1	2
561.175	1	-12
562.365	1	6
563.555	1	0
564.744	1	2
565.934	1	3
567.123	1	-5
568.313	1	-4
569.502	1	-5
570.692	1	14
571.881	1	2
573.070	1	3
574.260	1	0
575.449	1	5
576.638	1	3
577.827	1	-5
579.016	1	-4
580.205	1	-6
581.394	1	3
582.583	1	2
583.772	1	-1
584.961	1	-4
586.150	1	-3
587.339	1	-2
588.528	1	-3
589.717	1	4
590.905	1	10
592.094	1	1
593.283	1	2
594.471	1	3
595.660	1	4
596.848	1	-3
598.037	1	-10
599.225	1	12
600.413	1	-13
601.602	1	2
602.790	1	14
603.978	1	4
605.166	1	13
606.355	1	8
607.543	1	10
608.731	1	-2
609.919	1	-4
611.107	1	1
612.295	1	2
613.483	1	-7
614.671	1	9
615.858	1	3
617.046	1	-9
618.234	1	8
619.422	1	-4
620.609	1	1
621.797	1	-3
622.985	1	2
624.172	1	0
625.360	1	-1
626.547	1	-5
627.735	1	-12
628.922	1	-1
630.109	1	5
631.297	1	-3
632.484	1	-2
633.671	1	15
634.858	1	3
636.045	1	10
637.232	1	6
638.419	1	-3
639.606	1	-1
640.793	1	-7
641.980	1	-1
643.167	1	3
644.354	1	-2
645.541	1	-1
646.728	1	4
647.914	1	0
649.101	1	-6
650.288	1	1
651.474	1	8
652.661	1	1
653.847	1	6
655.034	1	3
656.220	1	6
657.406	1	-7
658.593	1	2
659.779	1	1
660.965	1	5
662.152	1	-1
663.338	1	3
664.524	1	3
665.710	1	11
666.896	1	3
668.082	1	12
669.268	1	-6
670.454	1	-10
671.640	1	-1
672.826	1	3
674.011	1	0
675.197	1	6
676.383	1	1
677.569	1	-5
678.754	1	-1
679.940	1	-1
681.125	1	12
682.311	1	-1
683.496	1	5
684.682	1	-4
685.867	1	-1
687.053	1	-9
688.238	1	-2
688.746	1	-6

File: GaN_sample D_spot 18_UVVIS_170 K_200um_550 ms 2x2mm1_361.txt
340.368	1	-2
341.565	1	9
342.763	1	1
343.960	1	-3
345.157	1	1
346.354	1	-1
347.552	1	1
348.749	1	4
349.946	1	4
351.143	1	-10
352.340	1	9
353.537	1	-2
354.734	1	2
355.931	1	-1
357.127	1	-2
358.324	1	6
359.521	1	4
360.718	1	0
361.914	1	-4
363.111	1	8
364.308	1	6
365.504	1	3
366.701	1	4
367.897	1	1
369.093	1	-3
370.290	1	3
371.486	1	-1
372.682	1	8
373.879	1	5
375.075	1	2
376.271	1	6
377.467	1	10
378.663	1	3
379.859	1	-5
381.055	1	4
382.251	1	-3
383.447	1	15
384.643	1	-8
385.839	1	-10
387.035	1	-4
388.230	1	0
389.426	1	-1
390.622	1	-1
391.817	1	-6
393.013	1	1
394.208	1	14
395.404	1	-1
396.599	1	-1
397.795	1	3
398.990	1	3
400.186	1	-6
401.381	1	5
402.576	1	-1
403.771	1	-5
404.967	1	11
406.162	1	8
407.357	1	3
408.552	1	4
409.747	1	-3
410.942	1	5
412.137	1	-10
413.332	1	-7
414.526	1	9
415.721	1	-2
416.916	1	-6
418.111	1	1
419.305	1	-7
420.500	1	3
421.695	1	-10
422.889	1	-3
424.084	1	13
425.278	1	-9
426.472	1	-5
427.667	1	2
428.861	1	-4
430.055	1	0
431.250	1	7
432.444	1	-13
433.638	1	8
434.832	1	10
436.026	1	-2
437.220	1	0
438.414	1	-6
439.608	1	-2
440.802	1	13
441.996	1	-8
443.190	1	5
444.384	1	-4
445.578	1	7
446.771	1	-16
447.965	1	-6
449.159	1	-7
450.352	1	-11
451.546	1	-13
452.739	1	5
453.933	1	-6
455.126	1	8
456.320	1	3
457.513	1	5
458.706	1	13
459.899	1	-1
461.093	1	5
462.286	1	-2
463.479	1	-4
464.672	1	-4
465.865	1	3
467.058	1	-1
468.251	1	0
469.444	1	-3
470.637	1	3
471.830	1	2
473.023	1	7
474.215	1	4
475.408	1	-3
476.601	1	2
477.793	1	12
478.986	1	-5
480.179	1	2
481.371	1	5
482.564	1	-12
483.756	1	-3
484.948	1	1
486.141	1	14
487.333	1	-10
488.525	1	14
489.718	1	13
490.910	1	4
492.102	1	-1
493.294	1	-10
494.486	1	7
495.678	1	2
496.870	1	5
498.062	1	-3
499.254	1	-2
500.446	1	-7
501.638	1	-10
502.829	1	-8
504.021	1	2
505.213	1	-10
506.404	1	0
507.596	1	5
508.788	1	-14
509.979	1	3
511.171	1	-4
512.362	1	-1
513.553	1	-5
514.745	1	-4
515.936	1	-5
517.127	1	3
518.319	1	-1
519.510	1	1
520.701	1	-2
521.892	1	0
523.083	1	-6
524.274	1	-2
525.465	1	2
526.656	1	13
527.847	1	1
529.038	1	-3
530.229	1	15
531.419	1	3
532.610	1	-3
533.801	1	3
534.991	1	-3
536.182	1	2
537.373	1	6
538.563	1	9
539.754	1	-3
540.944	1	-5
542.134	1	0
543.325	1	2
544.515	1	5
545.705	1	10
546.896	1	-6
548.086	1	-3
549.276	1	-6
550.466	1	4
551.656	1	-9
552.846	1	-9
554.036	1	4
555.226	1	-6
556.416	1	2
557.606	1	10
558.796	1	-2
559.986	1	4
561.175	1	-6
562.365	1	7
563.555	1	-6
564.744	1	-3
565.934	1	3
567.123	1	-1
568.313	1	2
569.502	1	3
570.692	1	7
571.881	1	-3
573.070	1	5
574.260	1	-1
575.449	1	8
576.638	1	2
577.827	1	0
579.016	1	1
580.205	1	-4
581.394	1	-1
582.583	1	-9
583.772	1	-3
584.961	1	-8
586.150	1	-5
587.339	1	2
588.528	1	-5
589.717	1	5
590.905	1	0
592.094	1	9
593.283	1	2
594.471	1	9
595.660	1	2
596.848	1	-2
598.037	1	0
599.225	1	-4
600.413	1	-4
601.602	1	-4
602.790	1	8
603.978	1	9
605.166	1	3
606.355	1	6
607.543	1	-2
608.731	1	5
609.919	1	2
611.107	1	2
612.295	1	-1
613.483	1	-14
614.671	1	6
615.858	1	-6
617.046	1	-3
618.234	1	0
619.422	1	-7
620.609	1	3
621.797	1	2
622.985	1	-1
624.172	1	-4
625.360	1	4
626.547	1	-2
627.735	1	-4
628.922	1	-7
630.109	1	-10
631.297	1	-2
632.484	1	-3
633.671	1	8
634.858	1	2
636.045	1	6
637.232	1	3
638.419	1	-2
639.606	1	-4
640.793	1	0
641.980	1	-4
643.167	1	-2
644.354	1	2
645.541	1	-6
646.728	1	2
647.914	1	1
649.101	1	-2
650.288	1	5
651.474	1	5
652.661	1	0
653.847	1	-2
655.034	1	0
656.220	1	-1
657.406	1	1
658.593	1	1
659.779	1	3
660.965	1	7
662.152	1	-3
663.338	1	3
664.524	1	0
665.710	1	-3
666.896	1	5
668.082	1	7
669.268	1	2
670.454	1	-8
671.640	1	8
672.826	1	6
674.011	1	5
675.197	1	2
676.383	1	5
677.569	1	-1
678.754	1	2
679.940	1	7
681.125	1	9
682.311	1	3
683.496	1	3
684.682	1	4
685.867	1	1
687.053	1	-13
688.238	1	6
688.746	1	-11

File: GaN_sample D_spot 18_UVVIS_170 K_200um_550 ms 2x2mm1_365.txt
340.368	1	-3
341.565	1	6
342.763	1	2
343.960	1	2
345.157	1	0
346.354	1	-2
347.552	1	6
348.749	1	3
349.946	1	5
351.143	1	-4
352.340	1	6
353.537	1	-1
354.734	1	6
355.931	1	-4
357.127	1	-3
358.324	1	3
359.521	1	5
360.718	1	2
361.914	1	-4
363.111	1	6
364.308	1	7
365.504	1	-1
366.701	1	-3
367.897	1	2
369.093	1	-5
370.290	1	6
371.486	1	-1
372.682	1	4
373.879	1	13
375.075	1	-3
376.271	1	15
377.467	1	1
378.663	1	7
379.859	1	0
381.055	1	-6
382.251	1	-1
383.447	1	12
384.643	1	-4
385.839	1	-6
387.035	1	8
388.230	1	0
389.426	1	8
390.622	1	-10
391.817	1	-4
393.013	1	-7
394.208	1	6
395.404	1	4
396.599	1	-5
397.795	1	-5
398.990	1	-11
400.186	1	-14
401.381	1	16
402.576	1	-3
403.771	1	2
404.967	1	5
406.162	1	0
407.357	1	-4
408.552	1	3
409.747	1	0
410.942	1	1
412.137	1	-3
413.332	1	-7
414.526	1	3
415.721	1	-2
416.916	1	-5
418.111	1	18
419.305	1	4
420.500	1	-1
421.695	1	-15
422.889	1	-5
424.084	1	22
425.278	1	1
426.472	1	5
427.667	1	1
428.861	1	6
430.055	1	4
431.250	1	9
432.444	1	6
433.638	1	-1
434.832	1	4
436.026	1	-10
437.220	1	-6
438.414	1	-15
439.608	1	-1
440.802	1	3
441.996	1	-3
443.190	1	-7
444.384	1	9
445.578	1	1
446.771	1	-12
447.965	1	0
449.159	1	-2
450.352	1	-4
451.546	1	-4
452.739	1	4
453.933	1	3
455.126	1	6
456.320	1	-7
457.513	1	8
458.706	1	9
459.899	1	-2
461.093	1	4
462.286	1	-13
463.479	1	-5
464.672	1	0
465.865	1	10
467.058	1	7
468.251	1	-1
469.444	1	-6
470.637	1	-1
471.830	1	-4
473.023	1	-4
474.215	1	12
475.408	1	4
476.601	1	11
477.793	1	-1
478.986	1	2
480.179	1	-8
481.371	1	2
482.564	1	4
483.756	1	-4
484.948	1	-1
486.141	1	9
487.333	1	-7
488.525	1	2
489.718	1	9
490.910	1	1
492.102	1	-3
493.294	1	-5
494.486	1	9
495.678	1	-5
496.870	1	-1
498.062	1	5
499.254	1	2
500.446	1	-1
501.638	1	-7
502.829	1	-5
504.021	1	3
505.213	1	-2
506.404	1	12
507.596	1	2
508.788	1	-6
509.979	1	6
511.171	1	3
512.362	1	-1
513.553	1	0
514.745	1	3
515.936	1	3
517.127	1	1
518.319	1	5
519.510	1	8
520.701	1	2
521.892	1	-1
523.083	1	5
524.274	1	-5
525.465	1	-6
526.656	1	10
527.847	1	-5
529.038	1	1
530.229	1	7
531.419	1	1
532.610	1	12
533.801	1	2
534.991	1	-10
536.182	1	11
537.373	1	-5
538.563	1	-8
539.754	1	-5
540.944	1	-2
542.134	1	-1
543.325	1	2
544.515	1	9
545.705	1	8
546.896	1	6
548.086	1	-5
549.276	1	0
550.466	1	3
551.656	1	11
552.846	1	-1
554.036	1	-7
555.226	1	-5
556.416	1	2
557.606	1	14
558.796	1	2
559.986	1	3
561.175	1	-4
562.365	1	-3
563.555	1	2
564.744	1	2
565.934	1	-7
567.123	1	4
568.313	1	2
569.502	1	6
570.692	1	3
571.881	1	-3
573.070	1	2
574.260	1	3
575.449	1	-1
576.638	1	6
577.827	1	-3
579.016	1	-5
580.205	1	6
581.394	1	9
582.583	1	7
583.772	1	-5
584.961	1	-7
586.150	1	-3
587.339	1	-3
588.528	1	-5
589.717	1	13
590.905	1	0
592.094	1	-3
593.283	1	4
594.471	1	9
595.660	1	3
596.848	1	-1
598.037	1	-4
599.225	1	0
600.413	1	-5
601.602	1	-4
602.790	1	11
603.978	1	1
605.166	1	4
606.355	1	9
607.543	1	3
608.731	1	-3
609.919	1	-6
611.107	1	-6
612.295	1	3
613.483	1	-1
614.671	1	0
615.858	1	-5
617.046	1	-1
618.234	1	6
619.422	1	-4
620.609	1	-6
621.797	1	2
622.985	1	-2
624.172	1	-10
625.360	1	2
626.547	1	3
627.735	1	-11
628.922	1	-10
630.109	1	-2
631.297	1	1
632.484	1	6
633.671	1	4
634.858	1	9
636.045	1	8
637.232	1	2
638.419	1	-15
639.606	1	-1
640.793	1	-4
641.980	1	-14
643.167	1	2
644.354	1	-2
645.541	1	5
646.728	1	5
647.914	1	6
649.101	1	-1
650.288	1	-4
651.474	1	5
652.661	1	-1
653.847	1	3
655.034	1	2
656.220	1	-1
657.406	1	1
658.593	1	-4
659.779	1	2
660.965	1	11
662.152	1	3
663.338	1	4
664.524	1	4
665.710	1	-2
666.896	1	-6
668.082	1	18
669.268	1	-7
670.454	1	-4
671.640	1	2
672.826	1	-6
674.011	1	7
675.197	1	1
676.383	1	-4
677.569	1	-3
678.754	1	5
679.940	1	5
681.125	1	1
682.311	1	-8
683.496	1	11
684.682	1	9
685.867	1	-5
687.053	1	0
688.238	1	0
688.746	1	-8

File: GaN_sample D_spot 18_UVVIS_170 K_200um_550 ms 2x2mm1_367.txt
340.368	1	3
341.565	1	4
342.763	1	-2
343.960	1	-5
345.157	1	-5
346.354	1	-1
347.552	1	6
348.749	1	8
349.946	1	2
351.143	1	-2
352.340	1	0
353.537	1	-5
354.734	1	8
355.931	1	-5
357.127	1	-4
358.324	1	4
359.521	1	-1
360.718	1	3
361.914	1	2
363.111	1	5
364.308	1	8
365.504	1	0
366.701	1	7
367.897	1	3
369.093	1	-4
370.290	1	3
371.486	1	-5
372.682	1	3
373.879	1	3
375.075	1	6
376.271	1	3
377.467	1	3
378.663	1	-6
379.859	1	-5
381.055	1	-1
382.251	1	1
383.447	1	7
384.643	1	-1
385.839	1	-1
387.035	1	2
388.230	1	1
389.426	1	3
390.622	1	-1
391.817	1	-4
393.013	1	-5
394.208	1	4
395.404	1	5
396.599	1	-4
397.795	1	-8
398.990	1	-2
400.186	1	-5
401.381	1	2
402.576	1	-8
403.771	1	-4
404.967	1	1
406.162	1	2
407.357	1	-5
408.552	1	5
409.747	1	-6
410.942	1	5
412.137	1	-8
413.332	1	-1
414.526	1	-2
415.721	1	2
416.916	1	-12
418.111	1	9
419.305	1	-6
420.500	1	2
421.695	1	-12
422.889	1	-4
424.084	1	20
425.278	1	-1
426.472	1	-6
427.667	1	10
428.861	1	4
430.055	1	-4
431.250	1	10
432.444	1	6
433.638	1	7
434.832	1	3
436.026	1	3
437.220	1	-10
438.414	1	-6
439.608	1	-3
440.802	1	6
441.996	1	2
443.190	1	-5
444.384	1	-1
445.578	1	4
446.771	1	-6
447.965	1	1
449.159	1	-1
450.352	1	-3
451.546	1	-14
452.739	1	2
453.933	1	5
455.126	1	12
456.320	1	-1
457.513	1	5
458.706	1	4
459.899	1	1
461.093	1	2
462.286	1	-7
463.479	1	4
464.672	1	-1
465.865	1	2
467.058	1	7
468.251	1	1
469.444	1	0
470.637	1	-2
471.830	1	2
473.023	1	-3
474.215	1	0
475.408	1	-4
476.601	1	4
477.793	1	8
478.986	1	-2
480.179	1	-8
481.371	1	-1
482.564	1	-1
483.756	1	-1
484.948	1	1
486.141	1	8
487.333	1	-1
488.525	1	3
489.718	1	3
490.910	1	0
492.102	1	3
493.294	1	-1
494.486	1	3
495.678	1	0
496.870	1	-10
498.062	1	-5
499.254	1	8
500.446	1	3
501.638	1	2
502.829	1	1
504.021	1	-1
505.213	1	5
506.404	1	-1
507.596	1	6
508.788	1	-8
509.979	1	8
511.171	1	9
512.362	1	-7
513.553	1	-1
514.745	1	-1
515.936	1	0
517.127	1	8
518.319	1	8
519.510	1	-2
520.701	1	9
521.892	1	-8
523.083	1	-1
524.274	1	-3
525.465	1	5
526.656	1	17
527.847	1	0
529.038	1	-11
530.229	1	7
531.419	1	8
532.610	1	0
533.801	1	2
534.991	1	-2
536.182	1	-3
537.373	1	-2
538.563	1	-1
539.754	1	3
540.944	1	-5
542.134	1	-9
543.325	1	-5
544.515	1	3
545.705	1	4
546.896	1	2
548.086	1	10
549.276	1	5
550.466	1	0
551.656	1	6
552.846	1	1
554.036	1	0
555.226	1	-4
556.416	1	-1
557.606	1	10
558.796	1	-3
559.986	1	3
561.175	1	-1
562.365	1	-6
563.555	1	-4
564.744	1	7
565.934	1	-2
567.123	1	-1
568.313	1	-2
569.502	1	2
570.692	1	16
571.881	1	-5
573.070	1	-3
574.260	1	8
575.449	1	2
576.638	1	-5
577.827	1	-13
579.016	1	-1
580.205	1	-3
581.394	1	5
582.583	1	1
583.772	1	-3
584.961	1	-1
586.150	1	-5
587.339	1	0
588.528	1	-1
589.717	1	2
590.905	1	11
592.094	1	1
593.283	1	-6
594.471	1	1
595.660	1	2
596.848	1	4
598.037	1	-4
599.225	1	-2
600.413	1	-8
601.602	1	-5
602.790	1	6
603.978	1	-2
605.166	1	0
606.355	1	6
607.543	1	9
608.731	1	3
609.919	1	-3
611.107	1	-4
612.295	1	-11
613.483	1	-4
614.671	1	6
615.858	1	-2
617.046	1	-6
618.234	1	-2
619.422	1	-6
620.609	1	11
621.797	1	-4
622.985	1	4
624.172	1	-2
625.360	1	3
626.547	1	-5
627.735	1	0
628.922	1	-6
630.109	1	1
631.297	1	-4
632.484	1	4
633.671	1	-2
634.858	1	2
636.045	1	6
637.232	1	3
638.419	1	-3
639.606	1	-1
640.793	1	-3
641.980	1	-7
643.167	1	-1
644.354	1	-1
645.541	1	-4
646.728	1	-2
647.914	1	-9
649.101	1	2
650.288	1	-2
651.474	1	-1
652.661	1	-6
653.847	1	0
655.034	1	-2
656.220	1	-2
657.406	1	-8
658.593	1	-5
659.779	1	-2
660.965	1	5
662.152	1	-4
663.338	1	1
664.524	1	-1
665.710	1	2
666.896	1	5
668.082	1	10
669.268	1	-2
670.454	1	-11
671.640	1	3
672.826	1	-3
674.011	1	9
675.197	1	8
676.383	1	2
677.569	1	-7
678.754	1	4
679.940	1	1
681.125	1	5
682.311	1	4
683.496	1	0
684.682	1	1
685.867	1	0
687.053	1	-12
688.238	1	-2
688.746	1	-14

File: GaN_sample D_spot 18_UVVIS_170 K_200um_550 ms 2x2mm1_369.txt
340.368	1	3
341.565	1	2
342.763	1	4
343.960	1	-5
345.157	1	2
346.354	1	-8
347.552	1	2
348.749	1	-3
349.946	1	4
351.143	1	3
352.340	1	6
353.537	1	4
354.734	1	6
355.931	1	-6
357.127	1	-10
358.324	1	7
359.521	1	4
360.718	1	4
361.914	1	4
363.111	1	1
364.308	1	5
365.504	1	0
366.701	1	8
367.897	1	-1
369.093	1	-7
370.290	1	4
371.486	1	-2
372.682	1	7
373.879	1	9
375.075	1	-2
376.271	1	6
377.467	1	1
378.663	1	-4
379.859	1	11
381.055	1	-3
382.251	1	6
383.447	1	0
384.643	1	-3
385.839	1	-12
387.035	1	0
388.230	1	-5
389.426	1	2
390.622	1	-1
391.817	1	2
393.013	1	-3
394.208	1	2
395.404	1	1
396.599	1	-1
397.795	1	0
398.990	1	-11
400.186	1	2
401.381	1	9
402.576	1	-9
403.771	1	-1
404.967	1	0
406.162	1	2
407.357	1	-4
408.552	1	1
409.747	1	-10
410.942	1	1
412.137	1	0
413.332	1	-9
414.526	1	3
415.721	1	-6
416.916	1	-1
418.111	1	2
419.305	1	-3
420.500	1	1
421.695	1	-12
422.889	1	-4
424.084	1	12
425.278	1	-2
426.472	1	-1
427.667	1	6
428.861	1	-4
430.055	1	7
431.250	1	20
432.444	1	3
433.638	1	2
434.832	1	3
436.026	1	-1
437.220	1	-2
438.414	1	-6
439.608	1	2
440.802	1	5
441.996	1	2
443.190	1	5
444.384	1	0
445.578	1	2
446.771	1	-18
447.965	1	5
449.159	1	1
450.352	1	-7
451.546	1	-10
452.739	1	6
453.933	1	0
455.126	1	8
456.320	1	1
457.513	1	1
458.706	1	2
459.899	1	-1
461.093	1	10
462.286	1	-11
463.479	1	-9
464.672	1	-8
465.865	1	-5
467.058	1	0
468.251	1	-2
469.444	1	-4
470.637	1	7
471.830	1	-1
473.023	1	4
474.215	1	3
475.408	1	-1
476.601	1	0
477.793	1	10
478.986	1	-8
480.179	1	-9
481.371	1	-5
482.564	1	1
483.756	1	-1
484.948	1	-7
486.141	1	12
487.333	1	-15
488.525	1	2
489.718	1	6
490.910	1	9
492.102	1	-2
493.294	1	-5
494.486	1	8
495.678	1	4
496.870	1	4
498.062	1	4
499.254	1	0
500.446	1	-7
501.638	1	-2
502.829	1	-3
504.021	1	-2
505.213	1	6
506.404	1	-7
507.596	1	8
508.788	1	2
509.979	1	4
511.171	1	-3
512.362	1	-1
513.553	1	4
514.745	1	-1
515.936	1	1
517.127	1	8
518.319	1	1
519.510	1	4
520.701	1	-2
521.892	1	2
523.083	1	-7
524.274	1	0
525.465	1	4
526.656	1	6
527.847	1	-7
529.038	1	-4
530.229	1	12
531.419	1	5
532.610	1	2
533.801	1	4
534.991	1	4
536.182	1	-1
537.373	1	-5
538.563	1	-3
539.754	1	4
540.944	1	-14
542.134	1	0
543.325	1	0
544.515	1	-2
545.705	1	3
546.896	1	10
548.086	1	3
549.276	1	4
550.466	1	-1
551.656	1	0
552.846	1	0
554.036	1	-4
555.226	1	-1
556.416	1	2
557.606	1	9
558.796	1	-4
559.986	1	-1
561.175	1	-6
562.365	1	4
563.555	1	-2
564.744	1	-1
565.934	1	-1
567.123	1	-2
568.313	1	-4
569.502	1	-8
570.692	1	8
571.881	1	-9
573.070	1	7
574.260	1	0
575.449	1	2
576.638	1	-2
577.827	1	0
579.016	1	5
580.205	1	-8
581.394	1	3
582.583	1	3
583.772	1	1
584.961	1	-2
586.150	1	3
587.339	1	-3
588.528	1	-1
589.717	1	5
590.905	1	10
592.094	1	10
593.283	1	9
594.471	1	5
595.660	1	2
596.848	1	-3
598.037	1	1
599.225	1	-1
600.413	1	1
601.602	1	2
602.790	1	13
603.978	1	-8
605.166	1	5
606.355	1	3
607.543	1	8
608.731	1	2
609.919	1	-1
611.107	1	-5
612.295	1	0
613.483	1	-7
614.671	1	6
615.858	1	1
617.046	1	2
618.234	1	2
619.422	1	-2
620.609	1	-7
621.797	1	1
622.985	1	-3
624.172	1	-7
625.360	1	2
626.547	1	-3
627.735	1	-17
628.922	1	-14
630.109	1	-5
631.297	1	-8
632.484	1	-4
633.671	1	6
634.858	1	4
636.045	1	6
637.232	1	2
638.419	1	-3
639.606	1	-4
640.793	1	-10
641.980	1	0
643.167	1	-9
644.354	1	-6
645.541	1	4
646.728	1	1
647.914	1	0
649.101	1	-1
650.288	1	6
651.474	1	6
652.661	1	4
653.847	1	5
655.034	1	-6
656.220	1	-2
657.406	1	3
658.593	1	2
659.779	1	1
660.965	1	7
662.152	1	-3
663.338	1	8
664.524	1	6
665.710	1	3
666.896	1	-2
668.082	1	8
669.268	1	-6
670.454	1	-5
671.640	1	-1
672.826	1	1
674.011	1	2
675.197	1	2
676.383	1	-4
677.569	1	-10
678.754	1	5
679.940	1	6
681.125	1	3
682.311	1	1
683.496	1	-4
684.682	1	0
685.867	1	4
687.053	1	-5
688.238	1	-3
688.746	1	-12