Folder: cryo-il_analysis/Data/GaN_200K_800ms (part 20)

File: GaN_sample F_spot 12_UVVIS_200 K_200um_800 ms 2x2mm1_166.txt
340.368	1	4
341.565	1	1
342.763	1	-1
343.960	1	1
345.157	1	-1
346.354	1	-3
347.552	1	-8
348.749	1	-6
349.946	1	-2
351.143	1	5
352.340	1	5
353.537	1	6
354.734	1	2
355.931	1	2
357.127	1	1
358.324	1	5
359.521	1	5
360.718	1	14
361.914	1	14
363.111	1	16
364.308	1	20
365.504	1	41
366.701	1	37
367.897	1	35
369.093	1	39
370.290	1	36
371.486	1	45
372.682	1	34
373.879	1	27
375.075	1	24
376.271	1	27
377.467	1	24
378.663	1	9
379.859	1	23
381.055	1	24
382.251	1	2
383.447	1	17
384.643	1	13
385.839	1	15
387.035	1	3
388.230	1	8
389.426	1	10
390.622	1	6
391.817	1	8
393.013	1	1
394.208	1	5
395.404	1	5
396.599	1	2
397.795	1	-4
398.990	1	7
400.186	1	1
401.381	1	1
402.576	1	9
403.771	1	8
404.967	1	2
406.162	1	1
407.357	1	-1
408.552	1	-6
409.747	1	7
410.942	1	16
412.137	1	0
413.332	1	4
414.526	1	-4
415.721	1	1
416.916	1	-8
418.111	1	2
419.305	1	-1
420.500	1	-8
421.695	1	0
422.889	1	-10
424.084	1	-8
425.278	1	8
426.472	1	4
427.667	1	6
428.861	1	-9
430.055	1	2
431.250	1	2
432.444	1	-1
433.638	1	0
434.832	1	9
436.026	1	5
437.220	1	2
438.414	1	-4
439.608	1	-6
440.802	1	-1
441.996	1	-2
443.190	1	-1
444.384	1	-10
445.578	1	-7
446.771	1	20
447.965	1	0
449.159	1	-7
450.352	1	-4
451.546	1	0
452.739	1	3
453.933	1	3
455.126	1	-8
456.320	1	-6
457.513	1	5
458.706	1	-3
459.899	1	6
461.093	1	3
462.286	1	0
463.479	1	-7
464.672	1	-5
465.865	1	-7
467.058	1	0
468.251	1	2
469.444	1	-8
470.637	1	3
471.830	1	2
473.023	1	9
474.215	1	5
475.408	1	9
476.601	1	5
477.793	1	-8
478.986	1	-1
480.179	1	-6
481.371	1	3
482.564	1	4
483.756	1	7
484.948	1	-11
486.141	1	5
487.333	1	7
488.525	1	0
489.718	1	-1
490.910	1	5
492.102	1	-3
493.294	1	-6
494.486	1	8
495.678	1	2
496.870	1	5
498.062	1	0
499.254	1	-3
500.446	1	-8
501.638	1	-3
502.829	1	6
504.021	1	6
505.213	1	9
506.404	1	1
507.596	1	-2
508.788	1	20
509.979	1	-5
511.171	1	1
512.362	1	4
513.553	1	-3
514.745	1	5
515.936	1	-2
517.127	1	4
518.319	1	4
519.510	1	4
520.701	1	1
521.892	1	4
523.083	1	-2
524.274	1	4
525.465	1	5
526.656	1	3
527.847	1	4
529.038	1	4
530.229	1	7
531.419	1	1
532.610	1	-3
533.801	1	23
534.991	1	2
536.182	1	2
537.373	1	4
538.563	1	7
539.754	1	4
540.944	1	-1
542.134	1	13
543.325	1	1
544.515	1	7
545.705	1	6
546.896	1	0
548.086	1	4
549.276	1	3
550.466	1	11
551.656	1	10
552.846	1	6
554.036	1	8
555.226	1	-5
556.416	1	7
557.606	1	11
558.796	1	8
559.986	1	-1
561.175	1	11
562.365	1	9
563.555	1	-1
564.744	1	10
565.934	1	18
567.123	1	3
568.313	1	9
569.502	1	-1
570.692	1	11
571.881	1	17
573.070	1	3
574.260	1	12
575.449	1	7
576.638	1	1
577.827	1	0
579.016	1	23
580.205	1	-8
581.394	1	5
582.583	1	19
583.772	1	13
584.961	1	12
586.150	1	-5
587.339	1	4
588.528	1	2
589.717	1	11
590.905	1	5
592.094	1	4
593.283	1	5
594.471	1	16
595.660	1	6
596.848	1	13
598.037	1	-1
599.225	1	-3
600.413	1	12
601.602	1	8
602.790	1	4
603.978	1	-1
605.166	1	7
606.355	1	18
607.543	1	8
608.731	1	11
609.919	1	6
611.107	1	-2
612.295	1	3
613.483	1	15
614.671	1	12
615.858	1	11
617.046	1	8
618.234	1	3
619.422	1	-6
620.609	1	6
621.797	1	-8
622.985	1	0
624.172	1	8
625.360	1	-3
626.547	1	8
627.735	1	9
628.922	1	7
630.109	1	-4
631.297	1	1
632.484	1	-1
633.671	1	-7
634.858	1	0
636.045	1	5
637.232	1	-5
638.419	1	4
639.606	1	11
640.793	1	9
641.980	1	2
643.167	1	2
644.354	1	-7
645.541	1	4
646.728	1	-1
647.914	1	3
649.101	1	-11
650.288	1	12
651.474	1	-1
652.661	1	-5
653.847	1	8
655.034	1	5
656.220	1	-4
657.406	1	4
658.593	1	7
659.779	1	0
660.965	1	9
662.152	1	4
663.338	1	14
664.524	1	1
665.710	1	4
666.896	1	3
668.082	1	13
669.268	1	2
670.454	1	4
671.640	1	6
672.826	1	2
674.011	1	1
675.197	1	-2
676.383	1	3
677.569	1	-4
678.754	1	-5
679.940	1	-5
681.125	1	-6
682.311	1	6
683.496	1	7
684.682	1	-7
685.867	1	-3
687.053	1	-1
688.238	1	6
688.746	1	0

File: GaN_sample F_spot 12_UVVIS_200 K_200um_800 ms 2x2mm1_168.txt
340.368	1	6
341.565	1	-1
342.763	1	8
343.960	1	-3
345.157	1	-6
346.354	1	4
347.552	1	-1
348.749	1	2
349.946	1	-1
351.143	1	-2
352.340	1	5
353.537	1	5
354.734	1	0
355.931	1	-11
357.127	1	8
358.324	1	0
359.521	1	9
360.718	1	15
361.914	1	14
363.111	1	21
364.308	1	12
365.504	1	39
366.701	1	33
367.897	1	40
369.093	1	34
370.290	1	50
371.486	1	50
372.682	1	39
373.879	1	26
375.075	1	24
376.271	1	32
377.467	1	19
378.663	1	7
379.859	1	18
381.055	1	21
382.251	1	3
383.447	1	6
384.643	1	14
385.839	1	1
387.035	1	8
388.230	1	17
389.426	1	5
390.622	1	-2
391.817	1	8
393.013	1	-1
394.208	1	7
395.404	1	3
396.599	1	10
397.795	1	4
398.990	1	9
400.186	1	12
401.381	1	-2
402.576	1	-4
403.771	1	16
404.967	1	7
406.162	1	7
407.357	1	3
408.552	1	2
409.747	1	-1
410.942	1	2
412.137	1	4
413.332	1	6
414.526	1	5
415.721	1	9
416.916	1	-3
418.111	1	3
419.305	1	-5
420.500	1	0
421.695	1	-3
422.889	1	-9
424.084	1	3
425.278	1	6
426.472	1	3
427.667	1	9
428.861	1	2
430.055	1	4
431.250	1	1
432.444	1	2
433.638	1	-4
434.832	1	8
436.026	1	3
437.220	1	-6
438.414	1	-7
439.608	1	-3
440.802	1	-5
441.996	1	8
443.190	1	-2
444.384	1	-6
445.578	1	-3
446.771	1	14
447.965	1	0
449.159	1	-5
450.352	1	-1
451.546	1	7
452.739	1	1
453.933	1	-4
455.126	1	-5
456.320	1	-1
457.513	1	0
458.706	1	-2
459.899	1	2
461.093	1	1
462.286	1	2
463.479	1	-4
464.672	1	4
465.865	1	1
467.058	1	0
468.251	1	-1
469.444	1	-10
470.637	1	2
471.830	1	3
473.023	1	7
474.215	1	12
475.408	1	3
476.601	1	7
477.793	1	0
478.986	1	-6
480.179	1	-2
481.371	1	0
482.564	1	6
483.756	1	2
484.948	1	-7
486.141	1	-5
487.333	1	-2
488.525	1	-3
489.718	1	6
490.910	1	2
492.102	1	-2
493.294	1	-4
494.486	1	8
495.678	1	6
496.870	1	6
498.062	1	4
499.254	1	-1
500.446	1	-4
501.638	1	1
502.829	1	3
504.021	1	3
505.213	1	9
506.404	1	0
507.596	1	8
508.788	1	23
509.979	1	7
511.171	1	4
512.362	1	-7
513.553	1	-12
514.745	1	0
515.936	1	9
517.127	1	3
518.319	1	1
519.510	1	2
520.701	1	-3
521.892	1	6
523.083	1	3
524.274	1	12
525.465	1	9
526.656	1	-2
527.847	1	6
529.038	1	4
530.229	1	7
531.419	1	3
532.610	1	-3
533.801	1	22
534.991	1	13
536.182	1	11
537.373	1	11
538.563	1	15
539.754	1	13
540.944	1	-4
542.134	1	13
543.325	1	7
544.515	1	4
545.705	1	9
546.896	1	6
548.086	1	6
549.276	1	3
550.466	1	5
551.656	1	7
552.846	1	2
554.036	1	9
555.226	1	-1
556.416	1	13
557.606	1	8
558.796	1	6
559.986	1	8
561.175	1	8
562.365	1	8
563.555	1	0
564.744	1	0
565.934	1	7
567.123	1	13
568.313	1	8
569.502	1	11
570.692	1	5
571.881	1	14
573.070	1	2
574.260	1	5
575.449	1	-2
576.638	1	4
577.827	1	9
579.016	1	11
580.205	1	1
581.394	1	2
582.583	1	15
583.772	1	8
584.961	1	3
586.150	1	1
587.339	1	2
588.528	1	11
589.717	1	10
590.905	1	5
592.094	1	0
593.283	1	-1
594.471	1	11
595.660	1	10
596.848	1	4
598.037	1	1
599.225	1	-3
600.413	1	13
601.602	1	10
602.790	1	2
603.978	1	-2
605.166	1	11
606.355	1	12
607.543	1	-3
608.731	1	4
609.919	1	8
611.107	1	8
612.295	1	-4
613.483	1	4
614.671	1	4
615.858	1	8
617.046	1	11
618.234	1	5
619.422	1	1
620.609	1	11
621.797	1	-5
622.985	1	8
624.172	1	1
625.360	1	5
626.547	1	6
627.735	1	7
628.922	1	11
630.109	1	-6
631.297	1	5
632.484	1	2
633.671	1	-8
634.858	1	2
636.045	1	13
637.232	1	4
638.419	1	0
639.606	1	9
640.793	1	10
641.980	1	5
643.167	1	-2
644.354	1	3
645.541	1	-4
646.728	1	-8
647.914	1	-2
649.101	1	0
650.288	1	10
651.474	1	0
652.661	1	3
653.847	1	2
655.034	1	6
656.220	1	0
657.406	1	6
658.593	1	6
659.779	1	8
660.965	1	6
662.152	1	1
663.338	1	15
664.524	1	-7
665.710	1	1
666.896	1	-7
668.082	1	2
669.268	1	0
670.454	1	6
671.640	1	3
672.826	1	-8
674.011	1	0
675.197	1	-7
676.383	1	-3
677.569	1	2
678.754	1	-7
679.940	1	-6
681.125	1	9
682.311	1	1
683.496	1	4
684.682	1	-11
685.867	1	0
687.053	1	4
688.238	1	12
688.746	1	2

File: GaN_sample F_spot 12_UVVIS_200 K_200um_800 ms 2x2mm1_169.txt
340.368	1	5
341.565	1	-13
342.763	1	3
343.960	1	-3
345.157	1	-8
346.354	1	8
347.552	1	-1
348.749	1	-9
349.946	1	-4
351.143	1	0
352.340	1	5
353.537	1	-1
354.734	1	9
355.931	1	10
357.127	1	2
358.324	1	2
359.521	1	8
360.718	1	11
361.914	1	12
363.111	1	13
364.308	1	16
365.504	1	37
366.701	1	34
367.897	1	42
369.093	1	33
370.290	1	43
371.486	1	44
372.682	1	34
373.879	1	30
375.075	1	14
376.271	1	36
377.467	1	19
378.663	1	1
379.859	1	11
381.055	1	17
382.251	1	10
383.447	1	11
384.643	1	16
385.839	1	10
387.035	1	8
388.230	1	12
389.426	1	8
390.622	1	2
391.817	1	10
393.013	1	4
394.208	1	5
395.404	1	0
396.599	1	3
397.795	1	7
398.990	1	3
400.186	1	1
401.381	1	-6
402.576	1	-4
403.771	1	1
404.967	1	3
406.162	1	9
407.357	1	-2
408.552	1	-5
409.747	1	8
410.942	1	4
412.137	1	9
413.332	1	0
414.526	1	-8
415.721	1	0
416.916	1	-4
418.111	1	-1
419.305	1	-1
420.500	1	1
421.695	1	-7
422.889	1	-4
424.084	1	4
425.278	1	12
426.472	1	1
427.667	1	-1
428.861	1	1
430.055	1	6
431.250	1	1
432.444	1	13
433.638	1	0
434.832	1	14
436.026	1	11
437.220	1	0
438.414	1	-7
439.608	1	-6
440.802	1	-4
441.996	1	5
443.190	1	2
444.384	1	-2
445.578	1	-11
446.771	1	20
447.965	1	-2
449.159	1	-9
450.352	1	-1
451.546	1	1
452.739	1	6
453.933	1	5
455.126	1	-7
456.320	1	-6
457.513	1	7
458.706	1	6
459.899	1	-1
461.093	1	2
462.286	1	-3
463.479	1	-10
464.672	1	-3
465.865	1	-1
467.058	1	1
468.251	1	0
469.444	1	-6
470.637	1	-1
471.830	1	4
473.023	1	-7
474.215	1	-1
475.408	1	6
476.601	1	-3
477.793	1	-7
478.986	1	10
480.179	1	0
481.371	1	10
482.564	1	-3
483.756	1	11
484.948	1	-7
486.141	1	-8
487.333	1	7
488.525	1	2
489.718	1	6
490.910	1	3
492.102	1	-5
493.294	1	2
494.486	1	4
495.678	1	-1
496.870	1	11
498.062	1	8
499.254	1	3
500.446	1	-9
501.638	1	11
502.829	1	-2
504.021	1	2
505.213	1	14
506.404	1	1
507.596	1	8
508.788	1	11
509.979	1	14
511.171	1	3
512.362	1	0
513.553	1	-1
514.745	1	-5
515.936	1	-5
517.127	1	4
518.319	1	5
519.510	1	11
520.701	1	1
521.892	1	13
523.083	1	-2
524.274	1	5
525.465	1	1
526.656	1	4
527.847	1	5
529.038	1	8
530.229	1	16
531.419	1	9
532.610	1	2
533.801	1	14
534.991	1	17
536.182	1	4
537.373	1	1
538.563	1	-2
539.754	1	13
540.944	1	-4
542.134	1	10
543.325	1	3
544.515	1	-2
545.705	1	8
546.896	1	5
548.086	1	0
549.276	1	8
550.466	1	3
551.656	1	8
552.846	1	15
554.036	1	2
555.226	1	2
556.416	1	9
557.606	1	0
558.796	1	1
559.986	1	-5
561.175	1	6
562.365	1	13
563.555	1	8
564.744	1	5
565.934	1	8
567.123	1	10
568.313	1	14
569.502	1	0
570.692	1	8
571.881	1	19
573.070	1	9
574.260	1	16
575.449	1	10
576.638	1	8
577.827	1	9
579.016	1	13
580.205	1	-1
581.394	1	4
582.583	1	13
583.772	1	14
584.961	1	13
586.150	1	7
587.339	1	5
588.528	1	8
589.717	1	11
590.905	1	3
592.094	1	3
593.283	1	10
594.471	1	9
595.660	1	9
596.848	1	10
598.037	1	11
599.225	1	-10
600.413	1	13
601.602	1	16
602.790	1	11
603.978	1	7
605.166	1	7
606.355	1	5
607.543	1	1
608.731	1	5
609.919	1	8
611.107	1	0
612.295	1	9
613.483	1	6
614.671	1	7
615.858	1	2
617.046	1	2
618.234	1	11
619.422	1	-11
620.609	1	4
621.797	1	0
622.985	1	7
624.172	1	5
625.360	1	-1
626.547	1	8
627.735	1	10
628.922	1	10
630.109	1	-6
631.297	1	2
632.484	1	-2
633.671	1	-3
634.858	1	-7
636.045	1	14
637.232	1	-13
638.419	1	-3
639.606	1	8
640.793	1	21
641.980	1	5
643.167	1	-1
644.354	1	11
645.541	1	0
646.728	1	1
647.914	1	-1
649.101	1	0
650.288	1	7
651.474	1	-2
652.661	1	10
653.847	1	11
655.034	1	-1
656.220	1	-4
657.406	1	2
658.593	1	8
659.779	1	12
660.965	1	13
662.152	1	10
663.338	1	13
664.524	1	1
665.710	1	0
666.896	1	3
668.082	1	4
669.268	1	-3
670.454	1	3
671.640	1	6
672.826	1	-3
674.011	1	-3
675.197	1	1
676.383	1	6
677.569	1	-10
678.754	1	4
679.940	1	3
681.125	1	4
682.311	1	5
683.496	1	-5
684.682	1	-1
685.867	1	1
687.053	1	2
688.238	1	6
688.746	1	-1

File: GaN_sample F_spot 12_UVVIS_200 K_200um_800 ms 2x2mm1_172.txt
340.368	1	12
341.565	1	-13
342.763	1	13
343.960	1	2
345.157	1	6
346.354	1	2
347.552	1	-6
348.749	1	-4
349.946	1	-6
351.143	1	0
352.340	1	8
353.537	1	0
354.734	1	3
355.931	1	6
357.127	1	2
358.324	1	7
359.521	1	15
360.718	1	6
361.914	1	14
363.111	1	8
364.308	1	16
365.504	1	26
366.701	1	30
367.897	1	37
369.093	1	49
370.290	1	34
371.486	1	33
372.682	1	45
373.879	1	28
375.075	1	25
376.271	1	28
377.467	1	24
378.663	1	9
379.859	1	11
381.055	1	20
382.251	1	6
383.447	1	4
384.643	1	21
385.839	1	6
387.035	1	4
388.230	1	18
389.426	1	4
390.622	1	-2
391.817	1	1
393.013	1	-3
394.208	1	6
395.404	1	7
396.599	1	0
397.795	1	0
398.990	1	0
400.186	1	-1
401.381	1	-11
402.576	1	-8
403.771	1	7
404.967	1	6
406.162	1	8
407.357	1	-8
408.552	1	1
409.747	1	3
410.942	1	10
412.137	1	-2
413.332	1	2
414.526	1	-7
415.721	1	-4
416.916	1	-5
418.111	1	-3
419.305	1	3
420.500	1	-2
421.695	1	1
422.889	1	-1
424.084	1	4
425.278	1	6
426.472	1	2
427.667	1	4
428.861	1	-1
430.055	1	9
431.250	1	7
432.444	1	12
433.638	1	-2
434.832	1	16
436.026	1	9
437.220	1	9
438.414	1	-12
439.608	1	-2
440.802	1	-2
441.996	1	4
443.190	1	1
444.384	1	-9
445.578	1	-2
446.771	1	19
447.965	1	-1
449.159	1	2
450.352	1	-2
451.546	1	-5
452.739	1	-2
453.933	1	-6
455.126	1	-7
456.320	1	-2
457.513	1	10
458.706	1	5
459.899	1	-1
461.093	1	2
462.286	1	-1
463.479	1	-6
464.672	1	6
465.865	1	8
467.058	1	-1
468.251	1	2
469.444	1	-9
470.637	1	-1
471.830	1	-2
473.023	1	7
474.215	1	16
475.408	1	2
476.601	1	3
477.793	1	0
478.986	1	0
480.179	1	6
481.371	1	-1
482.564	1	-4
483.756	1	4
484.948	1	-7
486.141	1	6
487.333	1	-5
488.525	1	4
489.718	1	0
490.910	1	5
492.102	1	3
493.294	1	2
494.486	1	6
495.678	1	6
496.870	1	6
498.062	1	-3
499.254	1	6
500.446	1	3
501.638	1	-6
502.829	1	2
504.021	1	-4
505.213	1	1
506.404	1	3
507.596	1	3
508.788	1	14
509.979	1	9
511.171	1	1
512.362	1	-4
513.553	1	-2
514.745	1	4
515.936	1	0
517.127	1	-1
518.319	1	0
519.510	1	-1
520.701	1	4
521.892	1	9
523.083	1	3
524.274	1	10
525.465	1	16
526.656	1	-1
527.847	1	7
529.038	1	8
530.229	1	-2
531.419	1	1
532.610	1	2
533.801	1	25
534.991	1	10
536.182	1	10
537.373	1	12
538.563	1	10
539.754	1	14
540.944	1	1
542.134	1	5
543.325	1	11
544.515	1	8
545.705	1	1
546.896	1	-1
548.086	1	9
549.276	1	-2
550.466	1	1
551.656	1	15
552.846	1	16
554.036	1	0
555.226	1	0
556.416	1	1
557.606	1	11
558.796	1	10
559.986	1	3
561.175	1	2
562.365	1	7
563.555	1	8
564.744	1	4
565.934	1	9
567.123	1	10
568.313	1	4
569.502	1	-3
570.692	1	12
571.881	1	15
573.070	1	4
574.260	1	19
575.449	1	8
576.638	1	-3
577.827	1	5
579.016	1	13
580.205	1	6
581.394	1	3
582.583	1	9
583.772	1	14
584.961	1	16
586.150	1	8
587.339	1	12
588.528	1	9
589.717	1	4
590.905	1	-1
592.094	1	8
593.283	1	2
594.471	1	16
595.660	1	3
596.848	1	9
598.037	1	9
599.225	1	-2
600.413	1	16
601.602	1	24
602.790	1	2
603.978	1	3
605.166	1	5
606.355	1	9
607.543	1	5
608.731	1	7
609.919	1	12
611.107	1	8
612.295	1	2
613.483	1	2
614.671	1	13
615.858	1	7
617.046	1	1
618.234	1	3
619.422	1	5
620.609	1	14
621.797	1	-6
622.985	1	8
624.172	1	1
625.360	1	9
626.547	1	-1
627.735	1	6
628.922	1	6
630.109	1	-12
631.297	1	3
632.484	1	2
633.671	1	-7
634.858	1	2
636.045	1	12
637.232	1	1
638.419	1	-2
639.606	1	2
640.793	1	11
641.980	1	7
643.167	1	5
644.354	1	9
645.541	1	-4
646.728	1	4
647.914	1	1
649.101	1	4
650.288	1	11
651.474	1	1
652.661	1	0
653.847	1	13
655.034	1	0
656.220	1	0
657.406	1	-1
658.593	1	14
659.779	1	5
660.965	1	13
662.152	1	0
663.338	1	6
664.524	1	0
665.710	1	3
666.896	1	-2
668.082	1	5
669.268	1	0
670.454	1	7
671.640	1	2
672.826	1	2
674.011	1	4
675.197	1	-5
676.383	1	-5
677.569	1	-1
678.754	1	-1
679.940	1	-3
681.125	1	4
682.311	1	5
683.496	1	5
684.682	1	-5
685.867	1	1
687.053	1	-7
688.238	1	6
688.746	1	3

File: GaN_sample F_spot 12_UVVIS_200 K_200um_800 ms 2x2mm1_174.txt
340.368	1	5
341.565	1	-8
342.763	1	4
343.960	1	5
345.157	1	0
346.354	1	6
347.552	1	-9
348.749	1	-5
349.946	1	-2
351.143	1	-1
352.340	1	2
353.537	1	6
354.734	1	6
355.931	1	5
357.127	1	-2
358.324	1	4
359.521	1	18
360.718	1	12
361.914	1	18
363.111	1	10
364.308	1	13
365.504	1	29
366.701	1	31
367.897	1	43
369.093	1	35
370.290	1	39
371.486	1	45
372.682	1	37
373.879	1	26
375.075	1	29
376.271	1	25
377.467	1	21
378.663	1	9
379.859	1	9
381.055	1	20
382.251	1	6
383.447	1	5
384.643	1	18
385.839	1	8
387.035	1	1
388.230	1	11
389.426	1	14
390.622	1	1
391.817	1	2
393.013	1	0
394.208	1	8
395.404	1	-2
396.599	1	8
397.795	1	4
398.990	1	11
400.186	1	1
401.381	1	8
402.576	1	-3
403.771	1	1
404.967	1	-2
406.162	1	10
407.357	1	3
408.552	1	-3
409.747	1	-3
410.942	1	5
412.137	1	3
413.332	1	-3
414.526	1	2
415.721	1	1
416.916	1	0
418.111	1	-4
419.305	1	2
420.500	1	7
421.695	1	-8
422.889	1	-8
424.084	1	2
425.278	1	13
426.472	1	-1
427.667	1	6
428.861	1	3
430.055	1	-9
431.250	1	-6
432.444	1	10
433.638	1	-7
434.832	1	11
436.026	1	3
437.220	1	6
438.414	1	-1
439.608	1	-7
440.802	1	-12
441.996	1	-1
443.190	1	-1
444.384	1	-7
445.578	1	-8
446.771	1	17
447.965	1	6
449.159	1	-12
450.352	1	2
451.546	1	0
452.739	1	10
453.933	1	1
455.126	1	-7
456.320	1	-3
457.513	1	2
458.706	1	-9
459.899	1	-2
461.093	1	4
462.286	1	4
463.479	1	5
464.672	1	8
465.865	1	-7
467.058	1	7
468.251	1	-5
469.444	1	-6
470.637	1	2
471.830	1	6
473.023	1	2
474.215	1	3
475.408	1	-1
476.601	1	-1
477.793	1	1
478.986	1	-5
480.179	1	11
481.371	1	8
482.564	1	3
483.756	1	4
484.948	1	-5
486.141	1	-1
487.333	1	8
488.525	1	2
489.718	1	-4
490.910	1	6
492.102	1	0
493.294	1	0
494.486	1	7
495.678	1	-5
496.870	1	2
498.062	1	1
499.254	1	1
500.446	1	0
501.638	1	-2
502.829	1	5
504.021	1	3
505.213	1	7
506.404	1	8
507.596	1	6
508.788	1	18
509.979	1	-2
511.171	1	-3
512.362	1	9
513.553	1	-11
514.745	1	-1
515.936	1	-5
517.127	1	2
518.319	1	1
519.510	1	3
520.701	1	6
521.892	1	3
523.083	1	-9
524.274	1	5
525.465	1	4
526.656	1	3
527.847	1	-2
529.038	1	4
530.229	1	10
531.419	1	5
532.610	1	5
533.801	1	21
534.991	1	10
536.182	1	9
537.373	1	10
538.563	1	8
539.754	1	15
540.944	1	-2
542.134	1	1
543.325	1	6
544.515	1	-6
545.705	1	7
546.896	1	-1
548.086	1	1
549.276	1	10
550.466	1	10
551.656	1	14
552.846	1	4
554.036	1	9
555.226	1	-1
556.416	1	1
557.606	1	16
558.796	1	-1
559.986	1	-4
561.175	1	7
562.365	1	6
563.555	1	-13
564.744	1	9
565.934	1	7
567.123	1	7
568.313	1	10
569.502	1	4
570.692	1	0
571.881	1	18
573.070	1	3
574.260	1	10
575.449	1	-1
576.638	1	-6
577.827	1	2
579.016	1	13
580.205	1	5
581.394	1	9
582.583	1	13
583.772	1	6
584.961	1	10
586.150	1	2
587.339	1	6
588.528	1	9
589.717	1	14
590.905	1	1
592.094	1	9
593.283	1	-2
594.471	1	5
595.660	1	1
596.848	1	5
598.037	1	3
599.225	1	1
600.413	1	13
601.602	1	20
602.790	1	6
603.978	1	5
605.166	1	5
606.355	1	8
607.543	1	11
608.731	1	7
609.919	1	18
611.107	1	1
612.295	1	-5
613.483	1	20
614.671	1	11
615.858	1	4
617.046	1	8
618.234	1	1
619.422	1	-6
620.609	1	2
621.797	1	2
622.985	1	4
624.172	1	-4
625.360	1	-1
626.547	1	4
627.735	1	8
628.922	1	6
630.109	1	-7
631.297	1	10
632.484	1	0
633.671	1	2
634.858	1	-3
636.045	1	13
637.232	1	-6
638.419	1	4
639.606	1	5
640.793	1	8
641.980	1	8
643.167	1	-9
644.354	1	-1
645.541	1	9
646.728	1	10
647.914	1	-8
649.101	1	-11
650.288	1	7
651.474	1	-6
652.661	1	3
653.847	1	7
655.034	1	-4
656.220	1	-4
657.406	1	3
658.593	1	11
659.779	1	6
660.965	1	13
662.152	1	13
663.338	1	11
664.524	1	4
665.710	1	-3
666.896	1	-12
668.082	1	3
669.268	1	7
670.454	1	4
671.640	1	-1
672.826	1	4
674.011	1	5
675.197	1	2
676.383	1	2
677.569	1	-13
678.754	1	2
679.940	1	2
681.125	1	3
682.311	1	15
683.496	1	8
684.682	1	-5
685.867	1	0
687.053	1	-1
688.238	1	4
688.746	1	1

File: GaN_sample F_spot 12_UVVIS_200 K_200um_800 ms 2x2mm1_175.txt
340.368	1	7
341.565	1	-1
342.763	1	-2
343.960	1	1
345.157	1	2
346.354	1	4
347.552	1	-7
348.749	1	-14
349.946	1	-8
351.143	1	-6
352.340	1	3
353.537	1	1
354.734	1	5
355.931	1	-1
357.127	1	2
358.324	1	9
359.521	1	13
360.718	1	8
361.914	1	8
363.111	1	11
364.308	1	7
365.504	1	19
366.701	1	31
367.897	1	40
369.093	1	43
370.290	1	40
371.486	1	36
372.682	1	38
373.879	1	28
375.075	1	32
376.271	1	34
377.467	1	13
378.663	1	4
379.859	1	17
381.055	1	21
382.251	1	0
383.447	1	-3
384.643	1	14
385.839	1	3
387.035	1	1
388.230	1	12
389.426	1	10
390.622	1	5
391.817	1	9
393.013	1	-1
394.208	1	-3
395.404	1	1
396.599	1	3
397.795	1	3
398.990	1	2
400.186	1	-7
401.381	1	-5
402.576	1	-4
403.771	1	4
404.967	1	-6
406.162	1	-1
407.357	1	1
408.552	1	-1
409.747	1	1
410.942	1	5
412.137	1	12
413.332	1	10
414.526	1	3
415.721	1	-1
416.916	1	-7
418.111	1	-3
419.305	1	7
420.500	1	-8
421.695	1	-3
422.889	1	-9
424.084	1	1
425.278	1	4
426.472	1	4
427.667	1	6
428.861	1	-5
430.055	1	4
431.250	1	3
432.444	1	4
433.638	1	-5
434.832	1	2
436.026	1	1
437.220	1	12
438.414	1	-7
439.608	1	-10
440.802	1	-6
441.996	1	5
443.190	1	-2
444.384	1	-7
445.578	1	-3
446.771	1	11
447.965	1	-10
449.159	1	-8
450.352	1	0
451.546	1	7
452.739	1	7
453.933	1	2
455.126	1	-2
456.320	1	-5
457.513	1	7
458.706	1	3
459.899	1	2
461.093	1	7
462.286	1	-1
463.479	1	-3
464.672	1	-1
465.865	1	1
467.058	1	3
468.251	1	-5
469.444	1	-11
470.637	1	7
471.830	1	1
473.023	1	-2
474.215	1	7
475.408	1	4
476.601	1	1
477.793	1	-1
478.986	1	0
480.179	1	3
481.371	1	6
482.564	1	5
483.756	1	4
484.948	1	-3
486.141	1	-7
487.333	1	-6
488.525	1	1
489.718	1	1
490.910	1	4
492.102	1	-8
493.294	1	-4
494.486	1	1
495.678	1	1
496.870	1	0
498.062	1	-3
499.254	1	1
500.446	1	-5
501.638	1	1
502.829	1	-3
504.021	1	7
505.213	1	2
506.404	1	8
507.596	1	4
508.788	1	13
509.979	1	-2
511.171	1	2
512.362	1	-6
513.553	1	-5
514.745	1	-6
515.936	1	2
517.127	1	2
518.319	1	7
519.510	1	8
520.701	1	1
521.892	1	1
523.083	1	-5
524.274	1	9
525.465	1	8
526.656	1	-5
527.847	1	7
529.038	1	1
530.229	1	-1
531.419	1	12
532.610	1	-8
533.801	1	18
534.991	1	3
536.182	1	10
537.373	1	-2
538.563	1	14
539.754	1	12
540.944	1	0
542.134	1	8
543.325	1	-6
544.515	1	-2
545.705	1	11
546.896	1	3
548.086	1	-1
549.276	1	6
550.466	1	5
551.656	1	-1
552.846	1	4
554.036	1	-2
555.226	1	0
556.416	1	-1
557.606	1	-3
558.796	1	11
559.986	1	0
561.175	1	0
562.365	1	4
563.555	1	6
564.744	1	8
565.934	1	8
567.123	1	-2
568.313	1	9
569.502	1	4
570.692	1	14
571.881	1	16
573.070	1	11
574.260	1	21
575.449	1	3
576.638	1	1
577.827	1	4
579.016	1	14
580.205	1	0
581.394	1	0
582.583	1	21
583.772	1	9
584.961	1	1
586.150	1	5
587.339	1	13
588.528	1	-3
589.717	1	2
590.905	1	0
592.094	1	0
593.283	1	8
594.471	1	10
595.660	1	7
596.848	1	-1
598.037	1	-2
599.225	1	-12
600.413	1	12
601.602	1	10
602.790	1	-3
603.978	1	-3
605.166	1	2
606.355	1	11
607.543	1	1
608.731	1	4
609.919	1	7
611.107	1	-2
612.295	1	4
613.483	1	6
614.671	1	2
615.858	1	11
617.046	1	-1
618.234	1	-12
619.422	1	-2
620.609	1	-2
621.797	1	0
622.985	1	-4
624.172	1	4
625.360	1	-1
626.547	1	0
627.735	1	9
628.922	1	10
630.109	1	-6
631.297	1	1
632.484	1	-6
633.671	1	-3
634.858	1	6
636.045	1	4
637.232	1	0
638.419	1	-6
639.606	1	14
640.793	1	8
641.980	1	9
643.167	1	-2
644.354	1	1
645.541	1	-3
646.728	1	9
647.914	1	-2
649.101	1	-1
650.288	1	5
651.474	1	-1
652.661	1	2
653.847	1	12
655.034	1	5
656.220	1	-1
657.406	1	5
658.593	1	12
659.779	1	3
660.965	1	15
662.152	1	2
663.338	1	10
664.524	1	-1
665.710	1	0
666.896	1	-1
668.082	1	2
669.268	1	0
670.454	1	10
671.640	1	13
672.826	1	4
674.011	1	-5
675.197	1	-1
676.383	1	8
677.569	1	-10
678.754	1	4
679.940	1	-6
681.125	1	-2
682.311	1	3
683.496	1	7
684.682	1	-3
685.867	1	2
687.053	1	5
688.238	1	5
688.746	1	7