Folder: cryo-il_analysis/Data/GaN_200K_800ms (part 19)

File: GaN_sample F_spot 12_UVVIS_200 K_200um_800 ms 2x2mm1_152.txt
340.368	1	4
341.565	1	-9
342.763	1	7
343.960	1	7
345.157	1	1
346.354	1	2
347.552	1	-5
348.749	1	-3
349.946	1	-1
351.143	1	0
352.340	1	15
353.537	1	-2
354.734	1	13
355.931	1	11
357.127	1	7
358.324	1	2
359.521	1	13
360.718	1	12
361.914	1	12
363.111	1	24
364.308	1	12
365.504	1	34
366.701	1	39
367.897	1	53
369.093	1	48
370.290	1	54
371.486	1	55
372.682	1	47
373.879	1	26
375.075	1	31
376.271	1	29
377.467	1	12
378.663	1	18
379.859	1	9
381.055	1	25
382.251	1	5
383.447	1	11
384.643	1	17
385.839	1	5
387.035	1	13
388.230	1	21
389.426	1	6
390.622	1	-5
391.817	1	-1
393.013	1	0
394.208	1	4
395.404	1	3
396.599	1	7
397.795	1	3
398.990	1	-1
400.186	1	4
401.381	1	3
402.576	1	4
403.771	1	15
404.967	1	0
406.162	1	11
407.357	1	1
408.552	1	5
409.747	1	1
410.942	1	12
412.137	1	3
413.332	1	-2
414.526	1	6
415.721	1	3
416.916	1	-5
418.111	1	2
419.305	1	3
420.500	1	-1
421.695	1	-6
422.889	1	-8
424.084	1	-1
425.278	1	3
426.472	1	-2
427.667	1	-1
428.861	1	0
430.055	1	5
431.250	1	-3
432.444	1	13
433.638	1	-3
434.832	1	8
436.026	1	15
437.220	1	13
438.414	1	-7
439.608	1	-1
440.802	1	-12
441.996	1	6
443.190	1	1
444.384	1	-15
445.578	1	-11
446.771	1	7
447.965	1	2
449.159	1	-2
450.352	1	0
451.546	1	-3
452.739	1	2
453.933	1	-1
455.126	1	-9
456.320	1	6
457.513	1	9
458.706	1	-1
459.899	1	-2
461.093	1	2
462.286	1	0
463.479	1	-4
464.672	1	6
465.865	1	1
467.058	1	2
468.251	1	-3
469.444	1	-8
470.637	1	9
471.830	1	1
473.023	1	4
474.215	1	8
475.408	1	10
476.601	1	6
477.793	1	5
478.986	1	-3
480.179	1	3
481.371	1	8
482.564	1	6
483.756	1	9
484.948	1	-4
486.141	1	1
487.333	1	2
488.525	1	-5
489.718	1	-5
490.910	1	2
492.102	1	3
493.294	1	2
494.486	1	3
495.678	1	8
496.870	1	12
498.062	1	4
499.254	1	2
500.446	1	-3
501.638	1	-1
502.829	1	0
504.021	1	1
505.213	1	7
506.404	1	10
507.596	1	0
508.788	1	10
509.979	1	2
511.171	1	0
512.362	1	4
513.553	1	-2
514.745	1	-2
515.936	1	7
517.127	1	2
518.319	1	-2
519.510	1	11
520.701	1	6
521.892	1	7
523.083	1	2
524.274	1	7
525.465	1	9
526.656	1	8
527.847	1	6
529.038	1	7
530.229	1	6
531.419	1	6
532.610	1	2
533.801	1	10
534.991	1	10
536.182	1	1
537.373	1	10
538.563	1	13
539.754	1	8
540.944	1	1
542.134	1	13
543.325	1	10
544.515	1	2
545.705	1	8
546.896	1	-1
548.086	1	9
549.276	1	13
550.466	1	15
551.656	1	7
552.846	1	12
554.036	1	5
555.226	1	3
556.416	1	2
557.606	1	4
558.796	1	6
559.986	1	-6
561.175	1	7
562.365	1	8
563.555	1	1
564.744	1	14
565.934	1	18
567.123	1	0
568.313	1	7
569.502	1	2
570.692	1	9
571.881	1	20
573.070	1	8
574.260	1	18
575.449	1	11
576.638	1	0
577.827	1	-3
579.016	1	15
580.205	1	7
581.394	1	-5
582.583	1	13
583.772	1	12
584.961	1	11
586.150	1	5
587.339	1	-2
588.528	1	9
589.717	1	8
590.905	1	4
592.094	1	9
593.283	1	1
594.471	1	10
595.660	1	9
596.848	1	6
598.037	1	4
599.225	1	-3
600.413	1	11
601.602	1	15
602.790	1	5
603.978	1	0
605.166	1	9
606.355	1	1
607.543	1	-2
608.731	1	4
609.919	1	11
611.107	1	3
612.295	1	-1
613.483	1	13
614.671	1	9
615.858	1	9
617.046	1	3
618.234	1	9
619.422	1	-4
620.609	1	13
621.797	1	7
622.985	1	8
624.172	1	-8
625.360	1	3
626.547	1	-5
627.735	1	8
628.922	1	-3
630.109	1	-9
631.297	1	-1
632.484	1	-3
633.671	1	-5
634.858	1	-5
636.045	1	16
637.232	1	-1
638.419	1	-1
639.606	1	12
640.793	1	5
641.980	1	14
643.167	1	8
644.354	1	0
645.541	1	2
646.728	1	0
647.914	1	-2
649.101	1	-1
650.288	1	15
651.474	1	-1
652.661	1	1
653.847	1	6
655.034	1	3
656.220	1	0
657.406	1	7
658.593	1	-1
659.779	1	7
660.965	1	10
662.152	1	4
663.338	1	15
664.524	1	3
665.710	1	-1
666.896	1	5
668.082	1	-3
669.268	1	6
670.454	1	0
671.640	1	10
672.826	1	3
674.011	1	4
675.197	1	-1
676.383	1	2
677.569	1	6
678.754	1	-1
679.940	1	2
681.125	1	1
682.311	1	9
683.496	1	0
684.682	1	-2
685.867	1	5
687.053	1	3
688.238	1	5
688.746	1	-5

File: GaN_sample F_spot 12_UVVIS_200 K_200um_800 ms 2x2mm1_154.txt
340.368	1	7
341.565	1	-9
342.763	1	5
343.960	1	12
345.157	1	-3
346.354	1	8
347.552	1	2
348.749	1	-4
349.946	1	-1
351.143	1	5
352.340	1	7
353.537	1	4
354.734	1	17
355.931	1	8
357.127	1	8
358.324	1	3
359.521	1	5
360.718	1	9
361.914	1	15
363.111	1	12
364.308	1	21
365.504	1	38
366.701	1	40
367.897	1	39
369.093	1	50
370.290	1	43
371.486	1	52
372.682	1	36
373.879	1	29
375.075	1	36
376.271	1	33
377.467	1	29
378.663	1	21
379.859	1	12
381.055	1	25
382.251	1	6
383.447	1	10
384.643	1	7
385.839	1	5
387.035	1	18
388.230	1	12
389.426	1	11
390.622	1	6
391.817	1	4
393.013	1	0
394.208	1	-2
395.404	1	-5
396.599	1	-5
397.795	1	5
398.990	1	5
400.186	1	2
401.381	1	3
402.576	1	3
403.771	1	4
404.967	1	4
406.162	1	9
407.357	1	-9
408.552	1	3
409.747	1	0
410.942	1	11
412.137	1	2
413.332	1	5
414.526	1	-2
415.721	1	-1
416.916	1	7
418.111	1	2
419.305	1	5
420.500	1	6
421.695	1	-6
422.889	1	-8
424.084	1	6
425.278	1	12
426.472	1	-2
427.667	1	15
428.861	1	-5
430.055	1	4
431.250	1	2
432.444	1	7
433.638	1	-5
434.832	1	8
436.026	1	7
437.220	1	9
438.414	1	-13
439.608	1	-6
440.802	1	-3
441.996	1	8
443.190	1	0
444.384	1	-5
445.578	1	-8
446.771	1	12
447.965	1	-3
449.159	1	-1
450.352	1	4
451.546	1	2
452.739	1	11
453.933	1	5
455.126	1	1
456.320	1	1
457.513	1	8
458.706	1	-2
459.899	1	2
461.093	1	2
462.286	1	11
463.479	1	8
464.672	1	5
465.865	1	3
467.058	1	-3
468.251	1	3
469.444	1	-3
470.637	1	5
471.830	1	6
473.023	1	-3
474.215	1	5
475.408	1	3
476.601	1	6
477.793	1	1
478.986	1	3
480.179	1	2
481.371	1	8
482.564	1	-3
483.756	1	17
484.948	1	6
486.141	1	-6
487.333	1	4
488.525	1	4
489.718	1	-1
490.910	1	-2
492.102	1	1
493.294	1	-4
494.486	1	4
495.678	1	-2
496.870	1	10
498.062	1	8
499.254	1	-2
500.446	1	-5
501.638	1	5
502.829	1	-1
504.021	1	4
505.213	1	8
506.404	1	7
507.596	1	3
508.788	1	14
509.979	1	11
511.171	1	-4
512.362	1	5
513.553	1	-4
514.745	1	-2
515.936	1	-3
517.127	1	-1
518.319	1	-3
519.510	1	1
520.701	1	3
521.892	1	-5
523.083	1	5
524.274	1	6
525.465	1	20
526.656	1	-2
527.847	1	9
529.038	1	5
530.229	1	-1
531.419	1	6
532.610	1	-5
533.801	1	16
534.991	1	-1
536.182	1	2
537.373	1	11
538.563	1	7
539.754	1	10
540.944	1	-2
542.134	1	6
543.325	1	2
544.515	1	1
545.705	1	3
546.896	1	0
548.086	1	4
549.276	1	4
550.466	1	14
551.656	1	6
552.846	1	7
554.036	1	1
555.226	1	-7
556.416	1	4
557.606	1	3
558.796	1	5
559.986	1	-3
561.175	1	5
562.365	1	1
563.555	1	-3
564.744	1	3
565.934	1	2
567.123	1	11
568.313	1	8
569.502	1	-3
570.692	1	16
571.881	1	18
573.070	1	9
574.260	1	16
575.449	1	-4
576.638	1	4
577.827	1	6
579.016	1	6
580.205	1	10
581.394	1	8
582.583	1	16
583.772	1	5
584.961	1	6
586.150	1	1
587.339	1	9
588.528	1	0
589.717	1	8
590.905	1	9
592.094	1	-1
593.283	1	5
594.471	1	18
595.660	1	4
596.848	1	0
598.037	1	2
599.225	1	-3
600.413	1	7
601.602	1	11
602.790	1	3
603.978	1	7
605.166	1	7
606.355	1	15
607.543	1	10
608.731	1	5
609.919	1	12
611.107	1	3
612.295	1	-8
613.483	1	2
614.671	1	9
615.858	1	0
617.046	1	8
618.234	1	-3
619.422	1	-5
620.609	1	10
621.797	1	-2
622.985	1	7
624.172	1	-2
625.360	1	5
626.547	1	1
627.735	1	6
628.922	1	3
630.109	1	-6
631.297	1	6
632.484	1	-1
633.671	1	-1
634.858	1	-4
636.045	1	15
637.232	1	-8
638.419	1	1
639.606	1	1
640.793	1	23
641.980	1	9
643.167	1	-1
644.354	1	-2
645.541	1	5
646.728	1	5
647.914	1	2
649.101	1	4
650.288	1	12
651.474	1	2
652.661	1	-1
653.847	1	11
655.034	1	4
656.220	1	-3
657.406	1	5
658.593	1	16
659.779	1	-3
660.965	1	13
662.152	1	2
663.338	1	15
664.524	1	-1
665.710	1	2
666.896	1	0
668.082	1	7
669.268	1	-4
670.454	1	13
671.640	1	-4
672.826	1	-5
674.011	1	0
675.197	1	0
676.383	1	4
677.569	1	-2
678.754	1	1
679.940	1	-4
681.125	1	-8
682.311	1	6
683.496	1	-2
684.682	1	-2
685.867	1	2
687.053	1	3
688.238	1	13
688.746	1	6

File: GaN_sample F_spot 12_UVVIS_200 K_200um_800 ms 2x2mm1_155.txt
340.368	1	-2
341.565	1	-8
342.763	1	14
343.960	1	5
345.157	1	6
346.354	1	-3
347.552	1	4
348.749	1	-1
349.946	1	1
351.143	1	-1
352.340	1	12
353.537	1	3
354.734	1	5
355.931	1	0
357.127	1	0
358.324	1	1
359.521	1	17
360.718	1	10
361.914	1	9
363.111	1	19
364.308	1	22
365.504	1	29
366.701	1	30
367.897	1	53
369.093	1	44
370.290	1	48
371.486	1	49
372.682	1	52
373.879	1	34
375.075	1	25
376.271	1	36
377.467	1	21
378.663	1	15
379.859	1	26
381.055	1	19
382.251	1	3
383.447	1	12
384.643	1	16
385.839	1	11
387.035	1	11
388.230	1	10
389.426	1	0
390.622	1	-2
391.817	1	4
393.013	1	5
394.208	1	7
395.404	1	-1
396.599	1	-1
397.795	1	9
398.990	1	2
400.186	1	5
401.381	1	-4
402.576	1	2
403.771	1	2
404.967	1	1
406.162	1	10
407.357	1	3
408.552	1	3
409.747	1	3
410.942	1	2
412.137	1	12
413.332	1	-1
414.526	1	0
415.721	1	2
416.916	1	3
418.111	1	-3
419.305	1	12
420.500	1	-2
421.695	1	-11
422.889	1	-5
424.084	1	-1
425.278	1	8
426.472	1	-5
427.667	1	4
428.861	1	3
430.055	1	1
431.250	1	4
432.444	1	1
433.638	1	-4
434.832	1	-1
436.026	1	13
437.220	1	7
438.414	1	-2
439.608	1	-2
440.802	1	-6
441.996	1	-1
443.190	1	5
444.384	1	-8
445.578	1	-12
446.771	1	7
447.965	1	0
449.159	1	-9
450.352	1	4
451.546	1	2
452.739	1	5
453.933	1	7
455.126	1	-2
456.320	1	-6
457.513	1	2
458.706	1	11
459.899	1	1
461.093	1	5
462.286	1	13
463.479	1	1
464.672	1	-1
465.865	1	-2
467.058	1	-2
468.251	1	1
469.444	1	-13
470.637	1	5
471.830	1	-2
473.023	1	6
474.215	1	9
475.408	1	5
476.601	1	3
477.793	1	-9
478.986	1	-6
480.179	1	-5
481.371	1	6
482.564	1	7
483.756	1	10
484.948	1	-3
486.141	1	-10
487.333	1	-1
488.525	1	0
489.718	1	-3
490.910	1	0
492.102	1	-3
493.294	1	-4
494.486	1	12
495.678	1	13
496.870	1	9
498.062	1	11
499.254	1	8
500.446	1	-8
501.638	1	2
502.829	1	11
504.021	1	0
505.213	1	13
506.404	1	6
507.596	1	2
508.788	1	9
509.979	1	-2
511.171	1	-2
512.362	1	-6
513.553	1	-10
514.745	1	-6
515.936	1	6
517.127	1	-5
518.319	1	6
519.510	1	4
520.701	1	0
521.892	1	9
523.083	1	-1
524.274	1	5
525.465	1	-1
526.656	1	4
527.847	1	7
529.038	1	0
530.229	1	4
531.419	1	10
532.610	1	-1
533.801	1	16
534.991	1	-9
536.182	1	12
537.373	1	8
538.563	1	4
539.754	1	5
540.944	1	9
542.134	1	10
543.325	1	0
544.515	1	-8
545.705	1	9
546.896	1	5
548.086	1	2
549.276	1	1
550.466	1	4
551.656	1	14
552.846	1	5
554.036	1	0
555.226	1	-3
556.416	1	-2
557.606	1	3
558.796	1	6
559.986	1	0
561.175	1	8
562.365	1	4
563.555	1	-4
564.744	1	9
565.934	1	6
567.123	1	10
568.313	1	13
569.502	1	2
570.692	1	18
571.881	1	16
573.070	1	-3
574.260	1	19
575.449	1	-1
576.638	1	-5
577.827	1	0
579.016	1	12
580.205	1	0
581.394	1	0
582.583	1	14
583.772	1	8
584.961	1	5
586.150	1	6
587.339	1	4
588.528	1	3
589.717	1	3
590.905	1	-5
592.094	1	-4
593.283	1	9
594.471	1	11
595.660	1	-2
596.848	1	6
598.037	1	-1
599.225	1	-4
600.413	1	11
601.602	1	14
602.790	1	4
603.978	1	-2
605.166	1	9
606.355	1	9
607.543	1	8
608.731	1	7
609.919	1	13
611.107	1	3
612.295	1	-3
613.483	1	12
614.671	1	0
615.858	1	14
617.046	1	6
618.234	1	4
619.422	1	-2
620.609	1	4
621.797	1	0
622.985	1	8
624.172	1	-6
625.360	1	5
626.547	1	5
627.735	1	3
628.922	1	7
630.109	1	-5
631.297	1	6
632.484	1	0
633.671	1	0
634.858	1	2
636.045	1	6
637.232	1	2
638.419	1	5
639.606	1	9
640.793	1	13
641.980	1	13
643.167	1	-4
644.354	1	6
645.541	1	7
646.728	1	2
647.914	1	2
649.101	1	3
650.288	1	-4
651.474	1	-8
652.661	1	5
653.847	1	8
655.034	1	7
656.220	1	-10
657.406	1	5
658.593	1	-1
659.779	1	4
660.965	1	9
662.152	1	6
663.338	1	9
664.524	1	2
665.710	1	7
666.896	1	6
668.082	1	-1
669.268	1	-2
670.454	1	12
671.640	1	-1
672.826	1	-9
674.011	1	1
675.197	1	-3
676.383	1	3
677.569	1	0
678.754	1	-4
679.940	1	1
681.125	1	5
682.311	1	3
683.496	1	14
684.682	1	-4
685.867	1	0
687.053	1	7
688.238	1	6
688.746	1	4

File: GaN_sample F_spot 12_UVVIS_200 K_200um_800 ms 2x2mm1_156.txt
340.368	1	8
341.565	1	-7
342.763	1	2
343.960	1	2
345.157	1	3
346.354	1	2
347.552	1	-1
348.749	1	6
349.946	1	-2
351.143	1	2
352.340	1	4
353.537	1	12
354.734	1	12
355.931	1	8
357.127	1	13
358.324	1	9
359.521	1	14
360.718	1	16
361.914	1	23
363.111	1	12
364.308	1	23
365.504	1	29
366.701	1	36
367.897	1	46
369.093	1	50
370.290	1	50
371.486	1	55
372.682	1	41
373.879	1	39
375.075	1	34
376.271	1	33
377.467	1	24
378.663	1	15
379.859	1	19
381.055	1	27
382.251	1	5
383.447	1	14
384.643	1	8
385.839	1	8
387.035	1	4
388.230	1	12
389.426	1	5
390.622	1	4
391.817	1	5
393.013	1	7
394.208	1	-2
395.404	1	-1
396.599	1	0
397.795	1	2
398.990	1	-4
400.186	1	-1
401.381	1	-2
402.576	1	-1
403.771	1	1
404.967	1	4
406.162	1	11
407.357	1	-1
408.552	1	1
409.747	1	1
410.942	1	4
412.137	1	16
413.332	1	10
414.526	1	0
415.721	1	2
416.916	1	-8
418.111	1	1
419.305	1	-3
420.500	1	4
421.695	1	-3
422.889	1	-9
424.084	1	-2
425.278	1	7
426.472	1	2
427.667	1	0
428.861	1	-1
430.055	1	-1
431.250	1	5
432.444	1	2
433.638	1	0
434.832	1	8
436.026	1	5
437.220	1	11
438.414	1	0
439.608	1	-13
440.802	1	-10
441.996	1	6
443.190	1	0
444.384	1	-2
445.578	1	-4
446.771	1	16
447.965	1	1
449.159	1	-2
450.352	1	4
451.546	1	11
452.739	1	0
453.933	1	-13
455.126	1	2
456.320	1	2
457.513	1	6
458.706	1	3
459.899	1	7
461.093	1	3
462.286	1	2
463.479	1	-6
464.672	1	0
465.865	1	-2
467.058	1	-3
468.251	1	1
469.444	1	-8
470.637	1	5
471.830	1	0
473.023	1	3
474.215	1	11
475.408	1	11
476.601	1	-2
477.793	1	5
478.986	1	-3
480.179	1	1
481.371	1	-1
482.564	1	7
483.756	1	11
484.948	1	-3
486.141	1	-6
487.333	1	4
488.525	1	-5
489.718	1	-3
490.910	1	-2
492.102	1	-8
493.294	1	-6
494.486	1	9
495.678	1	2
496.870	1	9
498.062	1	-5
499.254	1	-1
500.446	1	-7
501.638	1	-5
502.829	1	1
504.021	1	5
505.213	1	3
506.404	1	3
507.596	1	11
508.788	1	22
509.979	1	5
511.171	1	1
512.362	1	-4
513.553	1	-2
514.745	1	6
515.936	1	-2
517.127	1	0
518.319	1	-2
519.510	1	2
520.701	1	-2
521.892	1	0
523.083	1	-13
524.274	1	3
525.465	1	7
526.656	1	-8
527.847	1	3
529.038	1	5
530.229	1	-3
531.419	1	9
532.610	1	3
533.801	1	25
534.991	1	6
536.182	1	-2
537.373	1	-4
538.563	1	10
539.754	1	21
540.944	1	5
542.134	1	10
543.325	1	5
544.515	1	7
545.705	1	0
546.896	1	-2
548.086	1	10
549.276	1	5
550.466	1	10
551.656	1	13
552.846	1	2
554.036	1	0
555.226	1	-8
556.416	1	7
557.606	1	10
558.796	1	4
559.986	1	9
561.175	1	6
562.365	1	13
563.555	1	-5
564.744	1	8
565.934	1	9
567.123	1	11
568.313	1	4
569.502	1	1
570.692	1	10
571.881	1	15
573.070	1	3
574.260	1	6
575.449	1	2
576.638	1	-1
577.827	1	-4
579.016	1	22
580.205	1	4
581.394	1	6
582.583	1	14
583.772	1	4
584.961	1	5
586.150	1	5
587.339	1	7
588.528	1	3
589.717	1	10
590.905	1	6
592.094	1	3
593.283	1	-4
594.471	1	8
595.660	1	4
596.848	1	2
598.037	1	-6
599.225	1	-13
600.413	1	9
601.602	1	13
602.790	1	7
603.978	1	3
605.166	1	-3
606.355	1	10
607.543	1	-10
608.731	1	8
609.919	1	9
611.107	1	-2
612.295	1	0
613.483	1	-2
614.671	1	9
615.858	1	4
617.046	1	-1
618.234	1	2
619.422	1	-3
620.609	1	6
621.797	1	-5
622.985	1	6
624.172	1	-1
625.360	1	-3
626.547	1	8
627.735	1	5
628.922	1	6
630.109	1	-3
631.297	1	0
632.484	1	4
633.671	1	0
634.858	1	-1
636.045	1	6
637.232	1	-6
638.419	1	0
639.606	1	2
640.793	1	10
641.980	1	10
643.167	1	-1
644.354	1	1
645.541	1	-2
646.728	1	4
647.914	1	2
649.101	1	1
650.288	1	8
651.474	1	-1
652.661	1	7
653.847	1	9
655.034	1	5
656.220	1	-5
657.406	1	9
658.593	1	-1
659.779	1	4
660.965	1	9
662.152	1	0
663.338	1	10
664.524	1	0
665.710	1	-1
666.896	1	7
668.082	1	0
669.268	1	2
670.454	1	7
671.640	1	0
672.826	1	5
674.011	1	5
675.197	1	-6
676.383	1	2
677.569	1	2
678.754	1	-3
679.940	1	1
681.125	1	-1
682.311	1	3
683.496	1	7
684.682	1	-2
685.867	1	1
687.053	1	5
688.238	1	4
688.746	1	3

File: GaN_sample F_spot 12_UVVIS_200 K_200um_800 ms 2x2mm1_157.txt
340.368	1	4
341.565	1	-7
342.763	1	8
343.960	1	3
345.157	1	-8
346.354	1	-2
347.552	1	-5
348.749	1	2
349.946	1	-3
351.143	1	-2
352.340	1	6
353.537	1	-3
354.734	1	4
355.931	1	12
357.127	1	11
358.324	1	-1
359.521	1	14
360.718	1	13
361.914	1	15
363.111	1	16
364.308	1	13
365.504	1	32
366.701	1	30
367.897	1	40
369.093	1	41
370.290	1	40
371.486	1	49
372.682	1	44
373.879	1	26
375.075	1	29
376.271	1	35
377.467	1	20
378.663	1	23
379.859	1	14
381.055	1	15
382.251	1	3
383.447	1	3
384.643	1	18
385.839	1	0
387.035	1	10
388.230	1	13
389.426	1	10
390.622	1	7
391.817	1	1
393.013	1	-1
394.208	1	12
395.404	1	11
396.599	1	8
397.795	1	-2
398.990	1	6
400.186	1	0
401.381	1	-2
402.576	1	8
403.771	1	0
404.967	1	-1
406.162	1	3
407.357	1	5
408.552	1	-1
409.747	1	-2
410.942	1	13
412.137	1	4
413.332	1	1
414.526	1	0
415.721	1	3
416.916	1	-2
418.111	1	6
419.305	1	-5
420.500	1	-11
421.695	1	1
422.889	1	-2
424.084	1	-2
425.278	1	11
426.472	1	7
427.667	1	15
428.861	1	-4
430.055	1	4
431.250	1	7
432.444	1	3
433.638	1	1
434.832	1	7
436.026	1	14
437.220	1	3
438.414	1	-3
439.608	1	-9
440.802	1	-2
441.996	1	9
443.190	1	6
444.384	1	-5
445.578	1	1
446.771	1	10
447.965	1	3
449.159	1	-11
450.352	1	-4
451.546	1	-3
452.739	1	0
453.933	1	4
455.126	1	-2
456.320	1	0
457.513	1	8
458.706	1	-5
459.899	1	4
461.093	1	-8
462.286	1	-1
463.479	1	-2
464.672	1	-1
465.865	1	-6
467.058	1	3
468.251	1	3
469.444	1	-6
470.637	1	0
471.830	1	0
473.023	1	-5
474.215	1	8
475.408	1	0
476.601	1	0
477.793	1	0
478.986	1	-4
480.179	1	0
481.371	1	7
482.564	1	4
483.756	1	15
484.948	1	-6
486.141	1	-3
487.333	1	7
488.525	1	-1
489.718	1	6
490.910	1	0
492.102	1	4
493.294	1	-4
494.486	1	9
495.678	1	11
496.870	1	9
498.062	1	6
499.254	1	1
500.446	1	-11
501.638	1	5
502.829	1	-2
504.021	1	-4
505.213	1	9
506.404	1	2
507.596	1	7
508.788	1	23
509.979	1	2
511.171	1	-3
512.362	1	-7
513.553	1	-8
514.745	1	0
515.936	1	9
517.127	1	4
518.319	1	3
519.510	1	-3
520.701	1	13
521.892	1	10
523.083	1	2
524.274	1	3
525.465	1	6
526.656	1	2
527.847	1	7
529.038	1	1
530.229	1	6
531.419	1	9
532.610	1	-4
533.801	1	14
534.991	1	5
536.182	1	-4
537.373	1	3
538.563	1	17
539.754	1	10
540.944	1	0
542.134	1	9
543.325	1	2
544.515	1	1
545.705	1	0
546.896	1	12
548.086	1	2
549.276	1	10
550.466	1	7
551.656	1	3
552.846	1	15
554.036	1	3
555.226	1	-4
556.416	1	5
557.606	1	5
558.796	1	2
559.986	1	0
561.175	1	6
562.365	1	18
563.555	1	2
564.744	1	0
565.934	1	10
567.123	1	9
568.313	1	8
569.502	1	-2
570.692	1	8
571.881	1	10
573.070	1	11
574.260	1	14
575.449	1	1
576.638	1	3
577.827	1	-6
579.016	1	5
580.205	1	0
581.394	1	9
582.583	1	7
583.772	1	4
584.961	1	14
586.150	1	-3
587.339	1	10
588.528	1	13
589.717	1	5
590.905	1	9
592.094	1	5
593.283	1	6
594.471	1	12
595.660	1	6
596.848	1	-3
598.037	1	4
599.225	1	-1
600.413	1	14
601.602	1	9
602.790	1	11
603.978	1	-3
605.166	1	2
606.355	1	5
607.543	1	14
608.731	1	6
609.919	1	8
611.107	1	-4
612.295	1	1
613.483	1	11
614.671	1	5
615.858	1	-1
617.046	1	8
618.234	1	5
619.422	1	-7
620.609	1	5
621.797	1	-2
622.985	1	1
624.172	1	4
625.360	1	5
626.547	1	4
627.735	1	-2
628.922	1	7
630.109	1	-1
631.297	1	11
632.484	1	-5
633.671	1	5
634.858	1	3
636.045	1	15
637.232	1	-10
638.419	1	1
639.606	1	15
640.793	1	11
641.980	1	14
643.167	1	-6
644.354	1	-3
645.541	1	8
646.728	1	-2
647.914	1	1
649.101	1	7
650.288	1	0
651.474	1	4
652.661	1	0
653.847	1	3
655.034	1	-5
656.220	1	0
657.406	1	7
658.593	1	4
659.779	1	5
660.965	1	3
662.152	1	-2
663.338	1	12
664.524	1	0
665.710	1	5
666.896	1	-7
668.082	1	-1
669.268	1	3
670.454	1	3
671.640	1	5
672.826	1	-6
674.011	1	6
675.197	1	-8
676.383	1	1
677.569	1	-2
678.754	1	4
679.940	1	-5
681.125	1	10
682.311	1	8
683.496	1	1
684.682	1	-3
685.867	1	-1
687.053	1	1
688.238	1	4
688.746	1	2

File: GaN_sample F_spot 12_UVVIS_200 K_200um_800 ms 2x2mm1_165.txt
340.368	1	3
341.565	1	-13
342.763	1	1
343.960	1	-6
345.157	1	-6
346.354	1	0
347.552	1	-6
348.749	1	-7
349.946	1	-5
351.143	1	-10
352.340	1	8
353.537	1	4
354.734	1	13
355.931	1	5
357.127	1	-4
358.324	1	-9
359.521	1	10
360.718	1	7
361.914	1	12
363.111	1	6
364.308	1	13
365.504	1	43
366.701	1	36
367.897	1	42
369.093	1	33
370.290	1	48
371.486	1	46
372.682	1	44
373.879	1	20
375.075	1	33
376.271	1	24
377.467	1	22
378.663	1	10
379.859	1	18
381.055	1	17
382.251	1	5
383.447	1	14
384.643	1	13
385.839	1	11
387.035	1	17
388.230	1	19
389.426	1	1
390.622	1	12
391.817	1	8
393.013	1	5
394.208	1	-2
395.404	1	1
396.599	1	2
397.795	1	4
398.990	1	5
400.186	1	4
401.381	1	-9
402.576	1	4
403.771	1	3
404.967	1	-2
406.162	1	14
407.357	1	-2
408.552	1	1
409.747	1	1
410.942	1	12
412.137	1	2
413.332	1	4
414.526	1	1
415.721	1	2
416.916	1	2
418.111	1	-2
419.305	1	2
420.500	1	-3
421.695	1	-5
422.889	1	-22
424.084	1	0
425.278	1	13
426.472	1	-4
427.667	1	3
428.861	1	1
430.055	1	6
431.250	1	-4
432.444	1	4
433.638	1	-2
434.832	1	0
436.026	1	2
437.220	1	-8
438.414	1	3
439.608	1	-6
440.802	1	-1
441.996	1	1
443.190	1	0
444.384	1	-8
445.578	1	-4
446.771	1	11
447.965	1	1
449.159	1	-2
450.352	1	5
451.546	1	2
452.739	1	12
453.933	1	8
455.126	1	-7
456.320	1	-8
457.513	1	12
458.706	1	9
459.899	1	1
461.093	1	0
462.286	1	3
463.479	1	1
464.672	1	-6
465.865	1	-7
467.058	1	4
468.251	1	1
469.444	1	-9
470.637	1	0
471.830	1	1
473.023	1	4
474.215	1	17
475.408	1	7
476.601	1	-5
477.793	1	4
478.986	1	-2
480.179	1	6
481.371	1	-1
482.564	1	-2
483.756	1	8
484.948	1	-4
486.141	1	1
487.333	1	4
488.525	1	2
489.718	1	-2
490.910	1	-3
492.102	1	-1
493.294	1	0
494.486	1	10
495.678	1	-5
496.870	1	3
498.062	1	4
499.254	1	-3
500.446	1	-14
501.638	1	6
502.829	1	3
504.021	1	2
505.213	1	5
506.404	1	5
507.596	1	6
508.788	1	10
509.979	1	-3
511.171	1	0
512.362	1	-4
513.553	1	-7
514.745	1	1
515.936	1	-11
517.127	1	7
518.319	1	4
519.510	1	6
520.701	1	1
521.892	1	-2
523.083	1	9
524.274	1	-3
525.465	1	11
526.656	1	2
527.847	1	9
529.038	1	-6
530.229	1	11
531.419	1	12
532.610	1	-7
533.801	1	16
534.991	1	3
536.182	1	3
537.373	1	3
538.563	1	11
539.754	1	11
540.944	1	-12
542.134	1	2
543.325	1	10
544.515	1	3
545.705	1	-9
546.896	1	1
548.086	1	6
549.276	1	1
550.466	1	3
551.656	1	13
552.846	1	1
554.036	1	9
555.226	1	-10
556.416	1	-9
557.606	1	9
558.796	1	5
559.986	1	5
561.175	1	11
562.365	1	11
563.555	1	6
564.744	1	5
565.934	1	16
567.123	1	10
568.313	1	5
569.502	1	1
570.692	1	19
571.881	1	11
573.070	1	6
574.260	1	10
575.449	1	6
576.638	1	-6
577.827	1	9
579.016	1	16
580.205	1	-4
581.394	1	3
582.583	1	12
583.772	1	20
584.961	1	0
586.150	1	8
587.339	1	16
588.528	1	-5
589.717	1	8
590.905	1	1
592.094	1	-3
593.283	1	6
594.471	1	17
595.660	1	6
596.848	1	4
598.037	1	6
599.225	1	1
600.413	1	9
601.602	1	7
602.790	1	-1
603.978	1	9
605.166	1	-2
606.355	1	12
607.543	1	-5
608.731	1	-1
609.919	1	12
611.107	1	-7
612.295	1	1
613.483	1	3
614.671	1	9
615.858	1	8
617.046	1	9
618.234	1	5
619.422	1	-9
620.609	1	2
621.797	1	7
622.985	1	2
624.172	1	-8
625.360	1	5
626.547	1	-2
627.735	1	-2
628.922	1	4
630.109	1	-3
631.297	1	1
632.484	1	-2
633.671	1	4
634.858	1	1
636.045	1	6
637.232	1	3
638.419	1	-3
639.606	1	9
640.793	1	7
641.980	1	10
643.167	1	-1
644.354	1	5
645.541	1	4
646.728	1	-5
647.914	1	7
649.101	1	-5
650.288	1	3
651.474	1	-3
652.661	1	-1
653.847	1	5
655.034	1	4
656.220	1	-6
657.406	1	7
658.593	1	12
659.779	1	1
660.965	1	9
662.152	1	3
663.338	1	12
664.524	1	0
665.710	1	6
666.896	1	5
668.082	1	6
669.268	1	-1
670.454	1	8
671.640	1	12
672.826	1	2
674.011	1	3
675.197	1	-9
676.383	1	2
677.569	1	-4
678.754	1	-2
679.940	1	3
681.125	1	4
682.311	1	9
683.496	1	2
684.682	1	-7
685.867	1	-6
687.053	1	2
688.238	1	4
688.746	1	4