Folder: cryo-il_analysis/Data/GaN_130K_350ms (part 24)

File: GaN_sample F_spot6_UVVIS_130 K_200um_350 ms 2x2mm1_298.txt
340.368	1	1
341.565	1	-5
342.763	1	0
343.960	1	-2
345.157	1	-11
346.354	1	5
347.552	1	1
348.749	1	6
349.946	1	0
351.143	1	2
352.340	1	11
353.537	1	3
354.734	1	-1
355.931	1	1
357.127	1	2
358.324	1	-4
359.521	1	2
360.718	1	1
361.914	1	0
363.111	1	12
364.308	1	7
365.504	1	8
366.701	1	-3
367.897	1	9
369.093	1	3
370.290	1	9
371.486	1	1
372.682	1	3
373.879	1	16
375.075	1	7
376.271	1	12
377.467	1	9
378.663	1	5
379.859	1	3
381.055	1	0
382.251	1	-2
383.447	1	9
384.643	1	1
385.839	1	6
387.035	1	16
388.230	1	-2
389.426	1	3
390.622	1	3
391.817	1	10
393.013	1	12
394.208	1	3
395.404	1	-4
396.599	1	1
397.795	1	-6
398.990	1	-6
400.186	1	3
401.381	1	2
402.576	1	2
403.771	1	9
404.967	1	4
406.162	1	-2
407.357	1	6
408.552	1	-4
409.747	1	1
410.942	1	-6
412.137	1	-3
413.332	1	-6
414.526	1	5
415.721	1	12
416.916	1	-9
418.111	1	3
419.305	1	3
420.500	1	7
421.695	1	-11
422.889	1	6
424.084	1	2
425.278	1	-6
426.472	1	5
427.667	1	3
428.861	1	-9
430.055	1	4
431.250	1	12
432.444	1	8
433.638	1	7
434.832	1	-6
436.026	1	10
437.220	1	1
438.414	1	-2
439.608	1	4
440.802	1	-7
441.996	1	6
443.190	1	-1
444.384	1	-6
445.578	1	-7
446.771	1	-3
447.965	1	0
449.159	1	10
450.352	1	1
451.546	1	8
452.739	1	8
453.933	1	-10
455.126	1	-7
456.320	1	-3
457.513	1	0
458.706	1	6
459.899	1	0
461.093	1	9
462.286	1	6
463.479	1	10
464.672	1	11
465.865	1	-3
467.058	1	-1
468.251	1	-2
469.444	1	8
470.637	1	5
471.830	1	0
473.023	1	16
474.215	1	7
475.408	1	3
476.601	1	2
477.793	1	-1
478.986	1	1
480.179	1	2
481.371	1	1
482.564	1	-1
483.756	1	-6
484.948	1	1
486.141	1	-1
487.333	1	0
488.525	1	10
489.718	1	4
490.910	1	-11
492.102	1	14
493.294	1	5
494.486	1	13
495.678	1	-1
496.870	1	6
498.062	1	-1
499.254	1	2
500.446	1	9
501.638	1	-1
502.829	1	2
504.021	1	-4
505.213	1	-1
506.404	1	0
507.596	1	1
508.788	1	-4
509.979	1	-6
511.171	1	6
512.362	1	0
513.553	1	4
514.745	1	-3
515.936	1	13
517.127	1	5
518.319	1	-10
519.510	1	0
520.701	1	-5
521.892	1	4
523.083	1	4
524.274	1	-13
525.465	1	4
526.656	1	5
527.847	1	-4
529.038	1	-1
530.229	1	8
531.419	1	7
532.610	1	0
533.801	1	17
534.991	1	-1
536.182	1	5
537.373	1	-2
538.563	1	5
539.754	1	3
540.944	1	6
542.134	1	1
543.325	1	4
544.515	1	-6
545.705	1	-3
546.896	1	11
548.086	1	-5
549.276	1	0
550.466	1	11
551.656	1	3
552.846	1	-3
554.036	1	4
555.226	1	6
556.416	1	9
557.606	1	16
558.796	1	13
559.986	1	4
561.175	1	4
562.365	1	10
563.555	1	9
564.744	1	2
565.934	1	1
567.123	1	-3
568.313	1	5
569.502	1	5
570.692	1	11
571.881	1	-5
573.070	1	3
574.260	1	1
575.449	1	12
576.638	1	-5
577.827	1	-10
579.016	1	-1
580.205	1	0
581.394	1	-6
582.583	1	7
583.772	1	2
584.961	1	4
586.150	1	5
587.339	1	-4
588.528	1	4
589.717	1	-6
590.905	1	0
592.094	1	0
593.283	1	7
594.471	1	2
595.660	1	3
596.848	1	4
598.037	1	-2
599.225	1	0
600.413	1	6
601.602	1	3
602.790	1	-5
603.978	1	2
605.166	1	15
606.355	1	11
607.543	1	9
608.731	1	5
609.919	1	3
611.107	1	6
612.295	1	7
613.483	1	-7
614.671	1	7
615.858	1	-7
617.046	1	7
618.234	1	2
619.422	1	-3
620.609	1	-3
621.797	1	5
622.985	1	3
624.172	1	-3
625.360	1	-1
626.547	1	0
627.735	1	9
628.922	1	-5
630.109	1	2
631.297	1	-4
632.484	1	-1
633.671	1	-8
634.858	1	4
636.045	1	7
637.232	1	-6
638.419	1	9
639.606	1	8
640.793	1	-10
641.980	1	6
643.167	1	8
644.354	1	1
645.541	1	-4
646.728	1	5
647.914	1	-1
649.101	1	-1
650.288	1	3
651.474	1	-2
652.661	1	-6
653.847	1	-2
655.034	1	-3
656.220	1	4
657.406	1	3
658.593	1	4
659.779	1	0
660.965	1	-4
662.152	1	5
663.338	1	1
664.524	1	-2
665.710	1	5
666.896	1	-4
668.082	1	5
669.268	1	-2
670.454	1	5
671.640	1	-8
672.826	1	-3
674.011	1	7
675.197	1	-4
676.383	1	3
677.569	1	-7
678.754	1	10
679.940	1	-3
681.125	1	15
682.311	1	-7
683.496	1	4
684.682	1	-3
685.867	1	-1
687.053	1	0
688.238	1	5
688.746	1	2

File: GaN_sample F_spot6_UVVIS_130 K_200um_350 ms 2x2mm1_299.txt
340.368	1	-2
341.565	1	-4
342.763	1	4
343.960	1	-15
345.157	1	-13
346.354	1	-3
347.552	1	6
348.749	1	5
349.946	1	3
351.143	1	8
352.340	1	17
353.537	1	-8
354.734	1	0
355.931	1	3
357.127	1	9
358.324	1	-5
359.521	1	-4
360.718	1	15
361.914	1	-2
363.111	1	11
364.308	1	14
365.504	1	6
366.701	1	9
367.897	1	4
369.093	1	-2
370.290	1	9
371.486	1	12
372.682	1	9
373.879	1	2
375.075	1	13
376.271	1	9
377.467	1	5
378.663	1	-1
379.859	1	1
381.055	1	9
382.251	1	-1
383.447	1	5
384.643	1	7
385.839	1	3
387.035	1	12
388.230	1	-8
389.426	1	8
390.622	1	-4
391.817	1	8
393.013	1	4
394.208	1	-1
395.404	1	-9
396.599	1	15
397.795	1	-9
398.990	1	8
400.186	1	1
401.381	1	7
402.576	1	11
403.771	1	15
404.967	1	7
406.162	1	-6
407.357	1	2
408.552	1	-4
409.747	1	3
410.942	1	2
412.137	1	-9
413.332	1	5
414.526	1	9
415.721	1	-1
416.916	1	-1
418.111	1	9
419.305	1	6
420.500	1	2
421.695	1	-2
422.889	1	-4
424.084	1	6
425.278	1	-2
426.472	1	0
427.667	1	18
428.861	1	1
430.055	1	2
431.250	1	14
432.444	1	6
433.638	1	0
434.832	1	0
436.026	1	5
437.220	1	-4
438.414	1	-4
439.608	1	9
440.802	1	-12
441.996	1	8
443.190	1	0
444.384	1	1
445.578	1	3
446.771	1	8
447.965	1	0
449.159	1	1
450.352	1	5
451.546	1	7
452.739	1	0
453.933	1	2
455.126	1	-4
456.320	1	-6
457.513	1	-10
458.706	1	4
459.899	1	4
461.093	1	10
462.286	1	4
463.479	1	8
464.672	1	9
465.865	1	-5
467.058	1	2
468.251	1	0
469.444	1	0
470.637	1	8
471.830	1	8
473.023	1	0
474.215	1	4
475.408	1	3
476.601	1	-1
477.793	1	3
478.986	1	-4
480.179	1	-2
481.371	1	9
482.564	1	-3
483.756	1	-5
484.948	1	8
486.141	1	1
487.333	1	4
488.525	1	9
489.718	1	7
490.910	1	-11
492.102	1	8
493.294	1	3
494.486	1	15
495.678	1	4
496.870	1	3
498.062	1	1
499.254	1	3
500.446	1	5
501.638	1	2
502.829	1	2
504.021	1	2
505.213	1	8
506.404	1	-3
507.596	1	-7
508.788	1	2
509.979	1	-3
511.171	1	4
512.362	1	0
513.553	1	3
514.745	1	-6
515.936	1	23
517.127	1	6
518.319	1	-3
519.510	1	-4
520.701	1	4
521.892	1	8
523.083	1	-2
524.274	1	-7
525.465	1	8
526.656	1	1
527.847	1	9
529.038	1	-3
530.229	1	3
531.419	1	2
532.610	1	6
533.801	1	14
534.991	1	-2
536.182	1	9
537.373	1	8
538.563	1	8
539.754	1	6
540.944	1	5
542.134	1	2
543.325	1	-2
544.515	1	2
545.705	1	4
546.896	1	4
548.086	1	-12
549.276	1	-7
550.466	1	15
551.656	1	-5
552.846	1	-3
554.036	1	2
555.226	1	2
556.416	1	6
557.606	1	0
558.796	1	11
559.986	1	0
561.175	1	7
562.365	1	6
563.555	1	7
564.744	1	6
565.934	1	2
567.123	1	1
568.313	1	-3
569.502	1	0
570.692	1	10
571.881	1	-2
573.070	1	1
574.260	1	3
575.449	1	6
576.638	1	-6
577.827	1	-5
579.016	1	4
580.205	1	1
581.394	1	-2
582.583	1	8
583.772	1	6
584.961	1	-5
586.150	1	6
587.339	1	5
588.528	1	12
589.717	1	-7
590.905	1	3
592.094	1	-9
593.283	1	-7
594.471	1	1
595.660	1	-2
596.848	1	4
598.037	1	2
599.225	1	4
600.413	1	1
601.602	1	-1
602.790	1	0
603.978	1	6
605.166	1	11
606.355	1	14
607.543	1	-1
608.731	1	4
609.919	1	3
611.107	1	1
612.295	1	3
613.483	1	4
614.671	1	-2
615.858	1	-7
617.046	1	9
618.234	1	2
619.422	1	2
620.609	1	-5
621.797	1	2
622.985	1	-3
624.172	1	-4
625.360	1	-6
626.547	1	0
627.735	1	12
628.922	1	-18
630.109	1	5
631.297	1	-3
632.484	1	-10
633.671	1	-1
634.858	1	0
636.045	1	13
637.232	1	-1
638.419	1	3
639.606	1	1
640.793	1	-8
641.980	1	0
643.167	1	9
644.354	1	-1
645.541	1	-1
646.728	1	1
647.914	1	-5
649.101	1	-2
650.288	1	8
651.474	1	0
652.661	1	-12
653.847	1	5
655.034	1	4
656.220	1	-4
657.406	1	1
658.593	1	4
659.779	1	-1
660.965	1	1
662.152	1	7
663.338	1	5
664.524	1	-3
665.710	1	-2
666.896	1	1
668.082	1	-1
669.268	1	3
670.454	1	-5
671.640	1	-12
672.826	1	-3
674.011	1	2
675.197	1	-2
676.383	1	5
677.569	1	2
678.754	1	4
679.940	1	-3
681.125	1	3
682.311	1	-9
683.496	1	-7
684.682	1	-8
685.867	1	-7
687.053	1	-2
688.238	1	8
688.746	1	7

File: GaN_sample F_spot6_UVVIS_130 K_200um_350 ms 2x2mm1_302.txt
340.368	1	-3
341.565	1	-1
342.763	1	-3
343.960	1	-9
345.157	1	-8
346.354	1	-5
347.552	1	-4
348.749	1	1
349.946	1	3
351.143	1	1
352.340	1	9
353.537	1	-2
354.734	1	3
355.931	1	6
357.127	1	5
358.324	1	-1
359.521	1	-8
360.718	1	-1
361.914	1	-1
363.111	1	17
364.308	1	9
365.504	1	14
366.701	1	11
367.897	1	2
369.093	1	8
370.290	1	11
371.486	1	12
372.682	1	5
373.879	1	10
375.075	1	11
376.271	1	3
377.467	1	17
378.663	1	7
379.859	1	-4
381.055	1	-4
382.251	1	3
383.447	1	9
384.643	1	0
385.839	1	-5
387.035	1	12
388.230	1	1
389.426	1	6
390.622	1	6
391.817	1	12
393.013	1	6
394.208	1	-5
395.404	1	-8
396.599	1	14
397.795	1	1
398.990	1	8
400.186	1	-1
401.381	1	0
402.576	1	11
403.771	1	10
404.967	1	1
406.162	1	-4
407.357	1	4
408.552	1	-2
409.747	1	1
410.942	1	-5
412.137	1	10
413.332	1	-1
414.526	1	5
415.721	1	0
416.916	1	-5
418.111	1	4
419.305	1	-5
420.500	1	8
421.695	1	2
422.889	1	-1
424.084	1	5
425.278	1	4
426.472	1	9
427.667	1	8
428.861	1	5
430.055	1	-6
431.250	1	9
432.444	1	14
433.638	1	1
434.832	1	8
436.026	1	10
437.220	1	-2
438.414	1	-1
439.608	1	16
440.802	1	-8
441.996	1	0
443.190	1	-3
444.384	1	-5
445.578	1	-7
446.771	1	0
447.965	1	-3
449.159	1	8
450.352	1	2
451.546	1	7
452.739	1	12
453.933	1	2
455.126	1	-13
456.320	1	-1
457.513	1	-8
458.706	1	14
459.899	1	7
461.093	1	1
462.286	1	10
463.479	1	-2
464.672	1	4
465.865	1	-6
467.058	1	5
468.251	1	0
469.444	1	0
470.637	1	2
471.830	1	3
473.023	1	6
474.215	1	8
475.408	1	15
476.601	1	8
477.793	1	1
478.986	1	4
480.179	1	-1
481.371	1	3
482.564	1	3
483.756	1	5
484.948	1	-4
486.141	1	-1
487.333	1	-13
488.525	1	6
489.718	1	3
490.910	1	-7
492.102	1	7
493.294	1	2
494.486	1	10
495.678	1	1
496.870	1	-8
498.062	1	-5
499.254	1	6
500.446	1	1
501.638	1	4
502.829	1	-4
504.021	1	-3
505.213	1	5
506.404	1	8
507.596	1	-1
508.788	1	1
509.979	1	1
511.171	1	11
512.362	1	1
513.553	1	6
514.745	1	9
515.936	1	9
517.127	1	6
518.319	1	-4
519.510	1	-4
520.701	1	-3
521.892	1	9
523.083	1	4
524.274	1	-5
525.465	1	11
526.656	1	10
527.847	1	3
529.038	1	-13
530.229	1	13
531.419	1	6
532.610	1	3
533.801	1	15
534.991	1	10
536.182	1	7
537.373	1	0
538.563	1	11
539.754	1	2
540.944	1	8
542.134	1	8
543.325	1	4
544.515	1	4
545.705	1	-8
546.896	1	-2
548.086	1	-8
549.276	1	-2
550.466	1	7
551.656	1	13
552.846	1	2
554.036	1	-3
555.226	1	6
556.416	1	-1
557.606	1	1
558.796	1	14
559.986	1	-2
561.175	1	5
562.365	1	11
563.555	1	8
564.744	1	7
565.934	1	2
567.123	1	0
568.313	1	-1
569.502	1	-2
570.692	1	10
571.881	1	7
573.070	1	-2
574.260	1	-3
575.449	1	3
576.638	1	6
577.827	1	-1
579.016	1	3
580.205	1	-7
581.394	1	4
582.583	1	11
583.772	1	9
584.961	1	-1
586.150	1	14
587.339	1	6
588.528	1	1
589.717	1	-4
590.905	1	8
592.094	1	0
593.283	1	-10
594.471	1	1
595.660	1	2
596.848	1	-1
598.037	1	4
599.225	1	2
600.413	1	5
601.602	1	-1
602.790	1	-5
603.978	1	-3
605.166	1	5
606.355	1	8
607.543	1	-7
608.731	1	1
609.919	1	6
611.107	1	10
612.295	1	8
613.483	1	2
614.671	1	3
615.858	1	2
617.046	1	2
618.234	1	-1
619.422	1	4
620.609	1	0
621.797	1	-2
622.985	1	11
624.172	1	3
625.360	1	1
626.547	1	-3
627.735	1	7
628.922	1	-13
630.109	1	5
631.297	1	-1
632.484	1	-9
633.671	1	-1
634.858	1	-2
636.045	1	-1
637.232	1	-7
638.419	1	12
639.606	1	2
640.793	1	-5
641.980	1	-1
643.167	1	2
644.354	1	-12
645.541	1	4
646.728	1	3
647.914	1	-6
649.101	1	-5
650.288	1	15
651.474	1	-2
652.661	1	-8
653.847	1	0
655.034	1	-4
656.220	1	-5
657.406	1	15
658.593	1	1
659.779	1	-2
660.965	1	6
662.152	1	1
663.338	1	-4
664.524	1	-2
665.710	1	1
666.896	1	2
668.082	1	-5
669.268	1	10
670.454	1	-1
671.640	1	-1
672.826	1	-5
674.011	1	-1
675.197	1	-2
676.383	1	3
677.569	1	-1
678.754	1	7
679.940	1	1
681.125	1	13
682.311	1	-4
683.496	1	-1
684.682	1	-2
685.867	1	3
687.053	1	-5
688.238	1	10
688.746	1	3

File: GaN_sample F_spot6_UVVIS_130 K_200um_350 ms 2x2mm1_305.txt
340.368	1	9
341.565	1	-1
342.763	1	-3
343.960	1	-8
345.157	1	-4
346.354	1	1
347.552	1	-6
348.749	1	7
349.946	1	4
351.143	1	6
352.340	1	12
353.537	1	4
354.734	1	7
355.931	1	-1
357.127	1	8
358.324	1	-7
359.521	1	-2
360.718	1	5
361.914	1	9
363.111	1	13
364.308	1	18
365.504	1	7
366.701	1	7
367.897	1	5
369.093	1	14
370.290	1	14
371.486	1	11
372.682	1	9
373.879	1	12
375.075	1	18
376.271	1	10
377.467	1	15
378.663	1	7
379.859	1	-3
381.055	1	5
382.251	1	4
383.447	1	3
384.643	1	16
385.839	1	2
387.035	1	17
388.230	1	-4
389.426	1	8
390.622	1	8
391.817	1	7
393.013	1	4
394.208	1	-5
395.404	1	-7
396.599	1	12
397.795	1	-3
398.990	1	4
400.186	1	1
401.381	1	9
402.576	1	8
403.771	1	13
404.967	1	4
406.162	1	3
407.357	1	5
408.552	1	0
409.747	1	7
410.942	1	-2
412.137	1	-2
413.332	1	3
414.526	1	13
415.721	1	0
416.916	1	-1
418.111	1	2
419.305	1	0
420.500	1	-5
421.695	1	-3
422.889	1	2
424.084	1	2
425.278	1	-3
426.472	1	4
427.667	1	10
428.861	1	1
430.055	1	3
431.250	1	15
432.444	1	3
433.638	1	1
434.832	1	6
436.026	1	13
437.220	1	2
438.414	1	-3
439.608	1	12
440.802	1	-9
441.996	1	10
443.190	1	-1
444.384	1	2
445.578	1	-4
446.771	1	2
447.965	1	0
449.159	1	4
450.352	1	10
451.546	1	14
452.739	1	7
453.933	1	1
455.126	1	-5
456.320	1	-2
457.513	1	-9
458.706	1	2
459.899	1	-1
461.093	1	5
462.286	1	7
463.479	1	11
464.672	1	1
465.865	1	-12
467.058	1	5
468.251	1	5
469.444	1	2
470.637	1	7
471.830	1	8
473.023	1	16
474.215	1	9
475.408	1	-4
476.601	1	-1
477.793	1	-1
478.986	1	3
480.179	1	2
481.371	1	10
482.564	1	1
483.756	1	-4
484.948	1	3
486.141	1	-1
487.333	1	-10
488.525	1	3
489.718	1	7
490.910	1	-9
492.102	1	5
493.294	1	1
494.486	1	10
495.678	1	1
496.870	1	6
498.062	1	-1
499.254	1	9
500.446	1	1
501.638	1	2
502.829	1	-3
504.021	1	-2
505.213	1	4
506.404	1	-5
507.596	1	8
508.788	1	8
509.979	1	3
511.171	1	4
512.362	1	4
513.553	1	10
514.745	1	-5
515.936	1	10
517.127	1	4
518.319	1	-3
519.510	1	7
520.701	1	-5
521.892	1	4
523.083	1	2
524.274	1	-6
525.465	1	10
526.656	1	8
527.847	1	5
529.038	1	-7
530.229	1	5
531.419	1	12
532.610	1	-1
533.801	1	21
534.991	1	5
536.182	1	12
537.373	1	-1
538.563	1	10
539.754	1	-4
540.944	1	-6
542.134	1	-6
543.325	1	-5
544.515	1	-3
545.705	1	-3
546.896	1	3
548.086	1	-15
549.276	1	6
550.466	1	8
551.656	1	-9
552.846	1	-9
554.036	1	-4
555.226	1	12
556.416	1	14
557.606	1	0
558.796	1	7
559.986	1	-1
561.175	1	15
562.365	1	1
563.555	1	12
564.744	1	-4
565.934	1	-2
567.123	1	-5
568.313	1	-14
569.502	1	-2
570.692	1	9
571.881	1	-1
573.070	1	1
574.260	1	3
575.449	1	3
576.638	1	-2
577.827	1	-1
579.016	1	-1
580.205	1	-4
581.394	1	5
582.583	1	10
583.772	1	13
584.961	1	-5
586.150	1	14
587.339	1	-8
588.528	1	14
589.717	1	-3
590.905	1	6
592.094	1	2
593.283	1	-1
594.471	1	1
595.660	1	-3
596.848	1	-1
598.037	1	-3
599.225	1	1
600.413	1	12
601.602	1	-1
602.790	1	-5
603.978	1	5
605.166	1	8
606.355	1	11
607.543	1	2
608.731	1	3
609.919	1	7
611.107	1	10
612.295	1	9
613.483	1	-5
614.671	1	5
615.858	1	-3
617.046	1	13
618.234	1	12
619.422	1	4
620.609	1	-1
621.797	1	3
622.985	1	7
624.172	1	4
625.360	1	2
626.547	1	8
627.735	1	7
628.922	1	-5
630.109	1	1
631.297	1	4
632.484	1	-3
633.671	1	-5
634.858	1	11
636.045	1	12
637.232	1	0
638.419	1	11
639.606	1	9
640.793	1	-10
641.980	1	-4
643.167	1	0
644.354	1	-5
645.541	1	7
646.728	1	5
647.914	1	-1
649.101	1	-8
650.288	1	-1
651.474	1	1
652.661	1	-5
653.847	1	-3
655.034	1	-7
656.220	1	-1
657.406	1	6
658.593	1	-2
659.779	1	4
660.965	1	3
662.152	1	2
663.338	1	-3
664.524	1	-10
665.710	1	-1
666.896	1	-1
668.082	1	4
669.268	1	2
670.454	1	-6
671.640	1	-10
672.826	1	-7
674.011	1	3
675.197	1	4
676.383	1	3
677.569	1	5
678.754	1	5
679.940	1	-2
681.125	1	13
682.311	1	0
683.496	1	0
684.682	1	5
685.867	1	-5
687.053	1	-3
688.238	1	11
688.746	1	4

File: GaN_sample F_spot6_UVVIS_130 K_200um_350 ms 2x2mm1_307.txt
340.368	1	2
341.565	1	0
342.763	1	5
343.960	1	-9
345.157	1	-9
346.354	1	4
347.552	1	10
348.749	1	-1
349.946	1	6
351.143	1	7
352.340	1	19
353.537	1	7
354.734	1	-1
355.931	1	17
357.127	1	12
358.324	1	6
359.521	1	5
360.718	1	14
361.914	1	-3
363.111	1	13
364.308	1	5
365.504	1	10
366.701	1	5
367.897	1	2
369.093	1	15
370.290	1	8
371.486	1	10
372.682	1	8
373.879	1	8
375.075	1	15
376.271	1	6
377.467	1	9
378.663	1	6
379.859	1	10
381.055	1	3
382.251	1	5
383.447	1	-3
384.643	1	-1
385.839	1	10
387.035	1	18
388.230	1	-1
389.426	1	4
390.622	1	-1
391.817	1	10
393.013	1	1
394.208	1	-11
395.404	1	-6
396.599	1	10
397.795	1	-5
398.990	1	3
400.186	1	-4
401.381	1	5
402.576	1	6
403.771	1	10
404.967	1	-3
406.162	1	5
407.357	1	0
408.552	1	-1
409.747	1	-3
410.942	1	6
412.137	1	1
413.332	1	-11
414.526	1	-2
415.721	1	5
416.916	1	0
418.111	1	6
419.305	1	3
420.500	1	6
421.695	1	0
422.889	1	3
424.084	1	11
425.278	1	-1
426.472	1	6
427.667	1	4
428.861	1	-3
430.055	1	-1
431.250	1	11
432.444	1	-2
433.638	1	6
434.832	1	10
436.026	1	10
437.220	1	-3
438.414	1	1
439.608	1	10
440.802	1	-13
441.996	1	17
443.190	1	1
444.384	1	-7
445.578	1	7
446.771	1	3
447.965	1	0
449.159	1	6
450.352	1	1
451.546	1	1
452.739	1	-6
453.933	1	1
455.126	1	-11
456.320	1	-7
457.513	1	-13
458.706	1	10
459.899	1	-1
461.093	1	8
462.286	1	12
463.479	1	12
464.672	1	1
465.865	1	-4
467.058	1	2
468.251	1	5
469.444	1	7
470.637	1	9
471.830	1	1
473.023	1	3
474.215	1	4
475.408	1	5
476.601	1	-8
477.793	1	-3
478.986	1	-4
480.179	1	3
481.371	1	-1
482.564	1	0
483.756	1	7
484.948	1	5
486.141	1	-4
487.333	1	-9
488.525	1	7
489.718	1	7
490.910	1	3
492.102	1	17
493.294	1	9
494.486	1	10
495.678	1	-1
496.870	1	2
498.062	1	0
499.254	1	14
500.446	1	0
501.638	1	8
502.829	1	0
504.021	1	-2
505.213	1	6
506.404	1	2
507.596	1	-7
508.788	1	2
509.979	1	3
511.171	1	10
512.362	1	-3
513.553	1	9
514.745	1	-4
515.936	1	12
517.127	1	6
518.319	1	-2
519.510	1	1
520.701	1	3
521.892	1	12
523.083	1	6
524.274	1	3
525.465	1	-3
526.656	1	2
527.847	1	2
529.038	1	-11
530.229	1	0
531.419	1	10
532.610	1	0
533.801	1	14
534.991	1	6
536.182	1	7
537.373	1	-1
538.563	1	14
539.754	1	3
540.944	1	5
542.134	1	-11
543.325	1	6
544.515	1	0
545.705	1	6
546.896	1	4
548.086	1	-3
549.276	1	-7
550.466	1	8
551.656	1	14
552.846	1	-4
554.036	1	1
555.226	1	9
556.416	1	14
557.606	1	-1
558.796	1	16
559.986	1	10
561.175	1	1
562.365	1	10
563.555	1	12
564.744	1	11
565.934	1	-2
567.123	1	-3
568.313	1	-8
569.502	1	6
570.692	1	3
571.881	1	1
573.070	1	7
574.260	1	7
575.449	1	2
576.638	1	-4
577.827	1	-7
579.016	1	-3
580.205	1	-5
581.394	1	7
582.583	1	13
583.772	1	10
584.961	1	8
586.150	1	10
587.339	1	2
588.528	1	-3
589.717	1	-2
590.905	1	1
592.094	1	-3
593.283	1	-6
594.471	1	2
595.660	1	1
596.848	1	7
598.037	1	7
599.225	1	3
600.413	1	4
601.602	1	-4
602.790	1	1
603.978	1	-1
605.166	1	8
606.355	1	6
607.543	1	5
608.731	1	-2
609.919	1	4
611.107	1	7
612.295	1	1
613.483	1	-6
614.671	1	6
615.858	1	-1
617.046	1	3
618.234	1	7
619.422	1	-4
620.609	1	-9
621.797	1	-5
622.985	1	10
624.172	1	-7
625.360	1	-3
626.547	1	9
627.735	1	4
628.922	1	-8
630.109	1	0
631.297	1	0
632.484	1	-5
633.671	1	-2
634.858	1	12
636.045	1	12
637.232	1	-11
638.419	1	-2
639.606	1	1
640.793	1	-4
641.980	1	2
643.167	1	4
644.354	1	2
645.541	1	-1
646.728	1	6
647.914	1	-12
649.101	1	-3
650.288	1	9
651.474	1	3
652.661	1	1
653.847	1	-6
655.034	1	4
656.220	1	-7
657.406	1	12
658.593	1	-2
659.779	1	5
660.965	1	5
662.152	1	3
663.338	1	-4
664.524	1	1
665.710	1	-5
666.896	1	-3
668.082	1	1
669.268	1	0
670.454	1	5
671.640	1	-14
672.826	1	2
674.011	1	9
675.197	1	4
676.383	1	7
677.569	1	2
678.754	1	1
679.940	1	-1
681.125	1	9
682.311	1	0
683.496	1	-4
684.682	1	-8
685.867	1	1
687.053	1	-1
688.238	1	5
688.746	1	1

File: GaN_sample F_spot6_UVVIS_130 K_200um_350 ms 2x2mm1_308.txt
340.368	1	6
341.565	1	-3
342.763	1	-5
343.960	1	-8
345.157	1	-13
346.354	1	3
347.552	1	-5
348.749	1	7
349.946	1	5
351.143	1	8
352.340	1	4
353.537	1	7
354.734	1	1
355.931	1	3
357.127	1	-2
358.324	1	7
359.521	1	0
360.718	1	5
361.914	1	8
363.111	1	15
364.308	1	11
365.504	1	14
366.701	1	10
367.897	1	-2
369.093	1	7
370.290	1	10
371.486	1	11
372.682	1	10
373.879	1	18
375.075	1	12
376.271	1	-1
377.467	1	19
378.663	1	0
379.859	1	-4
381.055	1	2
382.251	1	3
383.447	1	0
384.643	1	3
385.839	1	2
387.035	1	13
388.230	1	-3
389.426	1	7
390.622	1	8
391.817	1	3
393.013	1	6
394.208	1	-3
395.404	1	-10
396.599	1	10
397.795	1	2
398.990	1	5
400.186	1	-1
401.381	1	1
402.576	1	-1
403.771	1	11
404.967	1	4
406.162	1	-6
407.357	1	6
408.552	1	-2
409.747	1	1
410.942	1	8
412.137	1	-6
413.332	1	4
414.526	1	-2
415.721	1	5
416.916	1	6
418.111	1	4
419.305	1	4
420.500	1	3
421.695	1	1
422.889	1	3
424.084	1	9
425.278	1	-9
426.472	1	-1
427.667	1	4
428.861	1	-2
430.055	1	-3
431.250	1	11
432.444	1	1
433.638	1	4
434.832	1	-5
436.026	1	9
437.220	1	-7
438.414	1	3
439.608	1	6
440.802	1	-6
441.996	1	15
443.190	1	1
444.384	1	1
445.578	1	0
446.771	1	1
447.965	1	8
449.159	1	1
450.352	1	14
451.546	1	15
452.739	1	13
453.933	1	3
455.126	1	-5
456.320	1	2
457.513	1	-6
458.706	1	-1
459.899	1	0
461.093	1	0
462.286	1	5
463.479	1	7
464.672	1	9
465.865	1	-3
467.058	1	1
468.251	1	1
469.444	1	5
470.637	1	3
471.830	1	9
473.023	1	7
474.215	1	-2
475.408	1	-1
476.601	1	3
477.793	1	3
478.986	1	5
480.179	1	-3
481.371	1	9
482.564	1	-7
483.756	1	-4
484.948	1	-1
486.141	1	2
487.333	1	8
488.525	1	5
489.718	1	3
490.910	1	-3
492.102	1	6
493.294	1	3
494.486	1	15
495.678	1	6
496.870	1	-6
498.062	1	-1
499.254	1	9
500.446	1	10
501.638	1	11
502.829	1	0
504.021	1	-4
505.213	1	-1
506.404	1	-2
507.596	1	2
508.788	1	2
509.979	1	-6
511.171	1	10
512.362	1	-7
513.553	1	6
514.745	1	-9
515.936	1	11
517.127	1	5
518.319	1	-4
519.510	1	-2
520.701	1	-2
521.892	1	0
523.083	1	-1
524.274	1	3
525.465	1	9
526.656	1	9
527.847	1	-3
529.038	1	5
530.229	1	8
531.419	1	3
532.610	1	-9
533.801	1	8
534.991	1	12
536.182	1	11
537.373	1	2
538.563	1	9
539.754	1	-7
540.944	1	2
542.134	1	5
543.325	1	-3
544.515	1	4
545.705	1	1
546.896	1	5
548.086	1	-8
549.276	1	-2
550.466	1	6
551.656	1	0
552.846	1	-1
554.036	1	1
555.226	1	4
556.416	1	7
557.606	1	-3
558.796	1	11
559.986	1	1
561.175	1	6
562.365	1	2
563.555	1	5
564.744	1	-4
565.934	1	-1
567.123	1	7
568.313	1	-2
569.502	1	-6
570.692	1	11
571.881	1	-4
573.070	1	-4
574.260	1	8
575.449	1	6
576.638	1	-1
577.827	1	-1
579.016	1	1
580.205	1	-5
581.394	1	4
582.583	1	11
583.772	1	1
584.961	1	-3
586.150	1	0
587.339	1	-1
588.528	1	5
589.717	1	3
590.905	1	9
592.094	1	4
593.283	1	2
594.471	1	4
595.660	1	-4
596.848	1	4
598.037	1	4
599.225	1	8
600.413	1	3
601.602	1	1
602.790	1	-4
603.978	1	4
605.166	1	5
606.355	1	7
607.543	1	1
608.731	1	2
609.919	1	6
611.107	1	4
612.295	1	10
613.483	1	-6
614.671	1	9
615.858	1	-5
617.046	1	2
618.234	1	-1
619.422	1	2
620.609	1	-4
621.797	1	6
622.985	1	-6
624.172	1	-3
625.360	1	5
626.547	1	-5
627.735	1	14
628.922	1	-3
630.109	1	6
631.297	1	-7
632.484	1	-10
633.671	1	-6
634.858	1	2
636.045	1	5
637.232	1	-5
638.419	1	11
639.606	1	6
640.793	1	-10
641.980	1	3
643.167	1	5
644.354	1	-5
645.541	1	-2
646.728	1	5
647.914	1	-5
649.101	1	-15
650.288	1	5
651.474	1	-2
652.661	1	-4
653.847	1	4
655.034	1	5
656.220	1	1
657.406	1	6
658.593	1	-4
659.779	1	6
660.965	1	3
662.152	1	-1
663.338	1	6
664.524	1	-7
665.710	1	4
666.896	1	0
668.082	1	5
669.268	1	-3
670.454	1	1
671.640	1	-2
672.826	1	2
674.011	1	-3
675.197	1	-4
676.383	1	5
677.569	1	1
678.754	1	0
679.940	1	-3
681.125	1	11
682.311	1	-10
683.496	1	2
684.682	1	-1
685.867	1	-1
687.053	1	10
688.238	1	12
688.746	1	7