Folder: cryo-il_analysis/Data/GaN_200K_800ms (part 25)

File: GaN_sample F_spot 12_UVVIS_200 K_200um_800 ms 2x2mm1_219.txt
340.368	1	4
341.565	1	-3
342.763	1	11
343.960	1	-3
345.157	1	1
346.354	1	6
347.552	1	-6
348.749	1	-9
349.946	1	-8
351.143	1	-1
352.340	1	6
353.537	1	-5
354.734	1	1
355.931	1	2
357.127	1	2
358.324	1	-1
359.521	1	9
360.718	1	9
361.914	1	19
363.111	1	6
364.308	1	12
365.504	1	22
366.701	1	16
367.897	1	19
369.093	1	25
370.290	1	22
371.486	1	26
372.682	1	24
373.879	1	22
375.075	1	11
376.271	1	23
377.467	1	5
378.663	1	4
379.859	1	8
381.055	1	14
382.251	1	-4
383.447	1	-1
384.643	1	12
385.839	1	-3
387.035	1	6
388.230	1	11
389.426	1	3
390.622	1	4
391.817	1	6
393.013	1	9
394.208	1	2
395.404	1	-5
396.599	1	2
397.795	1	6
398.990	1	1
400.186	1	5
401.381	1	-4
402.576	1	-7
403.771	1	1
404.967	1	7
406.162	1	10
407.357	1	-8
408.552	1	-11
409.747	1	-4
410.942	1	14
412.137	1	10
413.332	1	-7
414.526	1	3
415.721	1	-3
416.916	1	-3
418.111	1	-2
419.305	1	-1
420.500	1	-1
421.695	1	-4
422.889	1	-12
424.084	1	-10
425.278	1	8
426.472	1	0
427.667	1	8
428.861	1	-3
430.055	1	-1
431.250	1	7
432.444	1	9
433.638	1	2
434.832	1	-1
436.026	1	7
437.220	1	3
438.414	1	-11
439.608	1	-6
440.802	1	-1
441.996	1	8
443.190	1	1
444.384	1	-7
445.578	1	-4
446.771	1	6
447.965	1	0
449.159	1	-5
450.352	1	-1
451.546	1	-3
452.739	1	2
453.933	1	-1
455.126	1	-2
456.320	1	6
457.513	1	10
458.706	1	8
459.899	1	0
461.093	1	3
462.286	1	-5
463.479	1	-4
464.672	1	1
465.865	1	8
467.058	1	-9
468.251	1	0
469.444	1	-8
470.637	1	-4
471.830	1	-2
473.023	1	7
474.215	1	7
475.408	1	-2
476.601	1	-3
477.793	1	-4
478.986	1	-7
480.179	1	1
481.371	1	2
482.564	1	-1
483.756	1	-4
484.948	1	-10
486.141	1	4
487.333	1	-4
488.525	1	-3
489.718	1	0
490.910	1	1
492.102	1	-5
493.294	1	1
494.486	1	3
495.678	1	11
496.870	1	8
498.062	1	2
499.254	1	1
500.446	1	-3
501.638	1	-10
502.829	1	-3
504.021	1	-4
505.213	1	7
506.404	1	7
507.596	1	2
508.788	1	11
509.979	1	-9
511.171	1	-11
512.362	1	-3
513.553	1	-11
514.745	1	0
515.936	1	5
517.127	1	4
518.319	1	-3
519.510	1	-4
520.701	1	4
521.892	1	2
523.083	1	-9
524.274	1	-6
525.465	1	10
526.656	1	-2
527.847	1	3
529.038	1	5
530.229	1	5
531.419	1	6
532.610	1	-2
533.801	1	21
534.991	1	4
536.182	1	7
537.373	1	5
538.563	1	3
539.754	1	5
540.944	1	1
542.134	1	7
543.325	1	0
544.515	1	5
545.705	1	7
546.896	1	-1
548.086	1	3
549.276	1	4
550.466	1	6
551.656	1	7
552.846	1	2
554.036	1	0
555.226	1	3
556.416	1	6
557.606	1	-8
558.796	1	1
559.986	1	-6
561.175	1	14
562.365	1	0
563.555	1	5
564.744	1	3
565.934	1	7
567.123	1	14
568.313	1	6
569.502	1	-4
570.692	1	9
571.881	1	10
573.070	1	-7
574.260	1	18
575.449	1	4
576.638	1	-6
577.827	1	-2
579.016	1	7
580.205	1	0
581.394	1	7
582.583	1	10
583.772	1	11
584.961	1	2
586.150	1	-2
587.339	1	9
588.528	1	6
589.717	1	1
590.905	1	3
592.094	1	2
593.283	1	1
594.471	1	15
595.660	1	4
596.848	1	-4
598.037	1	4
599.225	1	-1
600.413	1	19
601.602	1	8
602.790	1	-3
603.978	1	-5
605.166	1	-7
606.355	1	2
607.543	1	4
608.731	1	1
609.919	1	15
611.107	1	0
612.295	1	4
613.483	1	8
614.671	1	-3
615.858	1	5
617.046	1	6
618.234	1	0
619.422	1	-7
620.609	1	3
621.797	1	6
622.985	1	10
624.172	1	-2
625.360	1	-3
626.547	1	6
627.735	1	9
628.922	1	8
630.109	1	-8
631.297	1	1
632.484	1	9
633.671	1	-1
634.858	1	8
636.045	1	11
637.232	1	-4
638.419	1	-6
639.606	1	5
640.793	1	7
641.980	1	5
643.167	1	0
644.354	1	1
645.541	1	-4
646.728	1	6
647.914	1	-6
649.101	1	5
650.288	1	8
651.474	1	-8
652.661	1	-4
653.847	1	10
655.034	1	1
656.220	1	-10
657.406	1	14
658.593	1	5
659.779	1	-1
660.965	1	10
662.152	1	5
663.338	1	11
664.524	1	-7
665.710	1	7
666.896	1	-4
668.082	1	8
669.268	1	1
670.454	1	3
671.640	1	-4
672.826	1	-4
674.011	1	-1
675.197	1	-7
676.383	1	6
677.569	1	-3
678.754	1	0
679.940	1	6
681.125	1	2
682.311	1	1
683.496	1	5
684.682	1	-13
685.867	1	-4
687.053	1	10
688.238	1	4
688.746	1	7

File: GaN_sample F_spot 12_UVVIS_200 K_200um_800 ms 2x2mm1_221.txt
340.368	1	4
341.565	1	-7
342.763	1	10
343.960	1	8
345.157	1	-9
346.354	1	0
347.552	1	-4
348.749	1	2
349.946	1	-3
351.143	1	-1
352.340	1	6
353.537	1	3
354.734	1	-5
355.931	1	4
357.127	1	-2
358.324	1	-1
359.521	1	16
360.718	1	10
361.914	1	8
363.111	1	9
364.308	1	18
365.504	1	16
366.701	1	13
367.897	1	32
369.093	1	15
370.290	1	32
371.486	1	36
372.682	1	32
373.879	1	13
375.075	1	14
376.271	1	24
377.467	1	10
378.663	1	2
379.859	1	7
381.055	1	15
382.251	1	1
383.447	1	6
384.643	1	14
385.839	1	2
387.035	1	0
388.230	1	13
389.426	1	-1
390.622	1	2
391.817	1	-8
393.013	1	3
394.208	1	5
395.404	1	-4
396.599	1	2
397.795	1	1
398.990	1	4
400.186	1	1
401.381	1	-4
402.576	1	2
403.771	1	7
404.967	1	-2
406.162	1	8
407.357	1	1
408.552	1	0
409.747	1	2
410.942	1	11
412.137	1	-1
413.332	1	3
414.526	1	-8
415.721	1	7
416.916	1	-2
418.111	1	-5
419.305	1	2
420.500	1	-3
421.695	1	0
422.889	1	-9
424.084	1	4
425.278	1	14
426.472	1	-4
427.667	1	6
428.861	1	-7
430.055	1	5
431.250	1	-4
432.444	1	13
433.638	1	-13
434.832	1	10
436.026	1	3
437.220	1	8
438.414	1	-11
439.608	1	-8
440.802	1	0
441.996	1	6
443.190	1	-2
444.384	1	-11
445.578	1	-3
446.771	1	20
447.965	1	-5
449.159	1	-7
450.352	1	6
451.546	1	3
452.739	1	8
453.933	1	9
455.126	1	-4
456.320	1	-7
457.513	1	-2
458.706	1	-2
459.899	1	-5
461.093	1	-3
462.286	1	-2
463.479	1	-1
464.672	1	3
465.865	1	-2
467.058	1	-3
468.251	1	-5
469.444	1	-4
470.637	1	-2
471.830	1	4
473.023	1	-1
474.215	1	13
475.408	1	-8
476.601	1	1
477.793	1	-7
478.986	1	2
480.179	1	9
481.371	1	8
482.564	1	10
483.756	1	6
484.948	1	-6
486.141	1	4
487.333	1	-2
488.525	1	-3
489.718	1	2
490.910	1	1
492.102	1	-10
493.294	1	1
494.486	1	-6
495.678	1	-4
496.870	1	3
498.062	1	0
499.254	1	-2
500.446	1	-5
501.638	1	-7
502.829	1	5
504.021	1	-5
505.213	1	8
506.404	1	3
507.596	1	0
508.788	1	26
509.979	1	-5
511.171	1	1
512.362	1	-1
513.553	1	-12
514.745	1	5
515.936	1	5
517.127	1	-1
518.319	1	-2
519.510	1	15
520.701	1	2
521.892	1	1
523.083	1	-2
524.274	1	2
525.465	1	9
526.656	1	-9
527.847	1	2
529.038	1	9
530.229	1	3
531.419	1	8
532.610	1	-3
533.801	1	16
534.991	1	4
536.182	1	5
537.373	1	-2
538.563	1	7
539.754	1	10
540.944	1	4
542.134	1	9
543.325	1	6
544.515	1	4
545.705	1	8
546.896	1	1
548.086	1	7
549.276	1	3
550.466	1	3
551.656	1	3
552.846	1	6
554.036	1	-2
555.226	1	-3
556.416	1	8
557.606	1	8
558.796	1	0
559.986	1	-3
561.175	1	5
562.365	1	6
563.555	1	3
564.744	1	4
565.934	1	13
567.123	1	4
568.313	1	13
569.502	1	-3
570.692	1	9
571.881	1	13
573.070	1	4
574.260	1	13
575.449	1	-2
576.638	1	0
577.827	1	-2
579.016	1	9
580.205	1	5
581.394	1	1
582.583	1	13
583.772	1	7
584.961	1	11
586.150	1	2
587.339	1	9
588.528	1	12
589.717	1	3
590.905	1	6
592.094	1	-2
593.283	1	6
594.471	1	8
595.660	1	15
596.848	1	-1
598.037	1	8
599.225	1	-10
600.413	1	13
601.602	1	10
602.790	1	4
603.978	1	0
605.166	1	10
606.355	1	10
607.543	1	5
608.731	1	-2
609.919	1	3
611.107	1	4
612.295	1	-1
613.483	1	5
614.671	1	0
615.858	1	1
617.046	1	12
618.234	1	3
619.422	1	-5
620.609	1	0
621.797	1	0
622.985	1	0
624.172	1	1
625.360	1	5
626.547	1	2
627.735	1	-1
628.922	1	6
630.109	1	-14
631.297	1	0
632.484	1	4
633.671	1	-2
634.858	1	-4
636.045	1	8
637.232	1	-15
638.419	1	6
639.606	1	10
640.793	1	11
641.980	1	8
643.167	1	0
644.354	1	7
645.541	1	5
646.728	1	-8
647.914	1	3
649.101	1	-2
650.288	1	6
651.474	1	-6
652.661	1	-3
653.847	1	14
655.034	1	-2
656.220	1	-12
657.406	1	9
658.593	1	11
659.779	1	1
660.965	1	9
662.152	1	2
663.338	1	17
664.524	1	-4
665.710	1	0
666.896	1	2
668.082	1	2
669.268	1	2
670.454	1	6
671.640	1	2
672.826	1	1
674.011	1	5
675.197	1	-1
676.383	1	0
677.569	1	-7
678.754	1	-10
679.940	1	-10
681.125	1	4
682.311	1	10
683.496	1	5
684.682	1	-4
685.867	1	3
687.053	1	1
688.238	1	9
688.746	1	5

File: GaN_sample F_spot 12_UVVIS_200 K_200um_800 ms 2x2mm1_223.txt
340.368	1	6
341.565	1	-9
342.763	1	12
343.960	1	0
345.157	1	-6
346.354	1	-2
347.552	1	9
348.749	1	1
349.946	1	-2
351.143	1	0
352.340	1	1
353.537	1	-2
354.734	1	-2
355.931	1	2
357.127	1	6
358.324	1	-5
359.521	1	10
360.718	1	11
361.914	1	3
363.111	1	7
364.308	1	7
365.504	1	22
366.701	1	21
367.897	1	29
369.093	1	31
370.290	1	28
371.486	1	23
372.682	1	23
373.879	1	12
375.075	1	11
376.271	1	22
377.467	1	10
378.663	1	1
379.859	1	6
381.055	1	8
382.251	1	1
383.447	1	-7
384.643	1	14
385.839	1	4
387.035	1	7
388.230	1	5
389.426	1	-1
390.622	1	6
391.817	1	4
393.013	1	-6
394.208	1	4
395.404	1	-9
396.599	1	10
397.795	1	0
398.990	1	2
400.186	1	-2
401.381	1	0
402.576	1	-4
403.771	1	0
404.967	1	4
406.162	1	4
407.357	1	0
408.552	1	-5
409.747	1	0
410.942	1	5
412.137	1	4
413.332	1	8
414.526	1	-15
415.721	1	2
416.916	1	-6
418.111	1	1
419.305	1	0
420.500	1	3
421.695	1	-9
422.889	1	-14
424.084	1	-4
425.278	1	9
426.472	1	5
427.667	1	3
428.861	1	4
430.055	1	-7
431.250	1	-1
432.444	1	8
433.638	1	-3
434.832	1	1
436.026	1	8
437.220	1	1
438.414	1	-10
439.608	1	-6
440.802	1	-9
441.996	1	9
443.190	1	-1
444.384	1	-6
445.578	1	-5
446.771	1	8
447.965	1	-2
449.159	1	-4
450.352	1	-5
451.546	1	-3
452.739	1	10
453.933	1	0
455.126	1	-5
456.320	1	-6
457.513	1	11
458.706	1	2
459.899	1	0
461.093	1	-5
462.286	1	-2
463.479	1	-1
464.672	1	0
465.865	1	-11
467.058	1	-3
468.251	1	3
469.444	1	-6
470.637	1	-8
471.830	1	-3
473.023	1	2
474.215	1	3
475.408	1	2
476.601	1	1
477.793	1	-2
478.986	1	5
480.179	1	2
481.371	1	-4
482.564	1	4
483.756	1	3
484.948	1	-6
486.141	1	-3
487.333	1	1
488.525	1	0
489.718	1	-2
490.910	1	-5
492.102	1	-3
493.294	1	-4
494.486	1	-3
495.678	1	-4
496.870	1	1
498.062	1	-9
499.254	1	3
500.446	1	-15
501.638	1	3
502.829	1	-2
504.021	1	-6
505.213	1	1
506.404	1	3
507.596	1	-1
508.788	1	18
509.979	1	0
511.171	1	3
512.362	1	-15
513.553	1	-7
514.745	1	1
515.936	1	-3
517.127	1	-1
518.319	1	-1
519.510	1	-1
520.701	1	-2
521.892	1	8
523.083	1	1
524.274	1	-2
525.465	1	13
526.656	1	-1
527.847	1	1
529.038	1	5
530.229	1	1
531.419	1	13
532.610	1	1
533.801	1	15
534.991	1	8
536.182	1	1
537.373	1	1
538.563	1	6
539.754	1	9
540.944	1	3
542.134	1	13
543.325	1	4
544.515	1	-3
545.705	1	5
546.896	1	0
548.086	1	3
549.276	1	-1
550.466	1	8
551.656	1	-1
552.846	1	0
554.036	1	4
555.226	1	-19
556.416	1	-1
557.606	1	-3
558.796	1	4
559.986	1	-1
561.175	1	7
562.365	1	0
563.555	1	-5
564.744	1	8
565.934	1	3
567.123	1	6
568.313	1	3
569.502	1	-1
570.692	1	1
571.881	1	15
573.070	1	6
574.260	1	8
575.449	1	7
576.638	1	3
577.827	1	-3
579.016	1	7
580.205	1	-2
581.394	1	2
582.583	1	8
583.772	1	-1
584.961	1	0
586.150	1	-4
587.339	1	4
588.528	1	5
589.717	1	1
590.905	1	4
592.094	1	2
593.283	1	1
594.471	1	20
595.660	1	6
596.848	1	8
598.037	1	3
599.225	1	-5
600.413	1	11
601.602	1	13
602.790	1	0
603.978	1	-4
605.166	1	12
606.355	1	15
607.543	1	0
608.731	1	3
609.919	1	9
611.107	1	-2
612.295	1	1
613.483	1	7
614.671	1	6
615.858	1	-6
617.046	1	2
618.234	1	-6
619.422	1	-13
620.609	1	4
621.797	1	-2
622.985	1	9
624.172	1	-1
625.360	1	4
626.547	1	8
627.735	1	7
628.922	1	7
630.109	1	-5
631.297	1	7
632.484	1	-1
633.671	1	-9
634.858	1	4
636.045	1	10
637.232	1	7
638.419	1	7
639.606	1	4
640.793	1	11
641.980	1	3
643.167	1	8
644.354	1	-3
645.541	1	-2
646.728	1	8
647.914	1	3
649.101	1	-5
650.288	1	5
651.474	1	-1
652.661	1	1
653.847	1	1
655.034	1	3
656.220	1	-1
657.406	1	1
658.593	1	12
659.779	1	11
660.965	1	10
662.152	1	11
663.338	1	2
664.524	1	-9
665.710	1	-1
666.896	1	0
668.082	1	4
669.268	1	3
670.454	1	-4
671.640	1	-2
672.826	1	-5
674.011	1	-6
675.197	1	0
676.383	1	1
677.569	1	0
678.754	1	-4
679.940	1	0
681.125	1	7
682.311	1	2
683.496	1	-4
684.682	1	-8
685.867	1	-6
687.053	1	-1
688.238	1	12
688.746	1	-1

File: GaN_sample F_spot 12_UVVIS_200 K_200um_800 ms 2x2mm1_225.txt
340.368	1	16
341.565	1	-17
342.763	1	4
343.960	1	8
345.157	1	-10
346.354	1	-6
347.552	1	-13
348.749	1	-11
349.946	1	-5
351.143	1	1
352.340	1	2
353.537	1	6
354.734	1	6
355.931	1	1
357.127	1	3
358.324	1	7
359.521	1	13
360.718	1	5
361.914	1	6
363.111	1	3
364.308	1	4
365.504	1	26
366.701	1	23
367.897	1	20
369.093	1	21
370.290	1	27
371.486	1	27
372.682	1	12
373.879	1	20
375.075	1	26
376.271	1	16
377.467	1	11
378.663	1	11
379.859	1	7
381.055	1	9
382.251	1	1
383.447	1	0
384.643	1	6
385.839	1	4
387.035	1	5
388.230	1	7
389.426	1	0
390.622	1	3
391.817	1	5
393.013	1	-2
394.208	1	6
395.404	1	-10
396.599	1	2
397.795	1	-4
398.990	1	0
400.186	1	-1
401.381	1	-6
402.576	1	-6
403.771	1	8
404.967	1	-7
406.162	1	0
407.357	1	-5
408.552	1	4
409.747	1	2
410.942	1	7
412.137	1	1
413.332	1	6
414.526	1	2
415.721	1	2
416.916	1	-2
418.111	1	6
419.305	1	-4
420.500	1	-6
421.695	1	-5
422.889	1	-10
424.084	1	0
425.278	1	6
426.472	1	-1
427.667	1	9
428.861	1	0
430.055	1	7
431.250	1	2
432.444	1	-3
433.638	1	-2
434.832	1	7
436.026	1	6
437.220	1	5
438.414	1	-12
439.608	1	-7
440.802	1	0
441.996	1	9
443.190	1	2
444.384	1	1
445.578	1	-3
446.771	1	14
447.965	1	6
449.159	1	-4
450.352	1	1
451.546	1	-3
452.739	1	0
453.933	1	2
455.126	1	0
456.320	1	1
457.513	1	7
458.706	1	8
459.899	1	-2
461.093	1	10
462.286	1	0
463.479	1	1
464.672	1	3
465.865	1	-6
467.058	1	0
468.251	1	0
469.444	1	-1
470.637	1	-2
471.830	1	-9
473.023	1	-4
474.215	1	12
475.408	1	4
476.601	1	1
477.793	1	0
478.986	1	-8
480.179	1	-2
481.371	1	11
482.564	1	4
483.756	1	7
484.948	1	-3
486.141	1	-7
487.333	1	4
488.525	1	0
489.718	1	-1
490.910	1	1
492.102	1	-7
493.294	1	1
494.486	1	2
495.678	1	-8
496.870	1	4
498.062	1	1
499.254	1	4
500.446	1	-7
501.638	1	-1
502.829	1	2
504.021	1	4
505.213	1	13
506.404	1	6
507.596	1	7
508.788	1	13
509.979	1	-2
511.171	1	-7
512.362	1	7
513.553	1	-6
514.745	1	-2
515.936	1	-3
517.127	1	2
518.319	1	-1
519.510	1	-3
520.701	1	3
521.892	1	6
523.083	1	-1
524.274	1	1
525.465	1	9
526.656	1	1
527.847	1	10
529.038	1	3
530.229	1	7
531.419	1	2
532.610	1	-1
533.801	1	12
534.991	1	8
536.182	1	8
537.373	1	7
538.563	1	13
539.754	1	5
540.944	1	1
542.134	1	10
543.325	1	1
544.515	1	3
545.705	1	5
546.896	1	0
548.086	1	0
549.276	1	-4
550.466	1	7
551.656	1	3
552.846	1	9
554.036	1	-1
555.226	1	-5
556.416	1	-8
557.606	1	4
558.796	1	1
559.986	1	2
561.175	1	6
562.365	1	7
563.555	1	2
564.744	1	6
565.934	1	12
567.123	1	8
568.313	1	13
569.502	1	-2
570.692	1	4
571.881	1	13
573.070	1	0
574.260	1	5
575.449	1	-4
576.638	1	1
577.827	1	3
579.016	1	-1
580.205	1	2
581.394	1	0
582.583	1	4
583.772	1	6
584.961	1	14
586.150	1	3
587.339	1	4
588.528	1	-2
589.717	1	2
590.905	1	7
592.094	1	1
593.283	1	-2
594.471	1	9
595.660	1	-1
596.848	1	2
598.037	1	3
599.225	1	-9
600.413	1	9
601.602	1	7
602.790	1	0
603.978	1	-3
605.166	1	-1
606.355	1	5
607.543	1	6
608.731	1	-7
609.919	1	9
611.107	1	2
612.295	1	2
613.483	1	8
614.671	1	11
615.858	1	7
617.046	1	3
618.234	1	-2
619.422	1	-2
620.609	1	6
621.797	1	-3
622.985	1	-1
624.172	1	8
625.360	1	6
626.547	1	-2
627.735	1	10
628.922	1	8
630.109	1	-7
631.297	1	3
632.484	1	-1
633.671	1	-6
634.858	1	5
636.045	1	6
637.232	1	-5
638.419	1	1
639.606	1	4
640.793	1	0
641.980	1	7
643.167	1	-11
644.354	1	-2
645.541	1	7
646.728	1	-3
647.914	1	-5
649.101	1	-12
650.288	1	10
651.474	1	-1
652.661	1	-1
653.847	1	12
655.034	1	1
656.220	1	-8
657.406	1	2
658.593	1	6
659.779	1	6
660.965	1	5
662.152	1	11
663.338	1	13
664.524	1	4
665.710	1	7
666.896	1	7
668.082	1	3
669.268	1	-4
670.454	1	5
671.640	1	0
672.826	1	-2
674.011	1	6
675.197	1	-11
676.383	1	2
677.569	1	-4
678.754	1	0
679.940	1	-2
681.125	1	6
682.311	1	6
683.496	1	-1
684.682	1	-7
685.867	1	-5
687.053	1	-1
688.238	1	0
688.746	1	0

File: GaN_sample F_spot 12_UVVIS_200 K_200um_800 ms 2x2mm1_226.txt
340.368	1	4
341.565	1	-5
342.763	1	-2
343.960	1	8
345.157	1	-3
346.354	1	3
347.552	1	-7
348.749	1	-7
349.946	1	-1
351.143	1	-1
352.340	1	5
353.537	1	9
354.734	1	7
355.931	1	2
357.127	1	2
358.324	1	8
359.521	1	12
360.718	1	7
361.914	1	9
363.111	1	10
364.308	1	4
365.504	1	18
366.701	1	11
367.897	1	29
369.093	1	29
370.290	1	23
371.486	1	35
372.682	1	24
373.879	1	16
375.075	1	8
376.271	1	15
377.467	1	9
378.663	1	7
379.859	1	11
381.055	1	15
382.251	1	4
383.447	1	3
384.643	1	19
385.839	1	-3
387.035	1	2
388.230	1	13
389.426	1	5
390.622	1	-4
391.817	1	10
393.013	1	4
394.208	1	4
395.404	1	1
396.599	1	-4
397.795	1	2
398.990	1	2
400.186	1	-5
401.381	1	-6
402.576	1	-3
403.771	1	1
404.967	1	1
406.162	1	15
407.357	1	1
408.552	1	-6
409.747	1	-3
410.942	1	12
412.137	1	7
413.332	1	8
414.526	1	-1
415.721	1	-5
416.916	1	-4
418.111	1	-5
419.305	1	3
420.500	1	3
421.695	1	0
422.889	1	-13
424.084	1	-1
425.278	1	4
426.472	1	-2
427.667	1	8
428.861	1	-7
430.055	1	5
431.250	1	-4
432.444	1	0
433.638	1	-2
434.832	1	-1
436.026	1	9
437.220	1	6
438.414	1	-9
439.608	1	-8
440.802	1	-4
441.996	1	-5
443.190	1	4
444.384	1	-1
445.578	1	-6
446.771	1	8
447.965	1	-1
449.159	1	0
450.352	1	10
451.546	1	7
452.739	1	6
453.933	1	-7
455.126	1	-5
456.320	1	4
457.513	1	4
458.706	1	-2
459.899	1	-11
461.093	1	-4
462.286	1	2
463.479	1	-2
464.672	1	-2
465.865	1	-5
467.058	1	0
468.251	1	0
469.444	1	-9
470.637	1	4
471.830	1	-10
473.023	1	0
474.215	1	17
475.408	1	-9
476.601	1	6
477.793	1	1
478.986	1	-3
480.179	1	5
481.371	1	6
482.564	1	1
483.756	1	9
484.948	1	-1
486.141	1	-6
487.333	1	-1
488.525	1	0
489.718	1	3
490.910	1	2
492.102	1	-4
493.294	1	-8
494.486	1	8
495.678	1	-3
496.870	1	-2
498.062	1	3
499.254	1	-13
500.446	1	-8
501.638	1	-3
502.829	1	8
504.021	1	-2
505.213	1	7
506.404	1	1
507.596	1	6
508.788	1	9
509.979	1	8
511.171	1	-5
512.362	1	-5
513.553	1	-8
514.745	1	-6
515.936	1	-1
517.127	1	-2
518.319	1	-10
519.510	1	7
520.701	1	-1
521.892	1	-1
523.083	1	2
524.274	1	2
525.465	1	4
526.656	1	1
527.847	1	10
529.038	1	6
530.229	1	4
531.419	1	9
532.610	1	-3
533.801	1	15
534.991	1	0
536.182	1	3
537.373	1	-2
538.563	1	13
539.754	1	10
540.944	1	4
542.134	1	7
543.325	1	-1
544.515	1	5
545.705	1	-9
546.896	1	-4
548.086	1	7
549.276	1	5
550.466	1	7
551.656	1	6
552.846	1	7
554.036	1	1
555.226	1	-2
556.416	1	-3
557.606	1	4
558.796	1	9
559.986	1	2
561.175	1	1
562.365	1	1
563.555	1	6
564.744	1	10
565.934	1	10
567.123	1	10
568.313	1	8
569.502	1	9
570.692	1	6
571.881	1	18
573.070	1	0
574.260	1	9
575.449	1	-7
576.638	1	-6
577.827	1	-3
579.016	1	11
580.205	1	5
581.394	1	4
582.583	1	20
583.772	1	12
584.961	1	-1
586.150	1	9
587.339	1	12
588.528	1	10
589.717	1	5
590.905	1	-2
592.094	1	1
593.283	1	6
594.471	1	10
595.660	1	2
596.848	1	-1
598.037	1	7
599.225	1	5
600.413	1	11
601.602	1	16
602.790	1	9
603.978	1	1
605.166	1	2
606.355	1	5
607.543	1	-1
608.731	1	-4
609.919	1	13
611.107	1	1
612.295	1	-3
613.483	1	0
614.671	1	5
615.858	1	7
617.046	1	2
618.234	1	6
619.422	1	-5
620.609	1	2
621.797	1	-2
622.985	1	7
624.172	1	-6
625.360	1	8
626.547	1	4
627.735	1	-2
628.922	1	-1
630.109	1	-4
631.297	1	-1
632.484	1	-6
633.671	1	0
634.858	1	2
636.045	1	8
637.232	1	1
638.419	1	3
639.606	1	4
640.793	1	11
641.980	1	5
643.167	1	-8
644.354	1	10
645.541	1	0
646.728	1	2
647.914	1	2
649.101	1	2
650.288	1	10
651.474	1	-1
652.661	1	-5
653.847	1	5
655.034	1	6
656.220	1	-5
657.406	1	9
658.593	1	15
659.779	1	9
660.965	1	10
662.152	1	-1
663.338	1	15
664.524	1	-5
665.710	1	8
666.896	1	1
668.082	1	6
669.268	1	0
670.454	1	0
671.640	1	-1
672.826	1	8
674.011	1	-5
675.197	1	-8
676.383	1	4
677.569	1	0
678.754	1	-2
679.940	1	5
681.125	1	3
682.311	1	8
683.496	1	3
684.682	1	0
685.867	1	5
687.053	1	3
688.238	1	5
688.746	1	0

File: GaN_sample F_spot 12_UVVIS_200 K_200um_800 ms 2x2mm1_227.txt
340.368	1	0
341.565	1	-8
342.763	1	3
343.960	1	2
345.157	1	1
346.354	1	10
347.552	1	2
348.749	1	1
349.946	1	-2
351.143	1	-5
352.340	1	4
353.537	1	10
354.734	1	9
355.931	1	1
357.127	1	5
358.324	1	-3
359.521	1	19
360.718	1	1
361.914	1	17
363.111	1	13
364.308	1	15
365.504	1	17
366.701	1	17
367.897	1	32
369.093	1	27
370.290	1	18
371.486	1	34
372.682	1	29
373.879	1	16
375.075	1	12
376.271	1	11
377.467	1	14
378.663	1	9
379.859	1	11
381.055	1	18
382.251	1	1
383.447	1	-1
384.643	1	12
385.839	1	9
387.035	1	9
388.230	1	10
389.426	1	-3
390.622	1	-1
391.817	1	4
393.013	1	5
394.208	1	0
395.404	1	-3
396.599	1	-1
397.795	1	5
398.990	1	0
400.186	1	1
401.381	1	-5
402.576	1	-10
403.771	1	11
404.967	1	-4
406.162	1	7
407.357	1	0
408.552	1	-6
409.747	1	-1
410.942	1	4
412.137	1	9
413.332	1	1
414.526	1	-4
415.721	1	-4
416.916	1	-6
418.111	1	-1
419.305	1	2
420.500	1	-7
421.695	1	3
422.889	1	-13
424.084	1	6
425.278	1	9
426.472	1	-1
427.667	1	8
428.861	1	-12
430.055	1	-2
431.250	1	0
432.444	1	5
433.638	1	-8
434.832	1	3
436.026	1	6
437.220	1	-2
438.414	1	-2
439.608	1	-4
440.802	1	2
441.996	1	8
443.190	1	-11
444.384	1	-3
445.578	1	-7
446.771	1	6
447.965	1	0
449.159	1	-7
450.352	1	8
451.546	1	4
452.739	1	-2
453.933	1	3
455.126	1	-8
456.320	1	-5
457.513	1	-2
458.706	1	3
459.899	1	-4
461.093	1	-2
462.286	1	-2
463.479	1	-2
464.672	1	-3
465.865	1	-5
467.058	1	1
468.251	1	-4
469.444	1	10
470.637	1	4
471.830	1	-9
473.023	1	4
474.215	1	5
475.408	1	0
476.601	1	2
477.793	1	-5
478.986	1	4
480.179	1	-2
481.371	1	8
482.564	1	-7
483.756	1	10
484.948	1	-4
486.141	1	-2
487.333	1	7
488.525	1	11
489.718	1	-6
490.910	1	2
492.102	1	-9
493.294	1	-4
494.486	1	3
495.678	1	-1
496.870	1	10
498.062	1	0
499.254	1	1
500.446	1	-8
501.638	1	-12
502.829	1	-2
504.021	1	-3
505.213	1	3
506.404	1	6
507.596	1	0
508.788	1	13
509.979	1	-3
511.171	1	-5
512.362	1	3
513.553	1	-10
514.745	1	-4
515.936	1	-9
517.127	1	-5
518.319	1	-3
519.510	1	8
520.701	1	-6
521.892	1	2
523.083	1	2
524.274	1	1
525.465	1	-1
526.656	1	5
527.847	1	8
529.038	1	-4
530.229	1	0
531.419	1	12
532.610	1	-2
533.801	1	13
534.991	1	7
536.182	1	9
537.373	1	10
538.563	1	8
539.754	1	6
540.944	1	-3
542.134	1	12
543.325	1	-2
544.515	1	8
545.705	1	12
546.896	1	1
548.086	1	6
549.276	1	-2
550.466	1	0
551.656	1	17
552.846	1	8
554.036	1	0
555.226	1	3
556.416	1	-2
557.606	1	5
558.796	1	5
559.986	1	1
561.175	1	-5
562.365	1	8
563.555	1	-2
564.744	1	-3
565.934	1	15
567.123	1	3
568.313	1	11
569.502	1	-10
570.692	1	9
571.881	1	17
573.070	1	-3
574.260	1	10
575.449	1	5
576.638	1	-4
577.827	1	-3
579.016	1	13
580.205	1	0
581.394	1	-3
582.583	1	15
583.772	1	16
584.961	1	6
586.150	1	6
587.339	1	1
588.528	1	8
589.717	1	1
590.905	1	-5
592.094	1	1
593.283	1	1
594.471	1	16
595.660	1	-1
596.848	1	8
598.037	1	-1
599.225	1	-9
600.413	1	9
601.602	1	12
602.790	1	8
603.978	1	-1
605.166	1	-1
606.355	1	8
607.543	1	1
608.731	1	1
609.919	1	12
611.107	1	0
612.295	1	8
613.483	1	3
614.671	1	4
615.858	1	4
617.046	1	4
618.234	1	6
619.422	1	-4
620.609	1	3
621.797	1	-6
622.985	1	2
624.172	1	-3
625.360	1	5
626.547	1	-2
627.735	1	6
628.922	1	0
630.109	1	-7
631.297	1	4
632.484	1	-3
633.671	1	1
634.858	1	-8
636.045	1	5
637.232	1	3
638.419	1	-2
639.606	1	8
640.793	1	17
641.980	1	15
643.167	1	-1
644.354	1	6
645.541	1	9
646.728	1	0
647.914	1	-5
649.101	1	2
650.288	1	4
651.474	1	-1
652.661	1	-2
653.847	1	7
655.034	1	5
656.220	1	-6
657.406	1	7
658.593	1	7
659.779	1	1
660.965	1	9
662.152	1	3
663.338	1	7
664.524	1	11
665.710	1	7
666.896	1	-1
668.082	1	7
669.268	1	3
670.454	1	1
671.640	1	1
672.826	1	-4
674.011	1	-1
675.197	1	-3
676.383	1	3
677.569	1	2
678.754	1	-7
679.940	1	-5
681.125	1	-4
682.311	1	1
683.496	1	-2
684.682	1	0
685.867	1	0
687.053	1	1
688.238	1	-6
688.746	1	-3