Folder: cryo-il_analysis/Data/GaN_200K_800ms (part 16)

File: GaN_sample F_spot 12_UVVIS_200 K_200um_800 ms 2x2mm1_113.txt
340.368	1	14
341.565	1	-8
342.763	1	11
343.960	1	3
345.157	1	-7
346.354	1	2
347.552	1	-10
348.749	1	0
349.946	1	1
351.143	1	10
352.340	1	1
353.537	1	8
354.734	1	5
355.931	1	4
357.127	1	6
358.324	1	11
359.521	1	15
360.718	1	16
361.914	1	28
363.111	1	22
364.308	1	28
365.504	1	54
366.701	1	57
367.897	1	62
369.093	1	85
370.290	1	80
371.486	1	77
372.682	1	65
373.879	1	52
375.075	1	55
376.271	1	50
377.467	1	31
378.663	1	28
379.859	1	27
381.055	1	21
382.251	1	5
383.447	1	15
384.643	1	24
385.839	1	19
387.035	1	12
388.230	1	16
389.426	1	9
390.622	1	10
391.817	1	10
393.013	1	5
394.208	1	9
395.404	1	2
396.599	1	2
397.795	1	16
398.990	1	6
400.186	1	10
401.381	1	3
402.576	1	2
403.771	1	10
404.967	1	3
406.162	1	13
407.357	1	1
408.552	1	-10
409.747	1	5
410.942	1	9
412.137	1	9
413.332	1	5
414.526	1	-1
415.721	1	7
416.916	1	-2
418.111	1	6
419.305	1	8
420.500	1	-4
421.695	1	4
422.889	1	2
424.084	1	2
425.278	1	7
426.472	1	-8
427.667	1	10
428.861	1	-1
430.055	1	-1
431.250	1	9
432.444	1	8
433.638	1	-4
434.832	1	0
436.026	1	3
437.220	1	4
438.414	1	-14
439.608	1	-5
440.802	1	-6
441.996	1	2
443.190	1	7
444.384	1	-5
445.578	1	-9
446.771	1	12
447.965	1	-2
449.159	1	-4
450.352	1	1
451.546	1	14
452.739	1	5
453.933	1	-3
455.126	1	1
456.320	1	6
457.513	1	11
458.706	1	0
459.899	1	6
461.093	1	6
462.286	1	1
463.479	1	1
464.672	1	10
465.865	1	1
467.058	1	3
468.251	1	8
469.444	1	-9
470.637	1	-7
471.830	1	4
473.023	1	4
474.215	1	11
475.408	1	3
476.601	1	4
477.793	1	2
478.986	1	-1
480.179	1	1
481.371	1	10
482.564	1	8
483.756	1	13
484.948	1	-2
486.141	1	-1
487.333	1	6
488.525	1	3
489.718	1	-1
490.910	1	2
492.102	1	1
493.294	1	-1
494.486	1	2
495.678	1	11
496.870	1	7
498.062	1	6
499.254	1	4
500.446	1	-5
501.638	1	-8
502.829	1	0
504.021	1	8
505.213	1	16
506.404	1	14
507.596	1	7
508.788	1	14
509.979	1	0
511.171	1	8
512.362	1	-2
513.553	1	-10
514.745	1	0
515.936	1	1
517.127	1	7
518.319	1	13
519.510	1	9
520.701	1	10
521.892	1	8
523.083	1	5
524.274	1	9
525.465	1	13
526.656	1	8
527.847	1	4
529.038	1	5
530.229	1	5
531.419	1	11
532.610	1	11
533.801	1	21
534.991	1	-1
536.182	1	9
537.373	1	12
538.563	1	8
539.754	1	19
540.944	1	4
542.134	1	7
543.325	1	5
544.515	1	2
545.705	1	11
546.896	1	14
548.086	1	16
549.276	1	3
550.466	1	13
551.656	1	23
552.846	1	5
554.036	1	17
555.226	1	4
556.416	1	6
557.606	1	20
558.796	1	18
559.986	1	-7
561.175	1	12
562.365	1	21
563.555	1	13
564.744	1	4
565.934	1	9
567.123	1	12
568.313	1	17
569.502	1	9
570.692	1	11
571.881	1	18
573.070	1	6
574.260	1	15
575.449	1	8
576.638	1	0
577.827	1	1
579.016	1	14
580.205	1	16
581.394	1	14
582.583	1	15
583.772	1	11
584.961	1	13
586.150	1	13
587.339	1	15
588.528	1	9
589.717	1	11
590.905	1	13
592.094	1	8
593.283	1	4
594.471	1	12
595.660	1	6
596.848	1	1
598.037	1	7
599.225	1	3
600.413	1	20
601.602	1	12
602.790	1	11
603.978	1	7
605.166	1	11
606.355	1	9
607.543	1	3
608.731	1	8
609.919	1	19
611.107	1	9
612.295	1	6
613.483	1	4
614.671	1	17
615.858	1	13
617.046	1	11
618.234	1	8
619.422	1	0
620.609	1	9
621.797	1	13
622.985	1	6
624.172	1	-1
625.360	1	1
626.547	1	14
627.735	1	8
628.922	1	8
630.109	1	-8
631.297	1	4
632.484	1	8
633.671	1	-1
634.858	1	3
636.045	1	6
637.232	1	2
638.419	1	3
639.606	1	6
640.793	1	9
641.980	1	6
643.167	1	2
644.354	1	9
645.541	1	12
646.728	1	8
647.914	1	5
649.101	1	3
650.288	1	13
651.474	1	4
652.661	1	1
653.847	1	20
655.034	1	5
656.220	1	-3
657.406	1	5
658.593	1	3
659.779	1	3
660.965	1	8
662.152	1	4
663.338	1	14
664.524	1	1
665.710	1	13
666.896	1	-1
668.082	1	5
669.268	1	11
670.454	1	-3
671.640	1	5
672.826	1	0
674.011	1	3
675.197	1	-12
676.383	1	17
677.569	1	0
678.754	1	1
679.940	1	8
681.125	1	6
682.311	1	13
683.496	1	9
684.682	1	-6
685.867	1	7
687.053	1	6
688.238	1	7
688.746	1	1

File: GaN_sample F_spot 12_UVVIS_200 K_200um_800 ms 2x2mm1_114.txt
340.368	1	11
341.565	1	-13
342.763	1	0
343.960	1	-7
345.157	1	3
346.354	1	4
347.552	1	-4
348.749	1	-2
349.946	1	-2
351.143	1	-2
352.340	1	-2
353.537	1	-2
354.734	1	12
355.931	1	3
357.127	1	8
358.324	1	12
359.521	1	10
360.718	1	19
361.914	1	24
363.111	1	22
364.308	1	41
365.504	1	46
366.701	1	54
367.897	1	78
369.093	1	73
370.290	1	68
371.486	1	66
372.682	1	69
373.879	1	51
375.075	1	45
376.271	1	49
377.467	1	35
378.663	1	30
379.859	1	30
381.055	1	29
382.251	1	1
383.447	1	18
384.643	1	18
385.839	1	12
387.035	1	16
388.230	1	15
389.426	1	1
390.622	1	-1
391.817	1	15
393.013	1	-6
394.208	1	1
395.404	1	-2
396.599	1	7
397.795	1	5
398.990	1	4
400.186	1	14
401.381	1	4
402.576	1	2
403.771	1	12
404.967	1	7
406.162	1	15
407.357	1	6
408.552	1	3
409.747	1	2
410.942	1	13
412.137	1	7
413.332	1	7
414.526	1	0
415.721	1	2
416.916	1	-1
418.111	1	3
419.305	1	-2
420.500	1	-8
421.695	1	-2
422.889	1	-5
424.084	1	2
425.278	1	7
426.472	1	1
427.667	1	3
428.861	1	2
430.055	1	2
431.250	1	3
432.444	1	4
433.638	1	0
434.832	1	13
436.026	1	8
437.220	1	-1
438.414	1	0
439.608	1	-8
440.802	1	0
441.996	1	7
443.190	1	2
444.384	1	-3
445.578	1	-6
446.771	1	14
447.965	1	2
449.159	1	-4
450.352	1	4
451.546	1	-1
452.739	1	3
453.933	1	5
455.126	1	-10
456.320	1	-1
457.513	1	9
458.706	1	5
459.899	1	-2
461.093	1	3
462.286	1	7
463.479	1	-6
464.672	1	-3
465.865	1	0
467.058	1	0
468.251	1	10
469.444	1	1
470.637	1	16
471.830	1	-1
473.023	1	5
474.215	1	8
475.408	1	-3
476.601	1	5
477.793	1	5
478.986	1	-5
480.179	1	6
481.371	1	4
482.564	1	3
483.756	1	12
484.948	1	-9
486.141	1	-8
487.333	1	-3
488.525	1	6
489.718	1	15
490.910	1	2
492.102	1	-7
493.294	1	-6
494.486	1	7
495.678	1	5
496.870	1	10
498.062	1	3
499.254	1	8
500.446	1	4
501.638	1	5
502.829	1	-4
504.021	1	11
505.213	1	8
506.404	1	-1
507.596	1	12
508.788	1	14
509.979	1	-2
511.171	1	10
512.362	1	9
513.553	1	-9
514.745	1	-2
515.936	1	5
517.127	1	7
518.319	1	11
519.510	1	5
520.701	1	5
521.892	1	12
523.083	1	3
524.274	1	10
525.465	1	9
526.656	1	3
527.847	1	15
529.038	1	5
530.229	1	5
531.419	1	9
532.610	1	5
533.801	1	15
534.991	1	12
536.182	1	5
537.373	1	8
538.563	1	18
539.754	1	12
540.944	1	5
542.134	1	13
543.325	1	12
544.515	1	6
545.705	1	5
546.896	1	7
548.086	1	8
549.276	1	0
550.466	1	21
551.656	1	12
552.846	1	15
554.036	1	10
555.226	1	3
556.416	1	1
557.606	1	14
558.796	1	10
559.986	1	-3
561.175	1	19
562.365	1	14
563.555	1	-1
564.744	1	17
565.934	1	18
567.123	1	8
568.313	1	7
569.502	1	12
570.692	1	15
571.881	1	20
573.070	1	3
574.260	1	14
575.449	1	3
576.638	1	10
577.827	1	9
579.016	1	17
580.205	1	8
581.394	1	2
582.583	1	20
583.772	1	12
584.961	1	19
586.150	1	5
587.339	1	8
588.528	1	17
589.717	1	13
590.905	1	6
592.094	1	11
593.283	1	17
594.471	1	29
595.660	1	5
596.848	1	6
598.037	1	-2
599.225	1	-5
600.413	1	15
601.602	1	20
602.790	1	13
603.978	1	6
605.166	1	13
606.355	1	6
607.543	1	19
608.731	1	8
609.919	1	14
611.107	1	4
612.295	1	6
613.483	1	9
614.671	1	9
615.858	1	10
617.046	1	12
618.234	1	3
619.422	1	1
620.609	1	14
621.797	1	3
622.985	1	7
624.172	1	8
625.360	1	7
626.547	1	0
627.735	1	12
628.922	1	8
630.109	1	-3
631.297	1	7
632.484	1	1
633.671	1	-1
634.858	1	6
636.045	1	3
637.232	1	8
638.419	1	5
639.606	1	11
640.793	1	15
641.980	1	19
643.167	1	-4
644.354	1	8
645.541	1	5
646.728	1	-2
647.914	1	9
649.101	1	5
650.288	1	10
651.474	1	-2
652.661	1	9
653.847	1	10
655.034	1	-1
656.220	1	6
657.406	1	6
658.593	1	5
659.779	1	1
660.965	1	7
662.152	1	12
663.338	1	7
664.524	1	8
665.710	1	6
666.896	1	4
668.082	1	4
669.268	1	7
670.454	1	-2
671.640	1	9
672.826	1	1
674.011	1	5
675.197	1	-3
676.383	1	9
677.569	1	5
678.754	1	10
679.940	1	5
681.125	1	13
682.311	1	10
683.496	1	10
684.682	1	0
685.867	1	4
687.053	1	9
688.238	1	8
688.746	1	1

File: GaN_sample F_spot 12_UVVIS_200 K_200um_800 ms 2x2mm1_115.txt
340.368	1	9
341.565	1	-8
342.763	1	13
343.960	1	-2
345.157	1	-4
346.354	1	3
347.552	1	3
348.749	1	-7
349.946	1	3
351.143	1	8
352.340	1	12
353.537	1	9
354.734	1	5
355.931	1	6
357.127	1	5
358.324	1	6
359.521	1	15
360.718	1	17
361.914	1	19
363.111	1	25
364.308	1	35
365.504	1	58
366.701	1	62
367.897	1	69
369.093	1	84
370.290	1	72
371.486	1	80
372.682	1	66
373.879	1	59
375.075	1	45
376.271	1	41
377.467	1	44
378.663	1	16
379.859	1	34
381.055	1	33
382.251	1	11
383.447	1	24
384.643	1	10
385.839	1	10
387.035	1	19
388.230	1	14
389.426	1	8
390.622	1	14
391.817	1	11
393.013	1	12
394.208	1	5
395.404	1	-8
396.599	1	0
397.795	1	-1
398.990	1	0
400.186	1	-1
401.381	1	-4
402.576	1	2
403.771	1	7
404.967	1	1
406.162	1	6
407.357	1	-7
408.552	1	-1
409.747	1	6
410.942	1	13
412.137	1	3
413.332	1	6
414.526	1	2
415.721	1	7
416.916	1	-5
418.111	1	5
419.305	1	9
420.500	1	-6
421.695	1	-5
422.889	1	0
424.084	1	4
425.278	1	16
426.472	1	4
427.667	1	8
428.861	1	1
430.055	1	4
431.250	1	9
432.444	1	10
433.638	1	-1
434.832	1	7
436.026	1	0
437.220	1	5
438.414	1	-6
439.608	1	-11
440.802	1	-1
441.996	1	6
443.190	1	-6
444.384	1	-2
445.578	1	-7
446.771	1	8
447.965	1	6
449.159	1	-5
450.352	1	-1
451.546	1	5
452.739	1	0
453.933	1	0
455.126	1	-10
456.320	1	-2
457.513	1	10
458.706	1	2
459.899	1	10
461.093	1	-2
462.286	1	5
463.479	1	0
464.672	1	1
465.865	1	7
467.058	1	-5
468.251	1	3
469.444	1	-14
470.637	1	9
471.830	1	-2
473.023	1	10
474.215	1	13
475.408	1	0
476.601	1	12
477.793	1	3
478.986	1	-4
480.179	1	7
481.371	1	5
482.564	1	9
483.756	1	13
484.948	1	-4
486.141	1	0
487.333	1	-3
488.525	1	6
489.718	1	5
490.910	1	3
492.102	1	-1
493.294	1	7
494.486	1	4
495.678	1	5
496.870	1	17
498.062	1	-1
499.254	1	2
500.446	1	-10
501.638	1	-2
502.829	1	8
504.021	1	11
505.213	1	17
506.404	1	7
507.596	1	-7
508.788	1	14
509.979	1	-9
511.171	1	3
512.362	1	3
513.553	1	-5
514.745	1	2
515.936	1	8
517.127	1	13
518.319	1	2
519.510	1	4
520.701	1	8
521.892	1	6
523.083	1	-1
524.274	1	12
525.465	1	13
526.656	1	16
527.847	1	5
529.038	1	22
530.229	1	12
531.419	1	4
532.610	1	2
533.801	1	27
534.991	1	3
536.182	1	12
537.373	1	12
538.563	1	15
539.754	1	14
540.944	1	14
542.134	1	16
543.325	1	6
544.515	1	4
545.705	1	10
546.896	1	2
548.086	1	2
549.276	1	14
550.466	1	8
551.656	1	14
552.846	1	14
554.036	1	11
555.226	1	6
556.416	1	16
557.606	1	19
558.796	1	15
559.986	1	2
561.175	1	7
562.365	1	10
563.555	1	7
564.744	1	11
565.934	1	22
567.123	1	20
568.313	1	14
569.502	1	14
570.692	1	9
571.881	1	24
573.070	1	10
574.260	1	15
575.449	1	6
576.638	1	10
577.827	1	5
579.016	1	15
580.205	1	14
581.394	1	0
582.583	1	24
583.772	1	18
584.961	1	8
586.150	1	13
587.339	1	15
588.528	1	11
589.717	1	15
590.905	1	13
592.094	1	17
593.283	1	8
594.471	1	22
595.660	1	15
596.848	1	8
598.037	1	9
599.225	1	1
600.413	1	7
601.602	1	9
602.790	1	5
603.978	1	8
605.166	1	24
606.355	1	8
607.543	1	8
608.731	1	-1
609.919	1	19
611.107	1	2
612.295	1	9
613.483	1	12
614.671	1	11
615.858	1	8
617.046	1	13
618.234	1	-5
619.422	1	1
620.609	1	11
621.797	1	13
622.985	1	10
624.172	1	6
625.360	1	4
626.547	1	11
627.735	1	13
628.922	1	12
630.109	1	1
631.297	1	5
632.484	1	3
633.671	1	-2
634.858	1	10
636.045	1	13
637.232	1	-2
638.419	1	0
639.606	1	18
640.793	1	15
641.980	1	14
643.167	1	1
644.354	1	3
645.541	1	12
646.728	1	3
647.914	1	7
649.101	1	14
650.288	1	0
651.474	1	0
652.661	1	7
653.847	1	14
655.034	1	18
656.220	1	-3
657.406	1	7
658.593	1	11
659.779	1	5
660.965	1	10
662.152	1	4
663.338	1	10
664.524	1	3
665.710	1	4
666.896	1	-7
668.082	1	2
669.268	1	5
670.454	1	2
671.640	1	14
672.826	1	8
674.011	1	8
675.197	1	-4
676.383	1	2
677.569	1	-5
678.754	1	1
679.940	1	-6
681.125	1	8
682.311	1	13
683.496	1	10
684.682	1	0
685.867	1	9
687.053	1	4
688.238	1	9
688.746	1	7

File: GaN_sample F_spot 12_UVVIS_200 K_200um_800 ms 2x2mm1_121.txt
340.368	1	0
341.565	1	-3
342.763	1	4
343.960	1	5
345.157	1	4
346.354	1	5
347.552	1	-1
348.749	1	-7
349.946	1	1
351.143	1	0
352.340	1	6
353.537	1	1
354.734	1	4
355.931	1	6
357.127	1	12
358.324	1	5
359.521	1	19
360.718	1	16
361.914	1	23
363.111	1	30
364.308	1	30
365.504	1	44
366.701	1	53
367.897	1	66
369.093	1	64
370.290	1	61
371.486	1	72
372.682	1	56
373.879	1	48
375.075	1	38
376.271	1	47
377.467	1	30
378.663	1	23
379.859	1	32
381.055	1	35
382.251	1	4
383.447	1	9
384.643	1	22
385.839	1	13
387.035	1	14
388.230	1	8
389.426	1	16
390.622	1	5
391.817	1	13
393.013	1	5
394.208	1	10
395.404	1	1
396.599	1	8
397.795	1	5
398.990	1	8
400.186	1	2
401.381	1	-5
402.576	1	4
403.771	1	10
404.967	1	5
406.162	1	10
407.357	1	-4
408.552	1	-4
409.747	1	3
410.942	1	5
412.137	1	3
413.332	1	6
414.526	1	5
415.721	1	3
416.916	1	-5
418.111	1	6
419.305	1	6
420.500	1	-5
421.695	1	5
422.889	1	-6
424.084	1	-2
425.278	1	9
426.472	1	0
427.667	1	13
428.861	1	-10
430.055	1	1
431.250	1	3
432.444	1	11
433.638	1	-1
434.832	1	6
436.026	1	6
437.220	1	2
438.414	1	-10
439.608	1	-10
440.802	1	2
441.996	1	6
443.190	1	1
444.384	1	-4
445.578	1	-12
446.771	1	18
447.965	1	-4
449.159	1	-4
450.352	1	-2
451.546	1	17
452.739	1	3
453.933	1	-3
455.126	1	-7
456.320	1	3
457.513	1	11
458.706	1	1
459.899	1	2
461.093	1	3
462.286	1	0
463.479	1	1
464.672	1	-5
465.865	1	6
467.058	1	1
468.251	1	0
469.444	1	-1
470.637	1	-2
471.830	1	0
473.023	1	4
474.215	1	13
475.408	1	-1
476.601	1	0
477.793	1	-3
478.986	1	6
480.179	1	12
481.371	1	8
482.564	1	-1
483.756	1	4
484.948	1	-8
486.141	1	10
487.333	1	6
488.525	1	6
489.718	1	11
490.910	1	-2
492.102	1	1
493.294	1	1
494.486	1	10
495.678	1	4
496.870	1	4
498.062	1	8
499.254	1	0
500.446	1	0
501.638	1	4
502.829	1	5
504.021	1	2
505.213	1	6
506.404	1	8
507.596	1	12
508.788	1	16
509.979	1	9
511.171	1	3
512.362	1	3
513.553	1	-2
514.745	1	-1
515.936	1	1
517.127	1	3
518.319	1	6
519.510	1	-2
520.701	1	11
521.892	1	4
523.083	1	11
524.274	1	9
525.465	1	11
526.656	1	8
527.847	1	8
529.038	1	6
530.229	1	0
531.419	1	13
532.610	1	-4
533.801	1	19
534.991	1	4
536.182	1	7
537.373	1	4
538.563	1	16
539.754	1	15
540.944	1	-1
542.134	1	14
543.325	1	14
544.515	1	6
545.705	1	-1
546.896	1	10
548.086	1	10
549.276	1	5
550.466	1	14
551.656	1	6
552.846	1	16
554.036	1	9
555.226	1	3
556.416	1	1
557.606	1	10
558.796	1	9
559.986	1	6
561.175	1	9
562.365	1	0
563.555	1	3
564.744	1	10
565.934	1	15
567.123	1	15
568.313	1	13
569.502	1	12
570.692	1	8
571.881	1	19
573.070	1	4
574.260	1	21
575.449	1	3
576.638	1	7
577.827	1	4
579.016	1	12
580.205	1	6
581.394	1	10
582.583	1	15
583.772	1	17
584.961	1	11
586.150	1	11
587.339	1	7
588.528	1	17
589.717	1	7
590.905	1	13
592.094	1	3
593.283	1	13
594.471	1	19
595.660	1	6
596.848	1	6
598.037	1	6
599.225	1	9
600.413	1	13
601.602	1	16
602.790	1	9
603.978	1	9
605.166	1	9
606.355	1	14
607.543	1	5
608.731	1	11
609.919	1	20
611.107	1	8
612.295	1	0
613.483	1	2
614.671	1	12
615.858	1	6
617.046	1	7
618.234	1	0
619.422	1	-2
620.609	1	3
621.797	1	4
622.985	1	4
624.172	1	-1
625.360	1	4
626.547	1	9
627.735	1	13
628.922	1	17
630.109	1	-3
631.297	1	8
632.484	1	0
633.671	1	5
634.858	1	7
636.045	1	13
637.232	1	1
638.419	1	0
639.606	1	2
640.793	1	20
641.980	1	9
643.167	1	-8
644.354	1	0
645.541	1	-5
646.728	1	9
647.914	1	9
649.101	1	2
650.288	1	8
651.474	1	-6
652.661	1	-3
653.847	1	16
655.034	1	3
656.220	1	-2
657.406	1	12
658.593	1	15
659.779	1	8
660.965	1	17
662.152	1	-5
663.338	1	13
664.524	1	3
665.710	1	5
666.896	1	2
668.082	1	0
669.268	1	-1
670.454	1	4
671.640	1	6
672.826	1	-2
674.011	1	2
675.197	1	4
676.383	1	3
677.569	1	1
678.754	1	2
679.940	1	-1
681.125	1	10
682.311	1	4
683.496	1	3
684.682	1	-4
685.867	1	4
687.053	1	7
688.238	1	11
688.746	1	7

File: GaN_sample F_spot 12_UVVIS_200 K_200um_800 ms 2x2mm1_123.txt
340.368	1	8
341.565	1	-3
342.763	1	14
343.960	1	11
345.157	1	-2
346.354	1	7
347.552	1	8
348.749	1	-2
349.946	1	-1
351.143	1	0
352.340	1	9
353.537	1	6
354.734	1	11
355.931	1	-2
357.127	1	8
358.324	1	20
359.521	1	11
360.718	1	16
361.914	1	18
363.111	1	18
364.308	1	32
365.504	1	37
366.701	1	54
367.897	1	63
369.093	1	66
370.290	1	55
371.486	1	71
372.682	1	70
373.879	1	44
375.075	1	43
376.271	1	37
377.467	1	42
378.663	1	32
379.859	1	24
381.055	1	25
382.251	1	13
383.447	1	11
384.643	1	22
385.839	1	13
387.035	1	14
388.230	1	9
389.426	1	4
390.622	1	5
391.817	1	10
393.013	1	1
394.208	1	1
395.404	1	-2
396.599	1	1
397.795	1	3
398.990	1	13
400.186	1	3
401.381	1	-6
402.576	1	0
403.771	1	5
404.967	1	13
406.162	1	8
407.357	1	3
408.552	1	3
409.747	1	-1
410.942	1	13
412.137	1	3
413.332	1	8
414.526	1	-5
415.721	1	-1
416.916	1	6
418.111	1	2
419.305	1	2
420.500	1	-8
421.695	1	-9
422.889	1	-7
424.084	1	3
425.278	1	12
426.472	1	3
427.667	1	10
428.861	1	-5
430.055	1	3
431.250	1	1
432.444	1	6
433.638	1	2
434.832	1	-1
436.026	1	7
437.220	1	12
438.414	1	-7
439.608	1	-4
440.802	1	-3
441.996	1	10
443.190	1	3
444.384	1	-4
445.578	1	-7
446.771	1	5
447.965	1	3
449.159	1	0
450.352	1	-1
451.546	1	0
452.739	1	-1
453.933	1	-1
455.126	1	-6
456.320	1	-7
457.513	1	-2
458.706	1	4
459.899	1	3
461.093	1	2
462.286	1	-1
463.479	1	3
464.672	1	1
465.865	1	-5
467.058	1	10
468.251	1	2
469.444	1	-2
470.637	1	4
471.830	1	1
473.023	1	1
474.215	1	16
475.408	1	1
476.601	1	4
477.793	1	3
478.986	1	0
480.179	1	11
481.371	1	1
482.564	1	3
483.756	1	10
484.948	1	-10
486.141	1	-6
487.333	1	8
488.525	1	3
489.718	1	12
490.910	1	11
492.102	1	-1
493.294	1	7
494.486	1	5
495.678	1	-2
496.870	1	10
498.062	1	9
499.254	1	0
500.446	1	-4
501.638	1	0
502.829	1	2
504.021	1	-3
505.213	1	13
506.404	1	8
507.596	1	-1
508.788	1	24
509.979	1	5
511.171	1	-8
512.362	1	0
513.553	1	-9
514.745	1	-3
515.936	1	4
517.127	1	1
518.319	1	-3
519.510	1	8
520.701	1	10
521.892	1	6
523.083	1	3
524.274	1	6
525.465	1	14
526.656	1	7
527.847	1	9
529.038	1	3
530.229	1	6
531.419	1	8
532.610	1	-5
533.801	1	13
534.991	1	8
536.182	1	5
537.373	1	3
538.563	1	8
539.754	1	16
540.944	1	4
542.134	1	10
543.325	1	11
544.515	1	7
545.705	1	3
546.896	1	5
548.086	1	-2
549.276	1	13
550.466	1	4
551.656	1	10
552.846	1	11
554.036	1	3
555.226	1	-1
556.416	1	8
557.606	1	12
558.796	1	9
559.986	1	6
561.175	1	13
562.365	1	16
563.555	1	-3
564.744	1	13
565.934	1	17
567.123	1	14
568.313	1	9
569.502	1	1
570.692	1	14
571.881	1	14
573.070	1	13
574.260	1	13
575.449	1	-5
576.638	1	6
577.827	1	7
579.016	1	20
580.205	1	-4
581.394	1	8
582.583	1	20
583.772	1	12
584.961	1	9
586.150	1	7
587.339	1	17
588.528	1	7
589.717	1	-3
590.905	1	0
592.094	1	-1
593.283	1	4
594.471	1	12
595.660	1	2
596.848	1	-5
598.037	1	-4
599.225	1	-4
600.413	1	15
601.602	1	11
602.790	1	8
603.978	1	10
605.166	1	13
606.355	1	10
607.543	1	3
608.731	1	5
609.919	1	9
611.107	1	-1
612.295	1	7
613.483	1	9
614.671	1	10
615.858	1	13
617.046	1	6
618.234	1	-4
619.422	1	-6
620.609	1	7
621.797	1	4
622.985	1	4
624.172	1	-2
625.360	1	9
626.547	1	1
627.735	1	8
628.922	1	15
630.109	1	-12
631.297	1	-1
632.484	1	1
633.671	1	0
634.858	1	-3
636.045	1	13
637.232	1	0
638.419	1	-2
639.606	1	7
640.793	1	14
641.980	1	3
643.167	1	4
644.354	1	-2
645.541	1	2
646.728	1	2
647.914	1	-4
649.101	1	-3
650.288	1	8
651.474	1	3
652.661	1	-2
653.847	1	8
655.034	1	7
656.220	1	-8
657.406	1	6
658.593	1	7
659.779	1	6
660.965	1	7
662.152	1	4
663.338	1	10
664.524	1	8
665.710	1	0
666.896	1	3
668.082	1	8
669.268	1	-3
670.454	1	8
671.640	1	8
672.826	1	3
674.011	1	4
675.197	1	4
676.383	1	6
677.569	1	-4
678.754	1	-3
679.940	1	0
681.125	1	0
682.311	1	7
683.496	1	6
684.682	1	-2
685.867	1	-11
687.053	1	-1
688.238	1	3
688.746	1	11

File: GaN_sample F_spot 12_UVVIS_200 K_200um_800 ms 2x2mm1_126.txt
340.368	1	5
341.565	1	-6
342.763	1	0
343.960	1	-5
345.157	1	1
346.354	1	-3
347.552	1	-1
348.749	1	-8
349.946	1	-5
351.143	1	-3
352.340	1	14
353.537	1	1
354.734	1	8
355.931	1	5
357.127	1	12
358.324	1	12
359.521	1	25
360.718	1	17
361.914	1	22
363.111	1	19
364.308	1	26
365.504	1	48
366.701	1	55
367.897	1	65
369.093	1	55
370.290	1	68
371.486	1	58
372.682	1	56
373.879	1	52
375.075	1	42
376.271	1	38
377.467	1	33
378.663	1	35
379.859	1	26
381.055	1	22
382.251	1	20
383.447	1	9
384.643	1	20
385.839	1	8
387.035	1	15
388.230	1	17
389.426	1	6
390.622	1	1
391.817	1	9
393.013	1	2
394.208	1	3
395.404	1	8
396.599	1	-2
397.795	1	-2
398.990	1	12
400.186	1	1
401.381	1	6
402.576	1	-2
403.771	1	7
404.967	1	5
406.162	1	8
407.357	1	1
408.552	1	6
409.747	1	-1
410.942	1	4
412.137	1	4
413.332	1	4
414.526	1	3
415.721	1	7
416.916	1	0
418.111	1	-3
419.305	1	-6
420.500	1	-4
421.695	1	-3
422.889	1	-6
424.084	1	5
425.278	1	8
426.472	1	7
427.667	1	6
428.861	1	1
430.055	1	1
431.250	1	-6
432.444	1	5
433.638	1	2
434.832	1	0
436.026	1	10
437.220	1	5
438.414	1	-4
439.608	1	-12
440.802	1	0
441.996	1	5
443.190	1	10
444.384	1	-11
445.578	1	-6
446.771	1	9
447.965	1	-4
449.159	1	-9
450.352	1	1
451.546	1	8
452.739	1	6
453.933	1	2
455.126	1	-4
456.320	1	10
457.513	1	-3
458.706	1	-1
459.899	1	4
461.093	1	-1
462.286	1	1
463.479	1	-4
464.672	1	0
465.865	1	-3
467.058	1	-1
468.251	1	4
469.444	1	-5
470.637	1	9
471.830	1	-1
473.023	1	6
474.215	1	7
475.408	1	5
476.601	1	-1
477.793	1	5
478.986	1	-3
480.179	1	-5
481.371	1	6
482.564	1	7
483.756	1	4
484.948	1	-3
486.141	1	-1
487.333	1	6
488.525	1	1
489.718	1	-2
490.910	1	1
492.102	1	-2
493.294	1	3
494.486	1	-1
495.678	1	1
496.870	1	-2
498.062	1	5
499.254	1	2
500.446	1	-12
501.638	1	-3
502.829	1	0
504.021	1	5
505.213	1	9
506.404	1	11
507.596	1	8
508.788	1	17
509.979	1	-1
511.171	1	4
512.362	1	-9
513.553	1	-1
514.745	1	-5
515.936	1	7
517.127	1	4
518.319	1	13
519.510	1	10
520.701	1	6
521.892	1	9
523.083	1	1
524.274	1	4
525.465	1	20
526.656	1	5
527.847	1	1
529.038	1	16
530.229	1	1
531.419	1	11
532.610	1	2
533.801	1	13
534.991	1	4
536.182	1	3
537.373	1	3
538.563	1	7
539.754	1	18
540.944	1	3
542.134	1	8
543.325	1	-4
544.515	1	4
545.705	1	1
546.896	1	0
548.086	1	8
549.276	1	8
550.466	1	4
551.656	1	19
552.846	1	8
554.036	1	12
555.226	1	-3
556.416	1	3
557.606	1	11
558.796	1	9
559.986	1	8
561.175	1	16
562.365	1	10
563.555	1	3
564.744	1	11
565.934	1	14
567.123	1	9
568.313	1	9
569.502	1	3
570.692	1	11
571.881	1	11
573.070	1	7
574.260	1	18
575.449	1	0
576.638	1	4
577.827	1	3
579.016	1	15
580.205	1	4
581.394	1	4
582.583	1	16
583.772	1	10
584.961	1	8
586.150	1	5
587.339	1	6
588.528	1	5
589.717	1	11
590.905	1	4
592.094	1	12
593.283	1	1
594.471	1	13
595.660	1	8
596.848	1	9
598.037	1	4
599.225	1	-3
600.413	1	12
601.602	1	11
602.790	1	7
603.978	1	0
605.166	1	16
606.355	1	11
607.543	1	9
608.731	1	4
609.919	1	8
611.107	1	5
612.295	1	-2
613.483	1	14
614.671	1	7
615.858	1	5
617.046	1	17
618.234	1	-3
619.422	1	6
620.609	1	4
621.797	1	-2
622.985	1	7
624.172	1	7
625.360	1	2
626.547	1	5
627.735	1	15
628.922	1	5
630.109	1	-2
631.297	1	3
632.484	1	-5
633.671	1	2
634.858	1	7
636.045	1	15
637.232	1	8
638.419	1	3
639.606	1	5
640.793	1	13
641.980	1	5
643.167	1	-8
644.354	1	2
645.541	1	9
646.728	1	-1
647.914	1	1
649.101	1	5
650.288	1	6
651.474	1	2
652.661	1	-1
653.847	1	16
655.034	1	0
656.220	1	-5
657.406	1	8
658.593	1	5
659.779	1	6
660.965	1	0
662.152	1	3
663.338	1	10
664.524	1	2
665.710	1	8
666.896	1	2
668.082	1	-1
669.268	1	3
670.454	1	-2
671.640	1	5
672.826	1	-8
674.011	1	4
675.197	1	3
676.383	1	1
677.569	1	-2
678.754	1	3
679.940	1	8
681.125	1	2
682.311	1	14
683.496	1	1
684.682	1	-2
685.867	1	5
687.053	1	13
688.238	1	8
688.746	1	6