Folder: cryo-il_analysis/Data/GaN_200K_800ms (part 28)

File: GaN_sample F_spot 12_UVVIS_200 K_200um_800 ms 2x2mm1_263.txt
340.368	1	10
341.565	1	-8
342.763	1	7
343.960	1	-7
345.157	1	-8
346.354	1	-3
347.552	1	-12
348.749	1	-6
349.946	1	-6
351.143	1	-2
352.340	1	2
353.537	1	4
354.734	1	10
355.931	1	-5
357.127	1	-1
358.324	1	-2
359.521	1	12
360.718	1	-2
361.914	1	6
363.111	1	4
364.308	1	10
365.504	1	19
366.701	1	18
367.897	1	19
369.093	1	15
370.290	1	23
371.486	1	21
372.682	1	25
373.879	1	12
375.075	1	5
376.271	1	11
377.467	1	13
378.663	1	6
379.859	1	2
381.055	1	11
382.251	1	2
383.447	1	1
384.643	1	8
385.839	1	2
387.035	1	9
388.230	1	14
389.426	1	0
390.622	1	-3
391.817	1	5
393.013	1	-1
394.208	1	-4
395.404	1	-5
396.599	1	1
397.795	1	4
398.990	1	-2
400.186	1	-2
401.381	1	-8
402.576	1	0
403.771	1	-1
404.967	1	8
406.162	1	8
407.357	1	-6
408.552	1	-8
409.747	1	-5
410.942	1	0
412.137	1	10
413.332	1	1
414.526	1	-4
415.721	1	-1
416.916	1	-8
418.111	1	0
419.305	1	-1
420.500	1	0
421.695	1	-7
422.889	1	-4
424.084	1	6
425.278	1	6
426.472	1	1
427.667	1	8
428.861	1	-2
430.055	1	-3
431.250	1	-1
432.444	1	-4
433.638	1	-2
434.832	1	-2
436.026	1	11
437.220	1	6
438.414	1	-6
439.608	1	-10
440.802	1	-6
441.996	1	-1
443.190	1	4
444.384	1	-2
445.578	1	-9
446.771	1	14
447.965	1	4
449.159	1	1
450.352	1	-3
451.546	1	-3
452.739	1	7
453.933	1	0
455.126	1	-13
456.320	1	-2
457.513	1	-3
458.706	1	1
459.899	1	6
461.093	1	4
462.286	1	-4
463.479	1	4
464.672	1	-7
465.865	1	1
467.058	1	3
468.251	1	2
469.444	1	2
470.637	1	-1
471.830	1	9
473.023	1	4
474.215	1	1
475.408	1	0
476.601	1	-2
477.793	1	-7
478.986	1	-2
480.179	1	6
481.371	1	-1
482.564	1	2
483.756	1	10
484.948	1	-1
486.141	1	-7
487.333	1	-4
488.525	1	-2
489.718	1	2
490.910	1	1
492.102	1	-8
493.294	1	-6
494.486	1	4
495.678	1	2
496.870	1	-3
498.062	1	-3
499.254	1	2
500.446	1	-10
501.638	1	-3
502.829	1	-4
504.021	1	3
505.213	1	4
506.404	1	4
507.596	1	-2
508.788	1	-1
509.979	1	-6
511.171	1	-5
512.362	1	-6
513.553	1	-6
514.745	1	5
515.936	1	7
517.127	1	-5
518.319	1	-4
519.510	1	10
520.701	1	3
521.892	1	2
523.083	1	-7
524.274	1	11
525.465	1	6
526.656	1	-1
527.847	1	10
529.038	1	2
530.229	1	-2
531.419	1	3
532.610	1	-8
533.801	1	14
534.991	1	-2
536.182	1	-5
537.373	1	8
538.563	1	8
539.754	1	2
540.944	1	-1
542.134	1	8
543.325	1	0
544.515	1	-4
545.705	1	-4
546.896	1	4
548.086	1	6
549.276	1	-4
550.466	1	2
551.656	1	2
552.846	1	-2
554.036	1	4
555.226	1	-4
556.416	1	2
557.606	1	-8
558.796	1	-2
559.986	1	-1
561.175	1	-1
562.365	1	1
563.555	1	-2
564.744	1	4
565.934	1	7
567.123	1	6
568.313	1	0
569.502	1	0
570.692	1	9
571.881	1	8
573.070	1	6
574.260	1	6
575.449	1	-1
576.638	1	5
577.827	1	-5
579.016	1	21
580.205	1	-7
581.394	1	13
582.583	1	8
583.772	1	8
584.961	1	3
586.150	1	1
587.339	1	6
588.528	1	-4
589.717	1	0
590.905	1	0
592.094	1	-1
593.283	1	2
594.471	1	5
595.660	1	2
596.848	1	6
598.037	1	-3
599.225	1	2
600.413	1	8
601.602	1	6
602.790	1	2
603.978	1	-2
605.166	1	10
606.355	1	4
607.543	1	4
608.731	1	-5
609.919	1	7
611.107	1	-1
612.295	1	-4
613.483	1	10
614.671	1	3
615.858	1	1
617.046	1	-1
618.234	1	0
619.422	1	-9
620.609	1	11
621.797	1	-6
622.985	1	-2
624.172	1	-4
625.360	1	-3
626.547	1	1
627.735	1	7
628.922	1	0
630.109	1	-4
631.297	1	-1
632.484	1	-1
633.671	1	-3
634.858	1	4
636.045	1	10
637.232	1	-3
638.419	1	5
639.606	1	2
640.793	1	8
641.980	1	6
643.167	1	5
644.354	1	2
645.541	1	6
646.728	1	-5
647.914	1	-3
649.101	1	-4
650.288	1	-3
651.474	1	-14
652.661	1	-4
653.847	1	4
655.034	1	4
656.220	1	-5
657.406	1	15
658.593	1	2
659.779	1	2
660.965	1	12
662.152	1	7
663.338	1	2
664.524	1	4
665.710	1	2
666.896	1	-7
668.082	1	7
669.268	1	-6
670.454	1	6
671.640	1	6
672.826	1	-3
674.011	1	-4
675.197	1	-13
676.383	1	2
677.569	1	-8
678.754	1	-7
679.940	1	-3
681.125	1	9
682.311	1	3
683.496	1	0
684.682	1	-2
685.867	1	-6
687.053	1	-3
688.238	1	4
688.746	1	0

File: GaN_sample F_spot 12_UVVIS_200 K_200um_800 ms 2x2mm1_264.txt
340.368	1	7
341.565	1	-11
342.763	1	11
343.960	1	2
345.157	1	-3
346.354	1	-2
347.552	1	-4
348.749	1	-5
349.946	1	-9
351.143	1	-3
352.340	1	2
353.537	1	6
354.734	1	4
355.931	1	9
357.127	1	-6
358.324	1	5
359.521	1	7
360.718	1	6
361.914	1	10
363.111	1	7
364.308	1	12
365.504	1	20
366.701	1	18
367.897	1	19
369.093	1	20
370.290	1	20
371.486	1	21
372.682	1	17
373.879	1	10
375.075	1	16
376.271	1	19
377.467	1	4
378.663	1	2
379.859	1	11
381.055	1	19
382.251	1	-3
383.447	1	7
384.643	1	9
385.839	1	1
387.035	1	4
388.230	1	5
389.426	1	5
390.622	1	6
391.817	1	-1
393.013	1	7
394.208	1	4
395.404	1	4
396.599	1	3
397.795	1	-3
398.990	1	1
400.186	1	0
401.381	1	4
402.576	1	-5
403.771	1	3
404.967	1	6
406.162	1	7
407.357	1	-2
408.552	1	-2
409.747	1	-4
410.942	1	7
412.137	1	7
413.332	1	8
414.526	1	-2
415.721	1	0
416.916	1	-2
418.111	1	2
419.305	1	-6
420.500	1	-3
421.695	1	-4
422.889	1	-11
424.084	1	-1
425.278	1	12
426.472	1	3
427.667	1	6
428.861	1	-3
430.055	1	3
431.250	1	-11
432.444	1	10
433.638	1	-2
434.832	1	2
436.026	1	11
437.220	1	2
438.414	1	-10
439.608	1	-9
440.802	1	8
441.996	1	4
443.190	1	1
444.384	1	-8
445.578	1	-7
446.771	1	11
447.965	1	2
449.159	1	-7
450.352	1	-7
451.546	1	-3
452.739	1	0
453.933	1	5
455.126	1	-8
456.320	1	-3
457.513	1	11
458.706	1	2
459.899	1	-6
461.093	1	-8
462.286	1	6
463.479	1	-1
464.672	1	-8
465.865	1	3
467.058	1	3
468.251	1	-6
469.444	1	-4
470.637	1	5
471.830	1	-1
473.023	1	2
474.215	1	9
475.408	1	-2
476.601	1	1
477.793	1	1
478.986	1	-3
480.179	1	-4
481.371	1	4
482.564	1	1
483.756	1	8
484.948	1	-12
486.141	1	-6
487.333	1	9
488.525	1	5
489.718	1	1
490.910	1	-1
492.102	1	2
493.294	1	-1
494.486	1	-5
495.678	1	-2
496.870	1	2
498.062	1	1
499.254	1	0
500.446	1	-6
501.638	1	-11
502.829	1	-2
504.021	1	4
505.213	1	13
506.404	1	0
507.596	1	7
508.788	1	12
509.979	1	-6
511.171	1	1
512.362	1	-4
513.553	1	-9
514.745	1	-5
515.936	1	10
517.127	1	1
518.319	1	-6
519.510	1	7
520.701	1	0
521.892	1	1
523.083	1	-9
524.274	1	2
525.465	1	8
526.656	1	-4
527.847	1	2
529.038	1	1
530.229	1	8
531.419	1	0
532.610	1	1
533.801	1	16
534.991	1	4
536.182	1	7
537.373	1	-2
538.563	1	15
539.754	1	4
540.944	1	-10
542.134	1	11
543.325	1	-4
544.515	1	-2
545.705	1	1
546.896	1	-3
548.086	1	5
549.276	1	-6
550.466	1	1
551.656	1	5
552.846	1	4
554.036	1	-2
555.226	1	-4
556.416	1	-7
557.606	1	0
558.796	1	-1
559.986	1	3
561.175	1	1
562.365	1	-6
563.555	1	-6
564.744	1	7
565.934	1	1
567.123	1	-2
568.313	1	4
569.502	1	-4
570.692	1	4
571.881	1	16
573.070	1	-1
574.260	1	6
575.449	1	6
576.638	1	-8
577.827	1	1
579.016	1	8
580.205	1	-5
581.394	1	-2
582.583	1	12
583.772	1	0
584.961	1	9
586.150	1	-3
587.339	1	-6
588.528	1	2
589.717	1	8
590.905	1	-3
592.094	1	-6
593.283	1	12
594.471	1	12
595.660	1	-4
596.848	1	-2
598.037	1	-5
599.225	1	-3
600.413	1	4
601.602	1	14
602.790	1	3
603.978	1	4
605.166	1	1
606.355	1	1
607.543	1	3
608.731	1	1
609.919	1	5
611.107	1	1
612.295	1	-3
613.483	1	2
614.671	1	0
615.858	1	4
617.046	1	16
618.234	1	2
619.422	1	-6
620.609	1	10
621.797	1	-3
622.985	1	4
624.172	1	-6
625.360	1	-1
626.547	1	0
627.735	1	-2
628.922	1	9
630.109	1	-5
631.297	1	-3
632.484	1	-6
633.671	1	-11
634.858	1	-6
636.045	1	14
637.232	1	-3
638.419	1	-1
639.606	1	1
640.793	1	7
641.980	1	6
643.167	1	-5
644.354	1	-5
645.541	1	4
646.728	1	-1
647.914	1	-2
649.101	1	2
650.288	1	7
651.474	1	-1
652.661	1	4
653.847	1	4
655.034	1	-2
656.220	1	-6
657.406	1	6
658.593	1	1
659.779	1	3
660.965	1	2
662.152	1	2
663.338	1	5
664.524	1	7
665.710	1	6
666.896	1	-5
668.082	1	-3
669.268	1	-2
670.454	1	8
671.640	1	-5
672.826	1	0
674.011	1	-4
675.197	1	-15
676.383	1	2
677.569	1	-9
678.754	1	-4
679.940	1	5
681.125	1	7
682.311	1	4
683.496	1	1
684.682	1	-6
685.867	1	7
687.053	1	-1
688.238	1	1
688.746	1	-2

File: GaN_sample F_spot 12_UVVIS_200 K_200um_800 ms 2x2mm1_266.txt
340.368	1	9
341.565	1	-11
342.763	1	9
343.960	1	4
345.157	1	-1
346.354	1	2
347.552	1	-3
348.749	1	-8
349.946	1	-5
351.143	1	-1
352.340	1	6
353.537	1	3
354.734	1	6
355.931	1	-1
357.127	1	2
358.324	1	-4
359.521	1	8
360.718	1	15
361.914	1	-2
363.111	1	8
364.308	1	4
365.504	1	15
366.701	1	8
367.897	1	20
369.093	1	13
370.290	1	23
371.486	1	34
372.682	1	19
373.879	1	10
375.075	1	15
376.271	1	19
377.467	1	15
378.663	1	0
379.859	1	7
381.055	1	11
382.251	1	-6
383.447	1	1
384.643	1	8
385.839	1	3
387.035	1	3
388.230	1	9
389.426	1	-2
390.622	1	3
391.817	1	5
393.013	1	5
394.208	1	0
395.404	1	-3
396.599	1	-3
397.795	1	2
398.990	1	3
400.186	1	-10
401.381	1	-2
402.576	1	3
403.771	1	4
404.967	1	-6
406.162	1	6
407.357	1	5
408.552	1	-1
409.747	1	-7
410.942	1	6
412.137	1	-1
413.332	1	0
414.526	1	-3
415.721	1	2
416.916	1	-4
418.111	1	0
419.305	1	2
420.500	1	-4
421.695	1	-2
422.889	1	2
424.084	1	6
425.278	1	16
426.472	1	-2
427.667	1	5
428.861	1	-5
430.055	1	3
431.250	1	-7
432.444	1	15
433.638	1	-2
434.832	1	6
436.026	1	10
437.220	1	3
438.414	1	-7
439.608	1	-7
440.802	1	-4
441.996	1	2
443.190	1	7
444.384	1	-4
445.578	1	-9
446.771	1	15
447.965	1	-10
449.159	1	-4
450.352	1	-6
451.546	1	-1
452.739	1	-5
453.933	1	-5
455.126	1	-1
456.320	1	4
457.513	1	3
458.706	1	-2
459.899	1	0
461.093	1	-2
462.286	1	-1
463.479	1	5
464.672	1	1
465.865	1	-2
467.058	1	5
468.251	1	1
469.444	1	-6
470.637	1	6
471.830	1	-2
473.023	1	5
474.215	1	12
475.408	1	-3
476.601	1	1
477.793	1	0
478.986	1	10
480.179	1	-3
481.371	1	9
482.564	1	-2
483.756	1	9
484.948	1	-3
486.141	1	3
487.333	1	-2
488.525	1	-3
489.718	1	-1
490.910	1	5
492.102	1	-7
493.294	1	5
494.486	1	6
495.678	1	2
496.870	1	5
498.062	1	8
499.254	1	-1
500.446	1	-12
501.638	1	-1
502.829	1	-17
504.021	1	-2
505.213	1	9
506.404	1	3
507.596	1	-3
508.788	1	21
509.979	1	-4
511.171	1	-3
512.362	1	-8
513.553	1	-9
514.745	1	-6
515.936	1	3
517.127	1	-3
518.319	1	1
519.510	1	10
520.701	1	-5
521.892	1	-7
523.083	1	5
524.274	1	6
525.465	1	-1
526.656	1	5
527.847	1	6
529.038	1	-9
530.229	1	6
531.419	1	4
532.610	1	-7
533.801	1	9
534.991	1	6
536.182	1	-6
537.373	1	2
538.563	1	2
539.754	1	10
540.944	1	-5
542.134	1	3
543.325	1	3
544.515	1	-2
545.705	1	7
546.896	1	-2
548.086	1	-3
549.276	1	-1
550.466	1	1
551.656	1	5
552.846	1	-7
554.036	1	0
555.226	1	-3
556.416	1	-7
557.606	1	6
558.796	1	-3
559.986	1	2
561.175	1	1
562.365	1	1
563.555	1	0
564.744	1	4
565.934	1	11
567.123	1	4
568.313	1	10
569.502	1	0
570.692	1	9
571.881	1	6
573.070	1	4
574.260	1	5
575.449	1	-5
576.638	1	-4
577.827	1	-3
579.016	1	10
580.205	1	4
581.394	1	3
582.583	1	8
583.772	1	7
584.961	1	0
586.150	1	-6
587.339	1	-6
588.528	1	-1
589.717	1	4
590.905	1	2
592.094	1	7
593.283	1	-6
594.471	1	6
595.660	1	-1
596.848	1	-6
598.037	1	4
599.225	1	-8
600.413	1	9
601.602	1	12
602.790	1	-3
603.978	1	-3
605.166	1	14
606.355	1	5
607.543	1	-8
608.731	1	-3
609.919	1	6
611.107	1	-6
612.295	1	-6
613.483	1	3
614.671	1	-2
615.858	1	1
617.046	1	3
618.234	1	4
619.422	1	-11
620.609	1	3
621.797	1	-11
622.985	1	9
624.172	1	1
625.360	1	5
626.547	1	4
627.735	1	5
628.922	1	-4
630.109	1	-4
631.297	1	3
632.484	1	-5
633.671	1	-3
634.858	1	-6
636.045	1	7
637.232	1	-2
638.419	1	3
639.606	1	7
640.793	1	14
641.980	1	8
643.167	1	3
644.354	1	-5
645.541	1	9
646.728	1	-2
647.914	1	2
649.101	1	0
650.288	1	4
651.474	1	-9
652.661	1	4
653.847	1	6
655.034	1	0
656.220	1	-16
657.406	1	8
658.593	1	12
659.779	1	-3
660.965	1	11
662.152	1	1
663.338	1	7
664.524	1	-1
665.710	1	-2
666.896	1	-2
668.082	1	3
669.268	1	-6
670.454	1	0
671.640	1	7
672.826	1	-7
674.011	1	4
675.197	1	-4
676.383	1	6
677.569	1	3
678.754	1	-6
679.940	1	0
681.125	1	2
682.311	1	6
683.496	1	4
684.682	1	-6
685.867	1	1
687.053	1	3
688.238	1	10
688.746	1	0

File: GaN_sample F_spot 12_UVVIS_200 K_200um_800 ms 2x2mm1_267.txt
340.368	1	-1
341.565	1	-5
342.763	1	-1
343.960	1	-3
345.157	1	-6
346.354	1	-4
347.552	1	-2
348.749	1	-5
349.946	1	-12
351.143	1	5
352.340	1	3
353.537	1	2
354.734	1	4
355.931	1	-3
357.127	1	5
358.324	1	2
359.521	1	10
360.718	1	7
361.914	1	9
363.111	1	9
364.308	1	6
365.504	1	15
366.701	1	10
367.897	1	26
369.093	1	15
370.290	1	11
371.486	1	34
372.682	1	18
373.879	1	5
375.075	1	3
376.271	1	14
377.467	1	12
378.663	1	0
379.859	1	6
381.055	1	10
382.251	1	-5
383.447	1	0
384.643	1	11
385.839	1	1
387.035	1	4
388.230	1	19
389.426	1	1
390.622	1	0
391.817	1	1
393.013	1	0
394.208	1	8
395.404	1	-1
396.599	1	-2
397.795	1	1
398.990	1	0
400.186	1	5
401.381	1	-3
402.576	1	-2
403.771	1	11
404.967	1	7
406.162	1	5
407.357	1	-1
408.552	1	-5
409.747	1	-1
410.942	1	6
412.137	1	3
413.332	1	0
414.526	1	-5
415.721	1	-3
416.916	1	-9
418.111	1	-2
419.305	1	7
420.500	1	-12
421.695	1	-8
422.889	1	-7
424.084	1	5
425.278	1	7
426.472	1	-4
427.667	1	0
428.861	1	-6
430.055	1	4
431.250	1	-5
432.444	1	0
433.638	1	0
434.832	1	11
436.026	1	-2
437.220	1	-3
438.414	1	-1
439.608	1	-7
440.802	1	-5
441.996	1	2
443.190	1	-6
444.384	1	-9
445.578	1	-9
446.771	1	10
447.965	1	-7
449.159	1	2
450.352	1	4
451.546	1	-3
452.739	1	-1
453.933	1	-5
455.126	1	-4
456.320	1	1
457.513	1	5
458.706	1	-7
459.899	1	7
461.093	1	2
462.286	1	0
463.479	1	-11
464.672	1	-2
465.865	1	-7
467.058	1	-1
468.251	1	-3
469.444	1	2
470.637	1	-4
471.830	1	-8
473.023	1	4
474.215	1	3
475.408	1	5
476.601	1	-4
477.793	1	1
478.986	1	1
480.179	1	2
481.371	1	-4
482.564	1	-4
483.756	1	8
484.948	1	2
486.141	1	-3
487.333	1	-2
488.525	1	-2
489.718	1	-1
490.910	1	1
492.102	1	-1
493.294	1	-10
494.486	1	9
495.678	1	4
496.870	1	11
498.062	1	11
499.254	1	3
500.446	1	-8
501.638	1	-4
502.829	1	2
504.021	1	6
505.213	1	10
506.404	1	-2
507.596	1	0
508.788	1	11
509.979	1	6
511.171	1	2
512.362	1	-8
513.553	1	-14
514.745	1	7
515.936	1	-12
517.127	1	-1
518.319	1	4
519.510	1	-3
520.701	1	0
521.892	1	9
523.083	1	0
524.274	1	-6
525.465	1	5
526.656	1	-5
527.847	1	8
529.038	1	0
530.229	1	3
531.419	1	8
532.610	1	-6
533.801	1	18
534.991	1	-4
536.182	1	4
537.373	1	5
538.563	1	15
539.754	1	7
540.944	1	-3
542.134	1	6
543.325	1	8
544.515	1	-4
545.705	1	3
546.896	1	-4
548.086	1	10
549.276	1	1
550.466	1	0
551.656	1	-1
552.846	1	2
554.036	1	2
555.226	1	-8
556.416	1	-10
557.606	1	1
558.796	1	-4
559.986	1	-1
561.175	1	0
562.365	1	-1
563.555	1	-8
564.744	1	4
565.934	1	7
567.123	1	6
568.313	1	7
569.502	1	-4
570.692	1	3
571.881	1	4
573.070	1	1
574.260	1	15
575.449	1	0
576.638	1	1
577.827	1	-6
579.016	1	5
580.205	1	-5
581.394	1	-3
582.583	1	10
583.772	1	2
584.961	1	-3
586.150	1	-8
587.339	1	3
588.528	1	14
589.717	1	9
590.905	1	9
592.094	1	1
593.283	1	7
594.471	1	12
595.660	1	-6
596.848	1	5
598.037	1	0
599.225	1	1
600.413	1	13
601.602	1	17
602.790	1	-4
603.978	1	-2
605.166	1	0
606.355	1	5
607.543	1	-1
608.731	1	3
609.919	1	12
611.107	1	-3
612.295	1	0
613.483	1	3
614.671	1	7
615.858	1	0
617.046	1	7
618.234	1	0
619.422	1	-15
620.609	1	4
621.797	1	-5
622.985	1	0
624.172	1	1
625.360	1	4
626.547	1	5
627.735	1	1
628.922	1	15
630.109	1	-7
631.297	1	2
632.484	1	-6
633.671	1	-2
634.858	1	8
636.045	1	13
637.232	1	-1
638.419	1	-9
639.606	1	5
640.793	1	9
641.980	1	7
643.167	1	-4
644.354	1	0
645.541	1	1
646.728	1	-6
647.914	1	-5
649.101	1	2
650.288	1	0
651.474	1	-3
652.661	1	-9
653.847	1	5
655.034	1	3
656.220	1	-5
657.406	1	4
658.593	1	12
659.779	1	1
660.965	1	-1
662.152	1	7
663.338	1	11
664.524	1	-2
665.710	1	3
666.896	1	7
668.082	1	1
669.268	1	-6
670.454	1	5
671.640	1	-1
672.826	1	-4
674.011	1	0
675.197	1	-6
676.383	1	0
677.569	1	1
678.754	1	-4
679.940	1	-1
681.125	1	6
682.311	1	7
683.496	1	-1
684.682	1	-17
685.867	1	-3
687.053	1	-1
688.238	1	12
688.746	1	4

File: GaN_sample F_spot 12_UVVIS_200 K_200um_800 ms 2x2mm1_269.txt
340.368	1	-1
341.565	1	-11
342.763	1	-1
343.960	1	0
345.157	1	-14
346.354	1	-3
347.552	1	2
348.749	1	-4
349.946	1	-7
351.143	1	3
352.340	1	2
353.537	1	5
354.734	1	2
355.931	1	5
357.127	1	2
358.324	1	-5
359.521	1	12
360.718	1	5
361.914	1	6
363.111	1	0
364.308	1	10
365.504	1	19
366.701	1	15
367.897	1	16
369.093	1	19
370.290	1	20
371.486	1	21
372.682	1	32
373.879	1	12
375.075	1	4
376.271	1	25
377.467	1	3
378.663	1	0
379.859	1	1
381.055	1	19
382.251	1	5
383.447	1	4
384.643	1	12
385.839	1	7
387.035	1	3
388.230	1	13
389.426	1	4
390.622	1	-5
391.817	1	10
393.013	1	-1
394.208	1	5
395.404	1	6
396.599	1	-6
397.795	1	2
398.990	1	0
400.186	1	-1
401.381	1	-9
402.576	1	-6
403.771	1	4
404.967	1	5
406.162	1	-2
407.357	1	-4
408.552	1	2
409.747	1	-2
410.942	1	-3
412.137	1	10
413.332	1	8
414.526	1	-3
415.721	1	-3
416.916	1	2
418.111	1	-3
419.305	1	7
420.500	1	-3
421.695	1	2
422.889	1	-15
424.084	1	1
425.278	1	5
426.472	1	1
427.667	1	-4
428.861	1	-2
430.055	1	-2
431.250	1	0
432.444	1	13
433.638	1	-6
434.832	1	10
436.026	1	8
437.220	1	2
438.414	1	-4
439.608	1	-8
440.802	1	-10
441.996	1	-1
443.190	1	3
444.384	1	-7
445.578	1	-10
446.771	1	13
447.965	1	10
449.159	1	-4
450.352	1	0
451.546	1	-7
452.739	1	5
453.933	1	-6
455.126	1	-10
456.320	1	-6
457.513	1	12
458.706	1	-3
459.899	1	2
461.093	1	6
462.286	1	-6
463.479	1	-2
464.672	1	-1
465.865	1	-3
467.058	1	1
468.251	1	-3
469.444	1	-9
470.637	1	3
471.830	1	-6
473.023	1	1
474.215	1	11
475.408	1	7
476.601	1	6
477.793	1	5
478.986	1	-2
480.179	1	9
481.371	1	1
482.564	1	3
483.756	1	5
484.948	1	-4
486.141	1	-6
487.333	1	8
488.525	1	-1
489.718	1	-9
490.910	1	3
492.102	1	-8
493.294	1	-3
494.486	1	1
495.678	1	-6
496.870	1	4
498.062	1	-5
499.254	1	2
500.446	1	-7
501.638	1	2
502.829	1	-5
504.021	1	-3
505.213	1	6
506.404	1	-1
507.596	1	3
508.788	1	19
509.979	1	-5
511.171	1	-7
512.362	1	-12
513.553	1	-17
514.745	1	8
515.936	1	0
517.127	1	-2
518.319	1	-3
519.510	1	-2
520.701	1	4
521.892	1	0
523.083	1	-1
524.274	1	4
525.465	1	12
526.656	1	7
527.847	1	7
529.038	1	11
530.229	1	8
531.419	1	10
532.610	1	3
533.801	1	8
534.991	1	4
536.182	1	1
537.373	1	0
538.563	1	8
539.754	1	5
540.944	1	1
542.134	1	8
543.325	1	-2
544.515	1	5
545.705	1	-1
546.896	1	-1
548.086	1	7
549.276	1	-9
550.466	1	-1
551.656	1	9
552.846	1	0
554.036	1	-5
555.226	1	-4
556.416	1	-7
557.606	1	12
558.796	1	-6
559.986	1	2
561.175	1	2
562.365	1	12
563.555	1	4
564.744	1	3
565.934	1	5
567.123	1	7
568.313	1	8
569.502	1	0
570.692	1	9
571.881	1	4
573.070	1	9
574.260	1	4
575.449	1	-2
576.638	1	-1
577.827	1	-4
579.016	1	10
580.205	1	-1
581.394	1	2
582.583	1	7
583.772	1	8
584.961	1	-5
586.150	1	-1
587.339	1	3
588.528	1	-8
589.717	1	9
590.905	1	2
592.094	1	3
593.283	1	1
594.471	1	5
595.660	1	-3
596.848	1	1
598.037	1	7
599.225	1	-8
600.413	1	10
601.602	1	16
602.790	1	5
603.978	1	3
605.166	1	4
606.355	1	10
607.543	1	-2
608.731	1	-6
609.919	1	17
611.107	1	-3
612.295	1	-10
613.483	1	9
614.671	1	4
615.858	1	5
617.046	1	-4
618.234	1	-4
619.422	1	-1
620.609	1	7
621.797	1	-2
622.985	1	0
624.172	1	-3
625.360	1	3
626.547	1	1
627.735	1	7
628.922	1	2
630.109	1	-5
631.297	1	7
632.484	1	-6
633.671	1	-8
634.858	1	-5
636.045	1	15
637.232	1	-7
638.419	1	-6
639.606	1	5
640.793	1	7
641.980	1	5
643.167	1	4
644.354	1	-3
645.541	1	-13
646.728	1	-3
647.914	1	-4
649.101	1	0
650.288	1	7
651.474	1	-5
652.661	1	3
653.847	1	9
655.034	1	6
656.220	1	-2
657.406	1	-4
658.593	1	3
659.779	1	-5
660.965	1	15
662.152	1	7
663.338	1	1
664.524	1	-1
665.710	1	8
666.896	1	-6
668.082	1	5
669.268	1	-3
670.454	1	2
671.640	1	3
672.826	1	-1
674.011	1	-6
675.197	1	-8
676.383	1	4
677.569	1	-1
678.754	1	-2
679.940	1	-3
681.125	1	3
682.311	1	10
683.496	1	4
684.682	1	-6
685.867	1	1
687.053	1	0
688.238	1	8
688.746	1	1

File: GaN_sample F_spot 12_UVVIS_200 K_200um_800 ms 2x2mm1_276.txt
340.368	1	-3
341.565	1	-14
342.763	1	-5
343.960	1	-4
345.157	1	-6
346.354	1	-6
347.552	1	-12
348.749	1	-3
349.946	1	3
351.143	1	5
352.340	1	-3
353.537	1	4
354.734	1	-2
355.931	1	-1
357.127	1	7
358.324	1	2
359.521	1	10
360.718	1	6
361.914	1	6
363.111	1	3
364.308	1	7
365.504	1	20
366.701	1	21
367.897	1	25
369.093	1	12
370.290	1	11
371.486	1	27
372.682	1	11
373.879	1	12
375.075	1	8
376.271	1	12
377.467	1	16
378.663	1	1
379.859	1	8
381.055	1	11
382.251	1	-2
383.447	1	8
384.643	1	6
385.839	1	6
387.035	1	6
388.230	1	11
389.426	1	-2
390.622	1	-2
391.817	1	-10
393.013	1	-3
394.208	1	2
395.404	1	-1
396.599	1	0
397.795	1	2
398.990	1	-1
400.186	1	2
401.381	1	-6
402.576	1	-6
403.771	1	0
404.967	1	-6
406.162	1	4
407.357	1	-6
408.552	1	-5
409.747	1	9
410.942	1	7
412.137	1	4
413.332	1	6
414.526	1	-5
415.721	1	1
416.916	1	-4
418.111	1	0
419.305	1	-4
420.500	1	-9
421.695	1	-7
422.889	1	-1
424.084	1	4
425.278	1	9
426.472	1	-2
427.667	1	1
428.861	1	-4
430.055	1	6
431.250	1	0
432.444	1	0
433.638	1	-2
434.832	1	9
436.026	1	0
437.220	1	3
438.414	1	-6
439.608	1	-4
440.802	1	0
441.996	1	4
443.190	1	2
444.384	1	-8
445.578	1	-11
446.771	1	10
447.965	1	1
449.159	1	0
450.352	1	-2
451.546	1	4
452.739	1	8
453.933	1	1
455.126	1	-3
456.320	1	-3
457.513	1	7
458.706	1	0
459.899	1	1
461.093	1	9
462.286	1	4
463.479	1	3
464.672	1	-1
465.865	1	3
467.058	1	1
468.251	1	-4
469.444	1	-8
470.637	1	-2
471.830	1	-1
473.023	1	-3
474.215	1	8
475.408	1	-7
476.601	1	-6
477.793	1	-8
478.986	1	-2
480.179	1	1
481.371	1	-7
482.564	1	3
483.756	1	4
484.948	1	-5
486.141	1	-8
487.333	1	-3
488.525	1	-1
489.718	1	-11
490.910	1	3
492.102	1	-8
493.294	1	1
494.486	1	8
495.678	1	0
496.870	1	1
498.062	1	7
499.254	1	-2
500.446	1	-10
501.638	1	-3
502.829	1	-5
504.021	1	7
505.213	1	2
506.404	1	6
507.596	1	7
508.788	1	17
509.979	1	-3
511.171	1	-4
512.362	1	-1
513.553	1	-5
514.745	1	-2
515.936	1	0
517.127	1	-5
518.319	1	-2
519.510	1	-1
520.701	1	-2
521.892	1	-6
523.083	1	-3
524.274	1	3
525.465	1	11
526.656	1	4
527.847	1	1
529.038	1	0
530.229	1	0
531.419	1	10
532.610	1	-6
533.801	1	7
534.991	1	3
536.182	1	-2
537.373	1	3
538.563	1	7
539.754	1	9
540.944	1	-4
542.134	1	-2
543.325	1	-1
544.515	1	-7
545.705	1	6
546.896	1	-4
548.086	1	2
549.276	1	-3
550.466	1	-5
551.656	1	12
552.846	1	-4
554.036	1	-11
555.226	1	-9
556.416	1	-7
557.606	1	4
558.796	1	-5
559.986	1	4
561.175	1	11
562.365	1	6
563.555	1	-5
564.744	1	1
565.934	1	12
567.123	1	-5
568.313	1	0
569.502	1	5
570.692	1	-1
571.881	1	13
573.070	1	5
574.260	1	7
575.449	1	-3
576.638	1	0
577.827	1	-11
579.016	1	6
580.205	1	-4
581.394	1	2
582.583	1	9
583.772	1	8
584.961	1	8
586.150	1	-1
587.339	1	2
588.528	1	1
589.717	1	7
590.905	1	-3
592.094	1	-1
593.283	1	6
594.471	1	10
595.660	1	3
596.848	1	9
598.037	1	-4
599.225	1	-8
600.413	1	7
601.602	1	15
602.790	1	0
603.978	1	-8
605.166	1	2
606.355	1	6
607.543	1	-4
608.731	1	1
609.919	1	-3
611.107	1	-3
612.295	1	-6
613.483	1	4
614.671	1	3
615.858	1	1
617.046	1	5
618.234	1	-2
619.422	1	-5
620.609	1	1
621.797	1	-10
622.985	1	-5
624.172	1	-3
625.360	1	-3
626.547	1	-4
627.735	1	5
628.922	1	4
630.109	1	-8
631.297	1	0
632.484	1	-4
633.671	1	-6
634.858	1	-4
636.045	1	9
637.232	1	-8
638.419	1	-3
639.606	1	2
640.793	1	8
641.980	1	5
643.167	1	0
644.354	1	-2
645.541	1	4
646.728	1	-6
647.914	1	-7
649.101	1	-2
650.288	1	4
651.474	1	2
652.661	1	-3
653.847	1	-7
655.034	1	3
656.220	1	-6
657.406	1	3
658.593	1	5
659.779	1	1
660.965	1	-4
662.152	1	1
663.338	1	5
664.524	1	0
665.710	1	-4
666.896	1	0
668.082	1	6
669.268	1	0
670.454	1	5
671.640	1	-2
672.826	1	4
674.011	1	0
675.197	1	-10
676.383	1	-4
677.569	1	-3
678.754	1	1
679.940	1	0
681.125	1	4
682.311	1	2
683.496	1	16
684.682	1	-5
685.867	1	-4
687.053	1	1
688.238	1	-2
688.746	1	2