Folder: cryo-il_analysis/Data/GaN_150K_450ms (part 21)

File: GaN_sample D_spot15_UVVIS_150 K_200um_450 ms 2x2mm1_169.txt
340.368	1	3
341.565	1	2
342.763	1	5
343.960	1	14
345.157	1	6
346.354	1	-10
347.552	1	17
348.749	1	10
349.946	1	1
351.143	1	9
352.340	1	7
353.537	1	-1
354.734	1	4
355.931	1	7
357.127	1	12
358.324	1	11
359.521	1	14
360.718	1	12
361.914	1	16
363.111	1	10
364.308	1	16
365.504	1	18
366.701	1	29
367.897	1	33
369.093	1	30
370.290	1	29
371.486	1	24
372.682	1	24
373.879	1	17
375.075	1	3
376.271	1	13
377.467	1	17
378.663	1	12
379.859	1	7
381.055	1	-2
382.251	1	5
383.447	1	1
384.643	1	6
385.839	1	5
387.035	1	14
388.230	1	-1
389.426	1	1
390.622	1	2
391.817	1	-1
393.013	1	3
394.208	1	7
395.404	1	18
396.599	1	3
397.795	1	18
398.990	1	12
400.186	1	11
401.381	1	5
402.576	1	10
403.771	1	-11
404.967	1	8
406.162	1	6
407.357	1	16
408.552	1	-2
409.747	1	6
410.942	1	15
412.137	1	11
413.332	1	14
414.526	1	-6
415.721	1	12
416.916	1	4
418.111	1	7
419.305	1	19
420.500	1	10
421.695	1	14
422.889	1	14
424.084	1	10
425.278	1	12
426.472	1	13
427.667	1	2
428.861	1	18
430.055	1	15
431.250	1	8
432.444	1	9
433.638	1	11
434.832	1	-3
436.026	1	6
437.220	1	12
438.414	1	12
439.608	1	-2
440.802	1	5
441.996	1	0
443.190	1	10
444.384	1	12
445.578	1	5
446.771	1	9
447.965	1	6
449.159	1	-5
450.352	1	0
451.546	1	6
452.739	1	7
453.933	1	5
455.126	1	8
456.320	1	4
457.513	1	-10
458.706	1	5
459.899	1	7
461.093	1	8
462.286	1	5
463.479	1	-1
464.672	1	-4
465.865	1	7
467.058	1	10
468.251	1	-1
469.444	1	9
470.637	1	5
471.830	1	14
473.023	1	4
474.215	1	1
475.408	1	9
476.601	1	-1
477.793	1	3
478.986	1	12
480.179	1	4
481.371	1	-1
482.564	1	7
483.756	1	10
484.948	1	9
486.141	1	9
487.333	1	-1
488.525	1	-3
489.718	1	-2
490.910	1	13
492.102	1	1
493.294	1	-2
494.486	1	-8
495.678	1	3
496.870	1	9
498.062	1	6
499.254	1	2
500.446	1	-4
501.638	1	12
502.829	1	5
504.021	1	3
505.213	1	0
506.404	1	8
507.596	1	8
508.788	1	-1
509.979	1	5
511.171	1	10
512.362	1	12
513.553	1	8
514.745	1	8
515.936	1	18
517.127	1	19
518.319	1	1
519.510	1	0
520.701	1	8
521.892	1	11
523.083	1	7
524.274	1	12
525.465	1	17
526.656	1	7
527.847	1	2
529.038	1	17
530.229	1	8
531.419	1	9
532.610	1	11
533.801	1	9
534.991	1	2
536.182	1	16
537.373	1	4
538.563	1	8
539.754	1	5
540.944	1	12
542.134	1	11
543.325	1	11
544.515	1	8
545.705	1	14
546.896	1	-2
548.086	1	2
549.276	1	14
550.466	1	4
551.656	1	3
552.846	1	9
554.036	1	24
555.226	1	5
556.416	1	14
557.606	1	-2
558.796	1	19
559.986	1	8
561.175	1	7
562.365	1	1
563.555	1	5
564.744	1	10
565.934	1	4
567.123	1	0
568.313	1	9
569.502	1	8
570.692	1	10
571.881	1	0
573.070	1	7
574.260	1	6
575.449	1	-1
576.638	1	3
577.827	1	0
579.016	1	8
580.205	1	7
581.394	1	4
582.583	1	9
583.772	1	6
584.961	1	5
586.150	1	1
587.339	1	13
588.528	1	3
589.717	1	6
590.905	1	5
592.094	1	9
593.283	1	6
594.471	1	-3
595.660	1	4
596.848	1	6
598.037	1	4
599.225	1	4
600.413	1	3
601.602	1	6
602.790	1	10
603.978	1	3
605.166	1	-2
606.355	1	-7
607.543	1	-4
608.731	1	-4
609.919	1	-6
611.107	1	7
612.295	1	0
613.483	1	8
614.671	1	14
615.858	1	-1
617.046	1	1
618.234	1	2
619.422	1	11
620.609	1	-5
621.797	1	-2
622.985	1	3
624.172	1	7
625.360	1	13
626.547	1	-7
627.735	1	12
628.922	1	8
630.109	1	1
631.297	1	7
632.484	1	11
633.671	1	9
634.858	1	2
636.045	1	-1
637.232	1	10
638.419	1	8
639.606	1	10
640.793	1	-4
641.980	1	12
643.167	1	11
644.354	1	8
645.541	1	-2
646.728	1	9
647.914	1	7
649.101	1	8
650.288	1	4
651.474	1	7
652.661	1	11
653.847	1	4
655.034	1	0
656.220	1	12
657.406	1	-3
658.593	1	8
659.779	1	9
660.965	1	-6
662.152	1	7
663.338	1	5
664.524	1	11
665.710	1	3
666.896	1	4
668.082	1	-1
669.268	1	5
670.454	1	8
671.640	1	2
672.826	1	4
674.011	1	4
675.197	1	3
676.383	1	3
677.569	1	12
678.754	1	2
679.940	1	-5
681.125	1	-3
682.311	1	8
683.496	1	6
684.682	1	12
685.867	1	6
687.053	1	25
688.238	1	11
688.746	1	-4

File: GaN_sample D_spot15_UVVIS_150 K_200um_450 ms 2x2mm1_170.txt
340.368	1	1
341.565	1	7
342.763	1	5
343.960	1	5
345.157	1	12
346.354	1	7
347.552	1	20
348.749	1	9
349.946	1	-9
351.143	1	11
352.340	1	10
353.537	1	6
354.734	1	-1
355.931	1	14
357.127	1	13
358.324	1	0
359.521	1	14
360.718	1	8
361.914	1	8
363.111	1	11
364.308	1	17
365.504	1	9
366.701	1	18
367.897	1	21
369.093	1	38
370.290	1	34
371.486	1	28
372.682	1	12
373.879	1	25
375.075	1	10
376.271	1	10
377.467	1	18
378.663	1	13
379.859	1	4
381.055	1	-1
382.251	1	0
383.447	1	4
384.643	1	13
385.839	1	13
387.035	1	7
388.230	1	6
389.426	1	-4
390.622	1	-3
391.817	1	-1
393.013	1	3
394.208	1	6
395.404	1	1
396.599	1	6
397.795	1	4
398.990	1	12
400.186	1	4
401.381	1	4
402.576	1	2
403.771	1	-1
404.967	1	9
406.162	1	7
407.357	1	15
408.552	1	5
409.747	1	0
410.942	1	6
412.137	1	7
413.332	1	3
414.526	1	1
415.721	1	3
416.916	1	11
418.111	1	6
419.305	1	15
420.500	1	4
421.695	1	17
422.889	1	0
424.084	1	10
425.278	1	1
426.472	1	12
427.667	1	6
428.861	1	17
430.055	1	9
431.250	1	15
432.444	1	7
433.638	1	13
434.832	1	-2
436.026	1	5
437.220	1	16
438.414	1	3
439.608	1	-2
440.802	1	1
441.996	1	6
443.190	1	16
444.384	1	8
445.578	1	0
446.771	1	10
447.965	1	7
449.159	1	1
450.352	1	0
451.546	1	5
452.739	1	1
453.933	1	2
455.126	1	1
456.320	1	17
457.513	1	0
458.706	1	19
459.899	1	4
461.093	1	8
462.286	1	-1
463.479	1	0
464.672	1	8
465.865	1	-7
467.058	1	9
468.251	1	2
469.444	1	2
470.637	1	3
471.830	1	-3
473.023	1	7
474.215	1	10
475.408	1	7
476.601	1	-1
477.793	1	-6
478.986	1	11
480.179	1	10
481.371	1	-4
482.564	1	16
483.756	1	11
484.948	1	11
486.141	1	8
487.333	1	5
488.525	1	-1
489.718	1	-6
490.910	1	10
492.102	1	3
493.294	1	-1
494.486	1	-4
495.678	1	9
496.870	1	-3
498.062	1	0
499.254	1	4
500.446	1	1
501.638	1	5
502.829	1	-2
504.021	1	11
505.213	1	0
506.404	1	3
507.596	1	15
508.788	1	10
509.979	1	4
511.171	1	6
512.362	1	9
513.553	1	10
514.745	1	5
515.936	1	-1
517.127	1	19
518.319	1	4
519.510	1	-3
520.701	1	11
521.892	1	3
523.083	1	1
524.274	1	10
525.465	1	5
526.656	1	13
527.847	1	2
529.038	1	3
530.229	1	18
531.419	1	7
532.610	1	22
533.801	1	7
534.991	1	2
536.182	1	8
537.373	1	7
538.563	1	0
539.754	1	10
540.944	1	12
542.134	1	7
543.325	1	7
544.515	1	9
545.705	1	3
546.896	1	14
548.086	1	7
549.276	1	14
550.466	1	10
551.656	1	11
552.846	1	12
554.036	1	13
555.226	1	7
556.416	1	9
557.606	1	-6
558.796	1	21
559.986	1	5
561.175	1	3
562.365	1	6
563.555	1	12
564.744	1	15
565.934	1	15
567.123	1	-1
568.313	1	5
569.502	1	12
570.692	1	15
571.881	1	2
573.070	1	4
574.260	1	14
575.449	1	3
576.638	1	10
577.827	1	4
579.016	1	3
580.205	1	-3
581.394	1	3
582.583	1	2
583.772	1	15
584.961	1	2
586.150	1	6
587.339	1	7
588.528	1	6
589.717	1	0
590.905	1	-1
592.094	1	2
593.283	1	4
594.471	1	-10
595.660	1	7
596.848	1	12
598.037	1	-3
599.225	1	2
600.413	1	6
601.602	1	12
602.790	1	-2
603.978	1	7
605.166	1	4
606.355	1	-5
607.543	1	5
608.731	1	-4
609.919	1	-2
611.107	1	12
612.295	1	12
613.483	1	-1
614.671	1	6
615.858	1	-16
617.046	1	5
618.234	1	9
619.422	1	10
620.609	1	-6
621.797	1	5
622.985	1	7
624.172	1	5
625.360	1	-1
626.547	1	5
627.735	1	7
628.922	1	5
630.109	1	-3
631.297	1	5
632.484	1	9
633.671	1	3
634.858	1	2
636.045	1	-1
637.232	1	4
638.419	1	3
639.606	1	16
640.793	1	7
641.980	1	15
643.167	1	3
644.354	1	15
645.541	1	9
646.728	1	4
647.914	1	9
649.101	1	1
650.288	1	9
651.474	1	2
652.661	1	10
653.847	1	0
655.034	1	-5
656.220	1	8
657.406	1	-2
658.593	1	2
659.779	1	21
660.965	1	7
662.152	1	-1
663.338	1	-3
664.524	1	9
665.710	1	-4
666.896	1	12
668.082	1	4
669.268	1	0
670.454	1	14
671.640	1	11
672.826	1	8
674.011	1	11
675.197	1	1
676.383	1	6
677.569	1	16
678.754	1	6
679.940	1	-1
681.125	1	-3
682.311	1	10
683.496	1	1
684.682	1	10
685.867	1	6
687.053	1	14
688.238	1	7
688.746	1	-10

File: GaN_sample D_spot15_UVVIS_150 K_200um_450 ms 2x2mm1_171.txt
340.368	1	4
341.565	1	10
342.763	1	6
343.960	1	8
345.157	1	12
346.354	1	10
347.552	1	18
348.749	1	11
349.946	1	3
351.143	1	5
352.340	1	7
353.537	1	-4
354.734	1	20
355.931	1	13
357.127	1	17
358.324	1	11
359.521	1	26
360.718	1	8
361.914	1	15
363.111	1	9
364.308	1	22
365.504	1	11
366.701	1	24
367.897	1	37
369.093	1	27
370.290	1	30
371.486	1	21
372.682	1	26
373.879	1	16
375.075	1	7
376.271	1	13
377.467	1	22
378.663	1	8
379.859	1	4
381.055	1	6
382.251	1	-3
383.447	1	8
384.643	1	3
385.839	1	11
387.035	1	12
388.230	1	9
389.426	1	-3
390.622	1	2
391.817	1	-1
393.013	1	8
394.208	1	10
395.404	1	2
396.599	1	9
397.795	1	0
398.990	1	21
400.186	1	12
401.381	1	4
402.576	1	12
403.771	1	-3
404.967	1	8
406.162	1	-2
407.357	1	11
408.552	1	-1
409.747	1	3
410.942	1	18
412.137	1	8
413.332	1	0
414.526	1	8
415.721	1	5
416.916	1	6
418.111	1	8
419.305	1	7
420.500	1	9
421.695	1	6
422.889	1	6
424.084	1	3
425.278	1	14
426.472	1	15
427.667	1	14
428.861	1	10
430.055	1	14
431.250	1	14
432.444	1	9
433.638	1	9
434.832	1	5
436.026	1	5
437.220	1	11
438.414	1	7
439.608	1	-11
440.802	1	9
441.996	1	2
443.190	1	-1
444.384	1	13
445.578	1	-3
446.771	1	5
447.965	1	4
449.159	1	-3
450.352	1	-3
451.546	1	0
452.739	1	-3
453.933	1	-5
455.126	1	1
456.320	1	12
457.513	1	0
458.706	1	8
459.899	1	1
461.093	1	15
462.286	1	-1
463.479	1	6
464.672	1	6
465.865	1	5
467.058	1	2
468.251	1	4
469.444	1	12
470.637	1	4
471.830	1	2
473.023	1	9
474.215	1	2
475.408	1	4
476.601	1	8
477.793	1	6
478.986	1	2
480.179	1	9
481.371	1	-2
482.564	1	6
483.756	1	6
484.948	1	5
486.141	1	13
487.333	1	-3
488.525	1	4
489.718	1	3
490.910	1	9
492.102	1	4
493.294	1	-3
494.486	1	-2
495.678	1	-1
496.870	1	1
498.062	1	0
499.254	1	4
500.446	1	0
501.638	1	10
502.829	1	-8
504.021	1	2
505.213	1	-3
506.404	1	6
507.596	1	16
508.788	1	7
509.979	1	-2
511.171	1	8
512.362	1	6
513.553	1	20
514.745	1	9
515.936	1	0
517.127	1	11
518.319	1	12
519.510	1	-4
520.701	1	14
521.892	1	9
523.083	1	3
524.274	1	-4
525.465	1	16
526.656	1	5
527.847	1	1
529.038	1	-1
530.229	1	12
531.419	1	12
532.610	1	14
533.801	1	8
534.991	1	7
536.182	1	1
537.373	1	8
538.563	1	3
539.754	1	11
540.944	1	11
542.134	1	8
543.325	1	2
544.515	1	6
545.705	1	9
546.896	1	5
548.086	1	2
549.276	1	5
550.466	1	7
551.656	1	5
552.846	1	15
554.036	1	19
555.226	1	2
556.416	1	11
557.606	1	-7
558.796	1	8
559.986	1	17
561.175	1	1
562.365	1	6
563.555	1	14
564.744	1	12
565.934	1	17
567.123	1	4
568.313	1	8
569.502	1	6
570.692	1	10
571.881	1	-1
573.070	1	2
574.260	1	7
575.449	1	-4
576.638	1	17
577.827	1	-7
579.016	1	4
580.205	1	9
581.394	1	0
582.583	1	-1
583.772	1	13
584.961	1	1
586.150	1	3
587.339	1	5
588.528	1	-8
589.717	1	0
590.905	1	0
592.094	1	8
593.283	1	0
594.471	1	-2
595.660	1	4
596.848	1	9
598.037	1	4
599.225	1	-1
600.413	1	12
601.602	1	-2
602.790	1	7
603.978	1	0
605.166	1	6
606.355	1	-14
607.543	1	7
608.731	1	-4
609.919	1	6
611.107	1	8
612.295	1	5
613.483	1	6
614.671	1	5
615.858	1	-9
617.046	1	-3
618.234	1	-1
619.422	1	18
620.609	1	-3
621.797	1	3
622.985	1	-3
624.172	1	-3
625.360	1	8
626.547	1	-4
627.735	1	8
628.922	1	15
630.109	1	-4
631.297	1	5
632.484	1	10
633.671	1	7
634.858	1	-1
636.045	1	-2
637.232	1	8
638.419	1	-6
639.606	1	6
640.793	1	0
641.980	1	16
643.167	1	2
644.354	1	11
645.541	1	7
646.728	1	8
647.914	1	5
649.101	1	4
650.288	1	12
651.474	1	8
652.661	1	3
653.847	1	10
655.034	1	3
656.220	1	-3
657.406	1	0
658.593	1	13
659.779	1	5
660.965	1	1
662.152	1	2
663.338	1	2
664.524	1	12
665.710	1	0
666.896	1	6
668.082	1	0
669.268	1	5
670.454	1	5
671.640	1	16
672.826	1	4
674.011	1	6
675.197	1	2
676.383	1	-9
677.569	1	18
678.754	1	-6
679.940	1	-1
681.125	1	-4
682.311	1	4
683.496	1	-5
684.682	1	12
685.867	1	0
687.053	1	20
688.238	1	13
688.746	1	4

File: GaN_sample D_spot15_UVVIS_150 K_200um_450 ms 2x2mm1_173.txt
340.368	1	7
341.565	1	5
342.763	1	6
343.960	1	-5
345.157	1	16
346.354	1	2
347.552	1	13
348.749	1	18
349.946	1	6
351.143	1	1
352.340	1	7
353.537	1	-1
354.734	1	7
355.931	1	6
357.127	1	11
358.324	1	12
359.521	1	18
360.718	1	13
361.914	1	12
363.111	1	18
364.308	1	21
365.504	1	18
366.701	1	23
367.897	1	29
369.093	1	33
370.290	1	28
371.486	1	31
372.682	1	20
373.879	1	19
375.075	1	2
376.271	1	12
377.467	1	19
378.663	1	8
379.859	1	3
381.055	1	5
382.251	1	4
383.447	1	7
384.643	1	6
385.839	1	2
387.035	1	7
388.230	1	9
389.426	1	1
390.622	1	9
391.817	1	-3
393.013	1	5
394.208	1	3
395.404	1	5
396.599	1	12
397.795	1	0
398.990	1	16
400.186	1	2
401.381	1	10
402.576	1	5
403.771	1	-3
404.967	1	7
406.162	1	-4
407.357	1	13
408.552	1	1
409.747	1	2
410.942	1	9
412.137	1	6
413.332	1	12
414.526	1	-3
415.721	1	9
416.916	1	8
418.111	1	16
419.305	1	6
420.500	1	5
421.695	1	16
422.889	1	1
424.084	1	1
425.278	1	9
426.472	1	6
427.667	1	2
428.861	1	10
430.055	1	11
431.250	1	9
432.444	1	11
433.638	1	18
434.832	1	12
436.026	1	7
437.220	1	7
438.414	1	13
439.608	1	4
440.802	1	11
441.996	1	3
443.190	1	10
444.384	1	13
445.578	1	-2
446.771	1	9
447.965	1	11
449.159	1	6
450.352	1	6
451.546	1	12
452.739	1	13
453.933	1	-7
455.126	1	-4
456.320	1	5
457.513	1	7
458.706	1	13
459.899	1	7
461.093	1	0
462.286	1	5
463.479	1	0
464.672	1	9
465.865	1	2
467.058	1	1
468.251	1	-1
469.444	1	7
470.637	1	8
471.830	1	2
473.023	1	2
474.215	1	-1
475.408	1	1
476.601	1	3
477.793	1	7
478.986	1	9
480.179	1	5
481.371	1	-1
482.564	1	8
483.756	1	4
484.948	1	7
486.141	1	11
487.333	1	1
488.525	1	-3
489.718	1	-8
490.910	1	17
492.102	1	13
493.294	1	-3
494.486	1	-4
495.678	1	-2
496.870	1	2
498.062	1	6
499.254	1	-2
500.446	1	6
501.638	1	9
502.829	1	0
504.021	1	4
505.213	1	8
506.404	1	-1
507.596	1	9
508.788	1	6
509.979	1	8
511.171	1	8
512.362	1	12
513.553	1	2
514.745	1	6
515.936	1	5
517.127	1	3
518.319	1	2
519.510	1	-10
520.701	1	10
521.892	1	5
523.083	1	5
524.274	1	7
525.465	1	13
526.656	1	4
527.847	1	-2
529.038	1	5
530.229	1	20
531.419	1	9
532.610	1	12
533.801	1	12
534.991	1	4
536.182	1	-6
537.373	1	6
538.563	1	5
539.754	1	8
540.944	1	14
542.134	1	11
543.325	1	6
544.515	1	4
545.705	1	7
546.896	1	1
548.086	1	11
549.276	1	15
550.466	1	8
551.656	1	-2
552.846	1	6
554.036	1	9
555.226	1	9
556.416	1	17
557.606	1	-1
558.796	1	10
559.986	1	13
561.175	1	2
562.365	1	3
563.555	1	9
564.744	1	10
565.934	1	15
567.123	1	0
568.313	1	1
569.502	1	6
570.692	1	13
571.881	1	4
573.070	1	3
574.260	1	8
575.449	1	3
576.638	1	16
577.827	1	5
579.016	1	4
580.205	1	2
581.394	1	-4
582.583	1	6
583.772	1	13
584.961	1	0
586.150	1	6
587.339	1	1
588.528	1	-6
589.717	1	2
590.905	1	-4
592.094	1	11
593.283	1	-2
594.471	1	-7
595.660	1	11
596.848	1	2
598.037	1	0
599.225	1	5
600.413	1	-1
601.602	1	-1
602.790	1	4
603.978	1	6
605.166	1	3
606.355	1	-9
607.543	1	5
608.731	1	-6
609.919	1	-4
611.107	1	13
612.295	1	6
613.483	1	-1
614.671	1	5
615.858	1	-11
617.046	1	-2
618.234	1	5
619.422	1	11
620.609	1	2
621.797	1	-3
622.985	1	-3
624.172	1	7
625.360	1	1
626.547	1	1
627.735	1	4
628.922	1	7
630.109	1	-9
631.297	1	11
632.484	1	12
633.671	1	9
634.858	1	6
636.045	1	-2
637.232	1	-2
638.419	1	-1
639.606	1	17
640.793	1	6
641.980	1	11
643.167	1	8
644.354	1	11
645.541	1	3
646.728	1	4
647.914	1	4
649.101	1	4
650.288	1	7
651.474	1	6
652.661	1	5
653.847	1	3
655.034	1	-3
656.220	1	8
657.406	1	3
658.593	1	6
659.779	1	17
660.965	1	0
662.152	1	6
663.338	1	6
664.524	1	7
665.710	1	5
666.896	1	9
668.082	1	7
669.268	1	-2
670.454	1	9
671.640	1	2
672.826	1	3
674.011	1	5
675.197	1	12
676.383	1	1
677.569	1	11
678.754	1	5
679.940	1	0
681.125	1	-2
682.311	1	16
683.496	1	6
684.682	1	13
685.867	1	2
687.053	1	16
688.238	1	8
688.746	1	8

File: GaN_sample D_spot15_UVVIS_150 K_200um_450 ms 2x2mm1_177.txt
340.368	1	5
341.565	1	10
342.763	1	-1
343.960	1	-3
345.157	1	3
346.354	1	7
347.552	1	14
348.749	1	18
349.946	1	-1
351.143	1	11
352.340	1	9
353.537	1	6
354.734	1	5
355.931	1	9
357.127	1	17
358.324	1	7
359.521	1	17
360.718	1	5
361.914	1	12
363.111	1	6
364.308	1	18
365.504	1	9
366.701	1	13
367.897	1	25
369.093	1	28
370.290	1	37
371.486	1	33
372.682	1	22
373.879	1	9
375.075	1	4
376.271	1	4
377.467	1	12
378.663	1	15
379.859	1	10
381.055	1	1
382.251	1	-3
383.447	1	12
384.643	1	10
385.839	1	9
387.035	1	10
388.230	1	6
389.426	1	2
390.622	1	3
391.817	1	-1
393.013	1	13
394.208	1	1
395.404	1	12
396.599	1	6
397.795	1	-5
398.990	1	8
400.186	1	6
401.381	1	7
402.576	1	1
403.771	1	0
404.967	1	5
406.162	1	8
407.357	1	3
408.552	1	-8
409.747	1	6
410.942	1	14
412.137	1	10
413.332	1	12
414.526	1	1
415.721	1	7
416.916	1	3
418.111	1	12
419.305	1	7
420.500	1	13
421.695	1	19
422.889	1	10
424.084	1	12
425.278	1	10
426.472	1	19
427.667	1	12
428.861	1	10
430.055	1	11
431.250	1	13
432.444	1	8
433.638	1	-1
434.832	1	-3
436.026	1	9
437.220	1	11
438.414	1	8
439.608	1	9
440.802	1	7
441.996	1	6
443.190	1	14
444.384	1	4
445.578	1	1
446.771	1	10
447.965	1	8
449.159	1	3
450.352	1	12
451.546	1	6
452.739	1	8
453.933	1	0
455.126	1	3
456.320	1	13
457.513	1	4
458.706	1	6
459.899	1	3
461.093	1	9
462.286	1	-4
463.479	1	-4
464.672	1	2
465.865	1	-4
467.058	1	5
468.251	1	-1
469.444	1	-1
470.637	1	7
471.830	1	5
473.023	1	9
474.215	1	7
475.408	1	5
476.601	1	8
477.793	1	-1
478.986	1	15
480.179	1	14
481.371	1	-2
482.564	1	7
483.756	1	-2
484.948	1	3
486.141	1	10
487.333	1	-2
488.525	1	-4
489.718	1	-2
490.910	1	6
492.102	1	2
493.294	1	-3
494.486	1	-8
495.678	1	-4
496.870	1	7
498.062	1	1
499.254	1	-6
500.446	1	-6
501.638	1	3
502.829	1	11
504.021	1	5
505.213	1	-3
506.404	1	5
507.596	1	11
508.788	1	2
509.979	1	6
511.171	1	12
512.362	1	17
513.553	1	9
514.745	1	5
515.936	1	5
517.127	1	17
518.319	1	8
519.510	1	-11
520.701	1	16
521.892	1	12
523.083	1	2
524.274	1	6
525.465	1	9
526.656	1	5
527.847	1	1
529.038	1	12
530.229	1	11
531.419	1	0
532.610	1	18
533.801	1	4
534.991	1	0
536.182	1	6
537.373	1	8
538.563	1	6
539.754	1	7
540.944	1	9
542.134	1	-1
543.325	1	7
544.515	1	10
545.705	1	4
546.896	1	9
548.086	1	11
549.276	1	9
550.466	1	2
551.656	1	6
552.846	1	11
554.036	1	14
555.226	1	11
556.416	1	15
557.606	1	-1
558.796	1	11
559.986	1	7
561.175	1	5
562.365	1	8
563.555	1	16
564.744	1	16
565.934	1	22
567.123	1	-1
568.313	1	14
569.502	1	5
570.692	1	13
571.881	1	1
573.070	1	9
574.260	1	5
575.449	1	-1
576.638	1	14
577.827	1	-2
579.016	1	3
580.205	1	1
581.394	1	8
582.583	1	14
583.772	1	9
584.961	1	-3
586.150	1	2
587.339	1	-4
588.528	1	1
589.717	1	5
590.905	1	6
592.094	1	12
593.283	1	6
594.471	1	-3
595.660	1	5
596.848	1	3
598.037	1	-2
599.225	1	8
600.413	1	5
601.602	1	1
602.790	1	9
603.978	1	-3
605.166	1	7
606.355	1	-7
607.543	1	-1
608.731	1	-13
609.919	1	-7
611.107	1	7
612.295	1	10
613.483	1	7
614.671	1	-2
615.858	1	0
617.046	1	10
618.234	1	-1
619.422	1	16
620.609	1	7
621.797	1	-3
622.985	1	1
624.172	1	8
625.360	1	3
626.547	1	-3
627.735	1	13
628.922	1	16
630.109	1	-4
631.297	1	-6
632.484	1	12
633.671	1	8
634.858	1	6
636.045	1	-4
637.232	1	4
638.419	1	-4
639.606	1	6
640.793	1	-1
641.980	1	14
643.167	1	4
644.354	1	5
645.541	1	11
646.728	1	7
647.914	1	9
649.101	1	5
650.288	1	8
651.474	1	7
652.661	1	5
653.847	1	4
655.034	1	-6
656.220	1	14
657.406	1	-3
658.593	1	2
659.779	1	7
660.965	1	-5
662.152	1	3
663.338	1	7
664.524	1	13
665.710	1	9
666.896	1	4
668.082	1	0
669.268	1	-6
670.454	1	9
671.640	1	7
672.826	1	11
674.011	1	5
675.197	1	7
676.383	1	7
677.569	1	3
678.754	1	3
679.940	1	1
681.125	1	-6
682.311	1	6
683.496	1	0
684.682	1	8
685.867	1	3
687.053	1	22
688.238	1	10
688.746	1	2

File: GaN_sample D_spot15_UVVIS_150 K_200um_450 ms 2x2mm1_178.txt
340.368	1	7
341.565	1	4
342.763	1	3
343.960	1	3
345.157	1	12
346.354	1	4
347.552	1	17
348.749	1	20
349.946	1	-1
351.143	1	5
352.340	1	10
353.537	1	-2
354.734	1	11
355.931	1	0
357.127	1	12
358.324	1	14
359.521	1	22
360.718	1	16
361.914	1	17
363.111	1	8
364.308	1	22
365.504	1	17
366.701	1	30
367.897	1	26
369.093	1	36
370.290	1	28
371.486	1	30
372.682	1	15
373.879	1	16
375.075	1	5
376.271	1	12
377.467	1	21
378.663	1	11
379.859	1	3
381.055	1	2
382.251	1	5
383.447	1	-1
384.643	1	3
385.839	1	10
387.035	1	13
388.230	1	2
389.426	1	0
390.622	1	0
391.817	1	0
393.013	1	3
394.208	1	7
395.404	1	5
396.599	1	6
397.795	1	7
398.990	1	8
400.186	1	7
401.381	1	-3
402.576	1	12
403.771	1	6
404.967	1	13
406.162	1	5
407.357	1	-2
408.552	1	0
409.747	1	5
410.942	1	13
412.137	1	11
413.332	1	5
414.526	1	3
415.721	1	9
416.916	1	3
418.111	1	11
419.305	1	12
420.500	1	13
421.695	1	11
422.889	1	13
424.084	1	1
425.278	1	8
426.472	1	16
427.667	1	-7
428.861	1	4
430.055	1	16
431.250	1	8
432.444	1	10
433.638	1	11
434.832	1	10
436.026	1	9
437.220	1	10
438.414	1	4
439.608	1	1
440.802	1	5
441.996	1	3
443.190	1	9
444.384	1	15
445.578	1	0
446.771	1	4
447.965	1	9
449.159	1	-4
450.352	1	7
451.546	1	8
452.739	1	6
453.933	1	-4
455.126	1	5
456.320	1	1
457.513	1	1
458.706	1	10
459.899	1	-5
461.093	1	7
462.286	1	3
463.479	1	-1
464.672	1	11
465.865	1	0
467.058	1	0
468.251	1	0
469.444	1	6
470.637	1	-5
471.830	1	8
473.023	1	7
474.215	1	8
475.408	1	10
476.601	1	1
477.793	1	-3
478.986	1	8
480.179	1	5
481.371	1	-3
482.564	1	2
483.756	1	9
484.948	1	5
486.141	1	4
487.333	1	-2
488.525	1	-5
489.718	1	0
490.910	1	11
492.102	1	0
493.294	1	-9
494.486	1	-2
495.678	1	5
496.870	1	2
498.062	1	7
499.254	1	1
500.446	1	-4
501.638	1	10
502.829	1	10
504.021	1	4
505.213	1	2
506.404	1	5
507.596	1	3
508.788	1	8
509.979	1	4
511.171	1	10
512.362	1	10
513.553	1	-1
514.745	1	1
515.936	1	8
517.127	1	15
518.319	1	2
519.510	1	-2
520.701	1	10
521.892	1	2
523.083	1	9
524.274	1	13
525.465	1	14
526.656	1	15
527.847	1	-7
529.038	1	8
530.229	1	13
531.419	1	12
532.610	1	9
533.801	1	1
534.991	1	3
536.182	1	0
537.373	1	3
538.563	1	3
539.754	1	0
540.944	1	9
542.134	1	6
543.325	1	2
544.515	1	8
545.705	1	8
546.896	1	6
548.086	1	9
549.276	1	4
550.466	1	4
551.656	1	12
552.846	1	18
554.036	1	5
555.226	1	9
556.416	1	12
557.606	1	-8
558.796	1	16
559.986	1	10
561.175	1	-4
562.365	1	14
563.555	1	6
564.744	1	10
565.934	1	7
567.123	1	2
568.313	1	10
569.502	1	8
570.692	1	8
571.881	1	1
573.070	1	-5
574.260	1	4
575.449	1	7
576.638	1	15
577.827	1	3
579.016	1	-1
580.205	1	6
581.394	1	6
582.583	1	3
583.772	1	10
584.961	1	1
586.150	1	8
587.339	1	5
588.528	1	-9
589.717	1	-3
590.905	1	6
592.094	1	10
593.283	1	5
594.471	1	-7
595.660	1	10
596.848	1	4
598.037	1	6
599.225	1	-2
600.413	1	-2
601.602	1	2
602.790	1	5
603.978	1	5
605.166	1	-3
606.355	1	-8
607.543	1	4
608.731	1	-10
609.919	1	-8
611.107	1	14
612.295	1	1
613.483	1	4
614.671	1	7
615.858	1	-1
617.046	1	0
618.234	1	3
619.422	1	19
620.609	1	-1
621.797	1	-2
622.985	1	-1
624.172	1	3
625.360	1	1
626.547	1	-3
627.735	1	6
628.922	1	5
630.109	1	-4
631.297	1	7
632.484	1	9
633.671	1	4
634.858	1	4
636.045	1	-2
637.232	1	3
638.419	1	5
639.606	1	15
640.793	1	-1
641.980	1	11
643.167	1	8
644.354	1	11
645.541	1	3
646.728	1	13
647.914	1	1
649.101	1	-4
650.288	1	7
651.474	1	5
652.661	1	5
653.847	1	2
655.034	1	-1
656.220	1	6
657.406	1	-6
658.593	1	4
659.779	1	2
660.965	1	4
662.152	1	9
663.338	1	-5
664.524	1	10
665.710	1	2
666.896	1	8
668.082	1	10
669.268	1	-9
670.454	1	4
671.640	1	8
672.826	1	2
674.011	1	5
675.197	1	18
676.383	1	1
677.569	1	20
678.754	1	6
679.940	1	0
681.125	1	4
682.311	1	5
683.496	1	-1
684.682	1	14
685.867	1	1
687.053	1	14
688.238	1	7
688.746	1	-1