Folder: cryo-il_analysis/Data/GaN_170K_550ms (part 12)

File: GaN_sample D_spot 18_UVVIS_170 K_200um_550 ms 2x2mm1_118.txt
340.368	1	10
341.565	1	6
342.763	1	5
343.960	1	-1
345.157	1	6
346.354	1	-8
347.552	1	10
348.749	1	13
349.946	1	7
351.143	1	5
352.340	1	7
353.537	1	1
354.734	1	10
355.931	1	12
357.127	1	9
358.324	1	12
359.521	1	15
360.718	1	13
361.914	1	17
363.111	1	33
364.308	1	47
365.504	1	51
366.701	1	57
367.897	1	56
369.093	1	57
370.290	1	57
371.486	1	39
372.682	1	42
373.879	1	45
375.075	1	46
376.271	1	38
377.467	1	22
378.663	1	13
379.859	1	13
381.055	1	11
382.251	1	18
383.447	1	13
384.643	1	9
385.839	1	-2
387.035	1	17
388.230	1	-1
389.426	1	7
390.622	1	5
391.817	1	-5
393.013	1	1
394.208	1	13
395.404	1	12
396.599	1	5
397.795	1	3
398.990	1	-11
400.186	1	0
401.381	1	21
402.576	1	3
403.771	1	1
404.967	1	4
406.162	1	8
407.357	1	4
408.552	1	-2
409.747	1	3
410.942	1	0
412.137	1	-10
413.332	1	-9
414.526	1	7
415.721	1	2
416.916	1	4
418.111	1	11
419.305	1	-2
420.500	1	-1
421.695	1	-10
422.889	1	6
424.084	1	9
425.278	1	0
426.472	1	3
427.667	1	2
428.861	1	6
430.055	1	-1
431.250	1	11
432.444	1	3
433.638	1	8
434.832	1	10
436.026	1	5
437.220	1	8
438.414	1	-12
439.608	1	-1
440.802	1	6
441.996	1	1
443.190	1	1
444.384	1	0
445.578	1	11
446.771	1	-11
447.965	1	2
449.159	1	-3
450.352	1	-5
451.546	1	-4
452.739	1	-3
453.933	1	8
455.126	1	6
456.320	1	8
457.513	1	18
458.706	1	4
459.899	1	8
461.093	1	17
462.286	1	-1
463.479	1	2
464.672	1	2
465.865	1	-2
467.058	1	5
468.251	1	8
469.444	1	-3
470.637	1	-1
471.830	1	-8
473.023	1	-2
474.215	1	2
475.408	1	-3
476.601	1	2
477.793	1	6
478.986	1	1
480.179	1	-5
481.371	1	4
482.564	1	-1
483.756	1	5
484.948	1	-7
486.141	1	5
487.333	1	11
488.525	1	16
489.718	1	10
490.910	1	-1
492.102	1	1
493.294	1	1
494.486	1	16
495.678	1	7
496.870	1	5
498.062	1	5
499.254	1	10
500.446	1	11
501.638	1	2
502.829	1	8
504.021	1	10
505.213	1	9
506.404	1	7
507.596	1	7
508.788	1	-2
509.979	1	6
511.171	1	9
512.362	1	6
513.553	1	-1
514.745	1	8
515.936	1	9
517.127	1	8
518.319	1	10
519.510	1	14
520.701	1	17
521.892	1	13
523.083	1	9
524.274	1	4
525.465	1	12
526.656	1	17
527.847	1	9
529.038	1	2
530.229	1	19
531.419	1	11
532.610	1	15
533.801	1	1
534.991	1	11
536.182	1	8
537.373	1	8
538.563	1	8
539.754	1	10
540.944	1	12
542.134	1	13
543.325	1	7
544.515	1	15
545.705	1	7
546.896	1	7
548.086	1	10
549.276	1	10
550.466	1	17
551.656	1	16
552.846	1	8
554.036	1	17
555.226	1	-1
556.416	1	6
557.606	1	2
558.796	1	9
559.986	1	11
561.175	1	3
562.365	1	5
563.555	1	7
564.744	1	2
565.934	1	11
567.123	1	0
568.313	1	6
569.502	1	4
570.692	1	18
571.881	1	-1
573.070	1	8
574.260	1	10
575.449	1	8
576.638	1	13
577.827	1	4
579.016	1	11
580.205	1	3
581.394	1	10
582.583	1	13
583.772	1	-2
584.961	1	2
586.150	1	0
587.339	1	-7
588.528	1	5
589.717	1	11
590.905	1	11
592.094	1	8
593.283	1	11
594.471	1	8
595.660	1	-4
596.848	1	6
598.037	1	5
599.225	1	13
600.413	1	-1
601.602	1	2
602.790	1	7
603.978	1	2
605.166	1	12
606.355	1	15
607.543	1	14
608.731	1	4
609.919	1	11
611.107	1	-7
612.295	1	9
613.483	1	3
614.671	1	13
615.858	1	-2
617.046	1	0
618.234	1	-1
619.422	1	2
620.609	1	4
621.797	1	9
622.985	1	11
624.172	1	6
625.360	1	5
626.547	1	-3
627.735	1	-7
628.922	1	-3
630.109	1	-5
631.297	1	-2
632.484	1	-1
633.671	1	9
634.858	1	7
636.045	1	0
637.232	1	8
638.419	1	-4
639.606	1	-4
640.793	1	-4
641.980	1	2
643.167	1	-3
644.354	1	6
645.541	1	6
646.728	1	1
647.914	1	6
649.101	1	3
650.288	1	-1
651.474	1	14
652.661	1	0
653.847	1	9
655.034	1	-6
656.220	1	9
657.406	1	4
658.593	1	5
659.779	1	6
660.965	1	8
662.152	1	-1
663.338	1	5
664.524	1	-4
665.710	1	6
666.896	1	1
668.082	1	4
669.268	1	12
670.454	1	1
671.640	1	8
672.826	1	3
674.011	1	9
675.197	1	14
676.383	1	0
677.569	1	-6
678.754	1	5
679.940	1	11
681.125	1	-5
682.311	1	2
683.496	1	2
684.682	1	9
685.867	1	4
687.053	1	1
688.238	1	-7
688.746	1	4

File: GaN_sample D_spot 18_UVVIS_170 K_200um_550 ms 2x2mm1_119.txt
340.368	1	-5
341.565	1	10
342.763	1	5
343.960	1	2
345.157	1	-2
346.354	1	-9
347.552	1	6
348.749	1	13
349.946	1	16
351.143	1	-1
352.340	1	3
353.537	1	13
354.734	1	8
355.931	1	10
357.127	1	6
358.324	1	14
359.521	1	18
360.718	1	10
361.914	1	19
363.111	1	37
364.308	1	33
365.504	1	45
366.701	1	53
367.897	1	55
369.093	1	51
370.290	1	45
371.486	1	45
372.682	1	51
373.879	1	35
375.075	1	32
376.271	1	35
377.467	1	22
378.663	1	22
379.859	1	18
381.055	1	19
382.251	1	24
383.447	1	15
384.643	1	7
385.839	1	4
387.035	1	15
388.230	1	7
389.426	1	12
390.622	1	4
391.817	1	7
393.013	1	13
394.208	1	9
395.404	1	15
396.599	1	-3
397.795	1	3
398.990	1	-5
400.186	1	-2
401.381	1	7
402.576	1	4
403.771	1	4
404.967	1	0
406.162	1	8
407.357	1	-7
408.552	1	10
409.747	1	-4
410.942	1	1
412.137	1	-6
413.332	1	3
414.526	1	3
415.721	1	-4
416.916	1	-2
418.111	1	14
419.305	1	5
420.500	1	6
421.695	1	-10
422.889	1	4
424.084	1	17
425.278	1	1
426.472	1	3
427.667	1	1
428.861	1	5
430.055	1	-4
431.250	1	2
432.444	1	8
433.638	1	5
434.832	1	0
436.026	1	4
437.220	1	2
438.414	1	-3
439.608	1	-1
440.802	1	8
441.996	1	3
443.190	1	-3
444.384	1	7
445.578	1	7
446.771	1	-5
447.965	1	2
449.159	1	1
450.352	1	-10
451.546	1	-3
452.739	1	0
453.933	1	-9
455.126	1	21
456.320	1	4
457.513	1	11
458.706	1	9
459.899	1	6
461.093	1	8
462.286	1	-6
463.479	1	-7
464.672	1	-5
465.865	1	6
467.058	1	9
468.251	1	0
469.444	1	4
470.637	1	1
471.830	1	5
473.023	1	5
474.215	1	5
475.408	1	-2
476.601	1	2
477.793	1	9
478.986	1	-9
480.179	1	-2
481.371	1	-1
482.564	1	2
483.756	1	8
484.948	1	3
486.141	1	6
487.333	1	5
488.525	1	12
489.718	1	4
490.910	1	7
492.102	1	14
493.294	1	-6
494.486	1	12
495.678	1	14
496.870	1	2
498.062	1	-6
499.254	1	9
500.446	1	8
501.638	1	-2
502.829	1	8
504.021	1	11
505.213	1	7
506.404	1	4
507.596	1	14
508.788	1	1
509.979	1	7
511.171	1	8
512.362	1	5
513.553	1	5
514.745	1	8
515.936	1	5
517.127	1	4
518.319	1	16
519.510	1	20
520.701	1	11
521.892	1	1
523.083	1	7
524.274	1	8
525.465	1	4
526.656	1	22
527.847	1	6
529.038	1	7
530.229	1	26
531.419	1	23
532.610	1	9
533.801	1	15
534.991	1	2
536.182	1	11
537.373	1	7
538.563	1	5
539.754	1	10
540.944	1	-4
542.134	1	9
543.325	1	13
544.515	1	11
545.705	1	20
546.896	1	4
548.086	1	8
549.276	1	10
550.466	1	1
551.656	1	14
552.846	1	6
554.036	1	12
555.226	1	-1
556.416	1	9
557.606	1	13
558.796	1	0
559.986	1	9
561.175	1	1
562.365	1	7
563.555	1	4
564.744	1	8
565.934	1	9
567.123	1	13
568.313	1	15
569.502	1	1
570.692	1	16
571.881	1	-1
573.070	1	12
574.260	1	14
575.449	1	5
576.638	1	7
577.827	1	-3
579.016	1	6
580.205	1	11
581.394	1	10
582.583	1	5
583.772	1	3
584.961	1	1
586.150	1	-5
587.339	1	3
588.528	1	-3
589.717	1	9
590.905	1	12
592.094	1	13
593.283	1	2
594.471	1	7
595.660	1	3
596.848	1	6
598.037	1	-1
599.225	1	3
600.413	1	-6
601.602	1	8
602.790	1	18
603.978	1	3
605.166	1	9
606.355	1	0
607.543	1	12
608.731	1	5
609.919	1	5
611.107	1	6
612.295	1	8
613.483	1	-1
614.671	1	12
615.858	1	-10
617.046	1	5
618.234	1	13
619.422	1	6
620.609	1	4
621.797	1	7
622.985	1	1
624.172	1	-3
625.360	1	1
626.547	1	2
627.735	1	-7
628.922	1	-7
630.109	1	-2
631.297	1	-2
632.484	1	5
633.671	1	11
634.858	1	0
636.045	1	6
637.232	1	-4
638.419	1	1
639.606	1	5
640.793	1	-1
641.980	1	-1
643.167	1	4
644.354	1	8
645.541	1	8
646.728	1	4
647.914	1	7
649.101	1	5
650.288	1	6
651.474	1	9
652.661	1	8
653.847	1	5
655.034	1	-1
656.220	1	6
657.406	1	2
658.593	1	-7
659.779	1	6
660.965	1	15
662.152	1	-1
663.338	1	14
664.524	1	-1
665.710	1	8
666.896	1	1
668.082	1	13
669.268	1	0
670.454	1	3
671.640	1	5
672.826	1	4
674.011	1	9
675.197	1	8
676.383	1	4
677.569	1	0
678.754	1	4
679.940	1	11
681.125	1	7
682.311	1	-6
683.496	1	12
684.682	1	0
685.867	1	6
687.053	1	1
688.238	1	-2
688.746	1	-6

File: GaN_sample D_spot 18_UVVIS_170 K_200um_550 ms 2x2mm1_122.txt
340.368	1	0
341.565	1	3
342.763	1	7
343.960	1	3
345.157	1	-2
346.354	1	-9
347.552	1	17
348.749	1	9
349.946	1	13
351.143	1	0
352.340	1	10
353.537	1	9
354.734	1	10
355.931	1	11
357.127	1	9
358.324	1	10
359.521	1	12
360.718	1	22
361.914	1	20
363.111	1	34
364.308	1	32
365.504	1	42
366.701	1	56
367.897	1	52
369.093	1	49
370.290	1	49
371.486	1	38
372.682	1	48
373.879	1	41
375.075	1	38
376.271	1	34
377.467	1	31
378.663	1	23
379.859	1	16
381.055	1	19
382.251	1	7
383.447	1	19
384.643	1	2
385.839	1	6
387.035	1	6
388.230	1	3
389.426	1	6
390.622	1	12
391.817	1	4
393.013	1	8
394.208	1	4
395.404	1	8
396.599	1	-11
397.795	1	5
398.990	1	-11
400.186	1	5
401.381	1	13
402.576	1	3
403.771	1	0
404.967	1	4
406.162	1	9
407.357	1	-6
408.552	1	3
409.747	1	4
410.942	1	5
412.137	1	0
413.332	1	3
414.526	1	5
415.721	1	1
416.916	1	-7
418.111	1	7
419.305	1	4
420.500	1	4
421.695	1	-1
422.889	1	-7
424.084	1	15
425.278	1	-7
426.472	1	6
427.667	1	4
428.861	1	7
430.055	1	1
431.250	1	8
432.444	1	1
433.638	1	7
434.832	1	5
436.026	1	3
437.220	1	0
438.414	1	-5
439.608	1	3
440.802	1	6
441.996	1	8
443.190	1	4
444.384	1	8
445.578	1	2
446.771	1	-8
447.965	1	4
449.159	1	-1
450.352	1	-5
451.546	1	-6
452.739	1	5
453.933	1	-4
455.126	1	7
456.320	1	-6
457.513	1	14
458.706	1	6
459.899	1	1
461.093	1	13
462.286	1	-3
463.479	1	1
464.672	1	-4
465.865	1	4
467.058	1	9
468.251	1	2
469.444	1	4
470.637	1	10
471.830	1	-5
473.023	1	6
474.215	1	-8
475.408	1	-1
476.601	1	3
477.793	1	3
478.986	1	-8
480.179	1	7
481.371	1	5
482.564	1	-8
483.756	1	7
484.948	1	2
486.141	1	17
487.333	1	3
488.525	1	9
489.718	1	13
490.910	1	6
492.102	1	1
493.294	1	1
494.486	1	12
495.678	1	7
496.870	1	7
498.062	1	5
499.254	1	19
500.446	1	8
501.638	1	-2
502.829	1	9
504.021	1	17
505.213	1	0
506.404	1	10
507.596	1	8
508.788	1	-1
509.979	1	5
511.171	1	12
512.362	1	6
513.553	1	7
514.745	1	12
515.936	1	7
517.127	1	13
518.319	1	13
519.510	1	11
520.701	1	8
521.892	1	11
523.083	1	2
524.274	1	-1
525.465	1	17
526.656	1	7
527.847	1	13
529.038	1	7
530.229	1	22
531.419	1	13
532.610	1	4
533.801	1	11
534.991	1	3
536.182	1	10
537.373	1	11
538.563	1	5
539.754	1	6
540.944	1	9
542.134	1	9
543.325	1	13
544.515	1	12
545.705	1	11
546.896	1	1
548.086	1	10
549.276	1	12
550.466	1	4
551.656	1	9
552.846	1	7
554.036	1	16
555.226	1	2
556.416	1	8
557.606	1	13
558.796	1	3
559.986	1	7
561.175	1	0
562.365	1	7
563.555	1	6
564.744	1	8
565.934	1	10
567.123	1	9
568.313	1	-1
569.502	1	11
570.692	1	16
571.881	1	-1
573.070	1	10
574.260	1	12
575.449	1	9
576.638	1	12
577.827	1	2
579.016	1	10
580.205	1	8
581.394	1	3
582.583	1	10
583.772	1	1
584.961	1	-2
586.150	1	-6
587.339	1	3
588.528	1	8
589.717	1	7
590.905	1	6
592.094	1	4
593.283	1	11
594.471	1	13
595.660	1	5
596.848	1	13
598.037	1	4
599.225	1	13
600.413	1	-6
601.602	1	2
602.790	1	11
603.978	1	10
605.166	1	17
606.355	1	9
607.543	1	10
608.731	1	4
609.919	1	2
611.107	1	-3
612.295	1	2
613.483	1	0
614.671	1	13
615.858	1	-2
617.046	1	4
618.234	1	7
619.422	1	-7
620.609	1	5
621.797	1	-2
622.985	1	8
624.172	1	6
625.360	1	-1
626.547	1	4
627.735	1	-5
628.922	1	-7
630.109	1	0
631.297	1	-8
632.484	1	-4
633.671	1	4
634.858	1	11
636.045	1	13
637.232	1	1
638.419	1	-8
639.606	1	-4
640.793	1	-2
641.980	1	-8
643.167	1	1
644.354	1	1
645.541	1	5
646.728	1	11
647.914	1	5
649.101	1	1
650.288	1	-3
651.474	1	9
652.661	1	2
653.847	1	5
655.034	1	10
656.220	1	0
657.406	1	1
658.593	1	4
659.779	1	4
660.965	1	7
662.152	1	0
663.338	1	3
664.524	1	2
665.710	1	10
666.896	1	-2
668.082	1	5
669.268	1	0
670.454	1	-4
671.640	1	7
672.826	1	3
674.011	1	6
675.197	1	6
676.383	1	-3
677.569	1	-2
678.754	1	7
679.940	1	10
681.125	1	1
682.311	1	4
683.496	1	5
684.682	1	9
685.867	1	12
687.053	1	-5
688.238	1	-2
688.746	1	-1

File: GaN_sample D_spot 18_UVVIS_170 K_200um_550 ms 2x2mm1_128.txt
340.368	1	6
341.565	1	5
342.763	1	5
343.960	1	0
345.157	1	4
346.354	1	-5
347.552	1	14
348.749	1	7
349.946	1	11
351.143	1	8
352.340	1	11
353.537	1	10
354.734	1	10
355.931	1	12
357.127	1	-6
358.324	1	18
359.521	1	18
360.718	1	13
361.914	1	18
363.111	1	25
364.308	1	32
365.504	1	25
366.701	1	44
367.897	1	50
369.093	1	37
370.290	1	55
371.486	1	36
372.682	1	39
373.879	1	40
375.075	1	23
376.271	1	12
377.467	1	29
378.663	1	12
379.859	1	22
381.055	1	11
382.251	1	11
383.447	1	17
384.643	1	6
385.839	1	-1
387.035	1	5
388.230	1	10
389.426	1	19
390.622	1	6
391.817	1	7
393.013	1	1
394.208	1	11
395.404	1	12
396.599	1	-4
397.795	1	9
398.990	1	-7
400.186	1	3
401.381	1	17
402.576	1	8
403.771	1	4
404.967	1	5
406.162	1	5
407.357	1	3
408.552	1	3
409.747	1	0
410.942	1	-5
412.137	1	-5
413.332	1	-10
414.526	1	4
415.721	1	8
416.916	1	-6
418.111	1	8
419.305	1	-3
420.500	1	-4
421.695	1	-3
422.889	1	-2
424.084	1	15
425.278	1	1
426.472	1	5
427.667	1	6
428.861	1	1
430.055	1	-2
431.250	1	12
432.444	1	1
433.638	1	3
434.832	1	10
436.026	1	-2
437.220	1	3
438.414	1	-6
439.608	1	4
440.802	1	1
441.996	1	8
443.190	1	0
444.384	1	-1
445.578	1	10
446.771	1	-9
447.965	1	6
449.159	1	-1
450.352	1	0
451.546	1	-8
452.739	1	-2
453.933	1	8
455.126	1	9
456.320	1	4
457.513	1	3
458.706	1	10
459.899	1	2
461.093	1	8
462.286	1	1
463.479	1	-1
464.672	1	1
465.865	1	5
467.058	1	2
468.251	1	8
469.444	1	0
470.637	1	-4
471.830	1	2
473.023	1	4
474.215	1	0
475.408	1	2
476.601	1	5
477.793	1	10
478.986	1	3
480.179	1	-4
481.371	1	-1
482.564	1	0
483.756	1	7
484.948	1	-4
486.141	1	4
487.333	1	-3
488.525	1	16
489.718	1	6
490.910	1	-2
492.102	1	9
493.294	1	2
494.486	1	3
495.678	1	8
496.870	1	3
498.062	1	2
499.254	1	13
500.446	1	7
501.638	1	1
502.829	1	0
504.021	1	0
505.213	1	3
506.404	1	3
507.596	1	16
508.788	1	-1
509.979	1	17
511.171	1	16
512.362	1	8
513.553	1	11
514.745	1	1
515.936	1	9
517.127	1	9
518.319	1	14
519.510	1	12
520.701	1	8
521.892	1	9
523.083	1	13
524.274	1	6
525.465	1	14
526.656	1	17
527.847	1	8
529.038	1	-4
530.229	1	13
531.419	1	12
532.610	1	15
533.801	1	13
534.991	1	8
536.182	1	10
537.373	1	11
538.563	1	12
539.754	1	11
540.944	1	-1
542.134	1	6
543.325	1	12
544.515	1	11
545.705	1	8
546.896	1	16
548.086	1	8
549.276	1	9
550.466	1	3
551.656	1	13
552.846	1	7
554.036	1	10
555.226	1	-2
556.416	1	5
557.606	1	15
558.796	1	9
559.986	1	19
561.175	1	-6
562.365	1	12
563.555	1	9
564.744	1	10
565.934	1	14
567.123	1	3
568.313	1	6
569.502	1	-3
570.692	1	10
571.881	1	-4
573.070	1	7
574.260	1	4
575.449	1	7
576.638	1	15
577.827	1	-5
579.016	1	6
580.205	1	6
581.394	1	10
582.583	1	8
583.772	1	2
584.961	1	10
586.150	1	0
587.339	1	0
588.528	1	5
589.717	1	12
590.905	1	13
592.094	1	11
593.283	1	5
594.471	1	3
595.660	1	9
596.848	1	-1
598.037	1	4
599.225	1	10
600.413	1	-5
601.602	1	10
602.790	1	14
603.978	1	5
605.166	1	10
606.355	1	4
607.543	1	5
608.731	1	4
609.919	1	-1
611.107	1	-6
612.295	1	1
613.483	1	1
614.671	1	13
615.858	1	10
617.046	1	6
618.234	1	1
619.422	1	-4
620.609	1	7
621.797	1	-1
622.985	1	10
624.172	1	8
625.360	1	6
626.547	1	2
627.735	1	-10
628.922	1	-8
630.109	1	6
631.297	1	-9
632.484	1	-6
633.671	1	5
634.858	1	12
636.045	1	3
637.232	1	7
638.419	1	-3
639.606	1	-2
640.793	1	-4
641.980	1	-4
643.167	1	7
644.354	1	-4
645.541	1	8
646.728	1	3
647.914	1	1
649.101	1	-4
650.288	1	5
651.474	1	11
652.661	1	10
653.847	1	5
655.034	1	3
656.220	1	-12
657.406	1	0
658.593	1	1
659.779	1	2
660.965	1	6
662.152	1	-1
663.338	1	13
664.524	1	7
665.710	1	6
666.896	1	-4
668.082	1	10
669.268	1	-5
670.454	1	3
671.640	1	1
672.826	1	0
674.011	1	7
675.197	1	4
676.383	1	1
677.569	1	0
678.754	1	-1
679.940	1	16
681.125	1	14
682.311	1	0
683.496	1	11
684.682	1	3
685.867	1	6
687.053	1	-3
688.238	1	-3
688.746	1	-3

File: GaN_sample D_spot 18_UVVIS_170 K_200um_550 ms 2x2mm1_131.txt
340.368	1	2
341.565	1	1
342.763	1	9
343.960	1	0
345.157	1	-1
346.354	1	-7
347.552	1	6
348.749	1	13
349.946	1	12
351.143	1	2
352.340	1	6
353.537	1	-3
354.734	1	4
355.931	1	17
357.127	1	2
358.324	1	6
359.521	1	12
360.718	1	7
361.914	1	16
363.111	1	23
364.308	1	27
365.504	1	39
366.701	1	43
367.897	1	52
369.093	1	34
370.290	1	51
371.486	1	31
372.682	1	40
373.879	1	41
375.075	1	36
376.271	1	21
377.467	1	12
378.663	1	11
379.859	1	18
381.055	1	10
382.251	1	17
383.447	1	16
384.643	1	11
385.839	1	8
387.035	1	11
388.230	1	6
389.426	1	13
390.622	1	10
391.817	1	2
393.013	1	1
394.208	1	13
395.404	1	14
396.599	1	-5
397.795	1	-6
398.990	1	2
400.186	1	2
401.381	1	9
402.576	1	11
403.771	1	3
404.967	1	15
406.162	1	3
407.357	1	-2
408.552	1	1
409.747	1	-2
410.942	1	5
412.137	1	-3
413.332	1	3
414.526	1	13
415.721	1	3
416.916	1	-3
418.111	1	3
419.305	1	1
420.500	1	-3
421.695	1	-2
422.889	1	-7
424.084	1	11
425.278	1	-2
426.472	1	3
427.667	1	-3
428.861	1	3
430.055	1	-3
431.250	1	11
432.444	1	6
433.638	1	-2
434.832	1	1
436.026	1	4
437.220	1	-6
438.414	1	-6
439.608	1	1
440.802	1	8
441.996	1	-6
443.190	1	6
444.384	1	-8
445.578	1	9
446.771	1	-12
447.965	1	7
449.159	1	-5
450.352	1	-3
451.546	1	-12
452.739	1	3
453.933	1	-1
455.126	1	0
456.320	1	0
457.513	1	14
458.706	1	13
459.899	1	2
461.093	1	11
462.286	1	-4
463.479	1	3
464.672	1	-8
465.865	1	1
467.058	1	8
468.251	1	4
469.444	1	0
470.637	1	6
471.830	1	-1
473.023	1	8
474.215	1	8
475.408	1	-5
476.601	1	5
477.793	1	8
478.986	1	7
480.179	1	-8
481.371	1	-6
482.564	1	4
483.756	1	7
484.948	1	-8
486.141	1	13
487.333	1	-6
488.525	1	6
489.718	1	7
490.910	1	0
492.102	1	4
493.294	1	-4
494.486	1	16
495.678	1	3
496.870	1	0
498.062	1	-2
499.254	1	5
500.446	1	-5
501.638	1	-1
502.829	1	13
504.021	1	9
505.213	1	6
506.404	1	6
507.596	1	10
508.788	1	4
509.979	1	11
511.171	1	7
512.362	1	3
513.553	1	10
514.745	1	5
515.936	1	13
517.127	1	13
518.319	1	11
519.510	1	9
520.701	1	15
521.892	1	4
523.083	1	5
524.274	1	10
525.465	1	15
526.656	1	16
527.847	1	3
529.038	1	7
530.229	1	15
531.419	1	24
532.610	1	7
533.801	1	16
534.991	1	10
536.182	1	0
537.373	1	1
538.563	1	15
539.754	1	6
540.944	1	3
542.134	1	5
543.325	1	8
544.515	1	5
545.705	1	6
546.896	1	10
548.086	1	4
549.276	1	11
550.466	1	7
551.656	1	14
552.846	1	7
554.036	1	5
555.226	1	2
556.416	1	4
557.606	1	5
558.796	1	13
559.986	1	13
561.175	1	-6
562.365	1	12
563.555	1	3
564.744	1	7
565.934	1	11
567.123	1	4
568.313	1	7
569.502	1	7
570.692	1	11
571.881	1	2
573.070	1	-1
574.260	1	7
575.449	1	7
576.638	1	18
577.827	1	5
579.016	1	10
580.205	1	-5
581.394	1	13
582.583	1	5
583.772	1	2
584.961	1	6
586.150	1	-3
587.339	1	2
588.528	1	-5
589.717	1	10
590.905	1	15
592.094	1	8
593.283	1	2
594.471	1	9
595.660	1	7
596.848	1	8
598.037	1	5
599.225	1	-4
600.413	1	-1
601.602	1	10
602.790	1	10
603.978	1	2
605.166	1	8
606.355	1	18
607.543	1	9
608.731	1	-2
609.919	1	2
611.107	1	-2
612.295	1	0
613.483	1	-2
614.671	1	12
615.858	1	-2
617.046	1	5
618.234	1	-3
619.422	1	-4
620.609	1	1
621.797	1	2
622.985	1	7
624.172	1	-2
625.360	1	5
626.547	1	-3
627.735	1	-8
628.922	1	-9
630.109	1	0
631.297	1	-1
632.484	1	3
633.671	1	15
634.858	1	-1
636.045	1	6
637.232	1	7
638.419	1	-1
639.606	1	-5
640.793	1	-1
641.980	1	-4
643.167	1	0
644.354	1	1
645.541	1	0
646.728	1	3
647.914	1	-1
649.101	1	4
650.288	1	-2
651.474	1	9
652.661	1	0
653.847	1	-2
655.034	1	6
656.220	1	0
657.406	1	7
658.593	1	9
659.779	1	14
660.965	1	5
662.152	1	-7
663.338	1	8
664.524	1	-2
665.710	1	10
666.896	1	5
668.082	1	16
669.268	1	2
670.454	1	-4
671.640	1	6
672.826	1	-6
674.011	1	11
675.197	1	7
676.383	1	4
677.569	1	-3
678.754	1	7
679.940	1	3
681.125	1	7
682.311	1	7
683.496	1	5
684.682	1	9
685.867	1	11
687.053	1	-6
688.238	1	-3
688.746	1	1

File: GaN_sample D_spot 18_UVVIS_170 K_200um_550 ms 2x2mm1_134.txt
340.368	1	-2
341.565	1	6
342.763	1	2
343.960	1	6
345.157	1	-7
346.354	1	-9
347.552	1	11
348.749	1	12
349.946	1	9
351.143	1	1
352.340	1	2
353.537	1	14
354.734	1	10
355.931	1	-3
357.127	1	2
358.324	1	7
359.521	1	12
360.718	1	20
361.914	1	21
363.111	1	28
364.308	1	25
365.504	1	44
366.701	1	49
367.897	1	44
369.093	1	35
370.290	1	51
371.486	1	34
372.682	1	38
373.879	1	41
375.075	1	38
376.271	1	24
377.467	1	18
378.663	1	10
379.859	1	15
381.055	1	9
382.251	1	15
383.447	1	17
384.643	1	8
385.839	1	1
387.035	1	1
388.230	1	1
389.426	1	4
390.622	1	11
391.817	1	-1
393.013	1	7
394.208	1	14
395.404	1	12
396.599	1	-3
397.795	1	-12
398.990	1	-4
400.186	1	2
401.381	1	20
402.576	1	9
403.771	1	3
404.967	1	9
406.162	1	6
407.357	1	-2
408.552	1	-2
409.747	1	-1
410.942	1	5
412.137	1	-4
413.332	1	-4
414.526	1	8
415.721	1	-7
416.916	1	-7
418.111	1	7
419.305	1	-1
420.500	1	9
421.695	1	-5
422.889	1	3
424.084	1	15
425.278	1	4
426.472	1	-1
427.667	1	7
428.861	1	7
430.055	1	-2
431.250	1	20
432.444	1	11
433.638	1	1
434.832	1	12
436.026	1	1
437.220	1	-1
438.414	1	-2
439.608	1	-4
440.802	1	9
441.996	1	-4
443.190	1	-2
444.384	1	6
445.578	1	9
446.771	1	-4
447.965	1	5
449.159	1	1
450.352	1	-9
451.546	1	1
452.739	1	5
453.933	1	2
455.126	1	8
456.320	1	-1
457.513	1	12
458.706	1	14
459.899	1	-2
461.093	1	4
462.286	1	-4
463.479	1	0
464.672	1	-1
465.865	1	5
467.058	1	2
468.251	1	5
469.444	1	0
470.637	1	3
471.830	1	2
473.023	1	4
474.215	1	7
475.408	1	8
476.601	1	5
477.793	1	6
478.986	1	3
480.179	1	-5
481.371	1	-3
482.564	1	-2
483.756	1	6
484.948	1	10
486.141	1	4
487.333	1	-1
488.525	1	14
489.718	1	13
490.910	1	3
492.102	1	8
493.294	1	-1
494.486	1	8
495.678	1	7
496.870	1	2
498.062	1	4
499.254	1	10
500.446	1	-1
501.638	1	-1
502.829	1	1
504.021	1	8
505.213	1	-1
506.404	1	7
507.596	1	12
508.788	1	8
509.979	1	13
511.171	1	4
512.362	1	2
513.553	1	6
514.745	1	6
515.936	1	7
517.127	1	-3
518.319	1	12
519.510	1	15
520.701	1	14
521.892	1	11
523.083	1	8
524.274	1	8
525.465	1	3
526.656	1	19
527.847	1	5
529.038	1	5
530.229	1	8
531.419	1	16
532.610	1	9
533.801	1	19
534.991	1	3
536.182	1	10
537.373	1	6
538.563	1	2
539.754	1	6
540.944	1	8
542.134	1	7
543.325	1	15
544.515	1	13
545.705	1	15
546.896	1	6
548.086	1	8
549.276	1	13
550.466	1	13
551.656	1	3
552.846	1	12
554.036	1	10
555.226	1	-4
556.416	1	12
557.606	1	7
558.796	1	4
559.986	1	13
561.175	1	-2
562.365	1	2
563.555	1	11
564.744	1	-1
565.934	1	10
567.123	1	5
568.313	1	4
569.502	1	2
570.692	1	6
571.881	1	9
573.070	1	14
574.260	1	5
575.449	1	-1
576.638	1	11
577.827	1	2
579.016	1	11
580.205	1	3
581.394	1	9
582.583	1	4
583.772	1	2
584.961	1	2
586.150	1	-8
587.339	1	3
588.528	1	-1
589.717	1	5
590.905	1	8
592.094	1	8
593.283	1	8
594.471	1	6
595.660	1	5
596.848	1	11
598.037	1	3
599.225	1	4
600.413	1	4
601.602	1	7
602.790	1	15
603.978	1	1
605.166	1	4
606.355	1	6
607.543	1	14
608.731	1	-1
609.919	1	2
611.107	1	0
612.295	1	3
613.483	1	12
614.671	1	10
615.858	1	14
617.046	1	6
618.234	1	4
619.422	1	-6
620.609	1	8
621.797	1	5
622.985	1	-1
624.172	1	7
625.360	1	0
626.547	1	3
627.735	1	-5
628.922	1	-5
630.109	1	-1
631.297	1	3
632.484	1	-5
633.671	1	6
634.858	1	3
636.045	1	8
637.232	1	9
638.419	1	-9
639.606	1	1
640.793	1	0
641.980	1	4
643.167	1	-6
644.354	1	6
645.541	1	-3
646.728	1	1
647.914	1	6
649.101	1	5
650.288	1	2
651.474	1	6
652.661	1	6
653.847	1	4
655.034	1	3
656.220	1	9
657.406	1	0
658.593	1	7
659.779	1	7
660.965	1	9
662.152	1	1
663.338	1	6
664.524	1	1
665.710	1	6
666.896	1	5
668.082	1	9
669.268	1	-8
670.454	1	-6
671.640	1	6
672.826	1	5
674.011	1	5
675.197	1	3
676.383	1	-3
677.569	1	-8
678.754	1	6
679.940	1	4
681.125	1	0
682.311	1	-1
683.496	1	1
684.682	1	4
685.867	1	11
687.053	1	-11
688.238	1	-3
688.746	1	-1