Folder: cryo-il_analysis/Data/GaN_130K_350ms (part 20)

File: GaN_sample F_spot6_UVVIS_130 K_200um_350 ms 2x2mm1_250.txt
340.368	1	3
341.565	1	0
342.763	1	5
343.960	1	-12
345.157	1	-8
346.354	1	-8
347.552	1	2
348.749	1	3
349.946	1	6
351.143	1	-6
352.340	1	7
353.537	1	-3
354.734	1	1
355.931	1	-1
357.127	1	6
358.324	1	8
359.521	1	1
360.718	1	1
361.914	1	10
363.111	1	15
364.308	1	12
365.504	1	7
366.701	1	11
367.897	1	9
369.093	1	15
370.290	1	15
371.486	1	4
372.682	1	6
373.879	1	13
375.075	1	20
376.271	1	3
377.467	1	18
378.663	1	15
379.859	1	1
381.055	1	8
382.251	1	4
383.447	1	2
384.643	1	14
385.839	1	10
387.035	1	14
388.230	1	-7
389.426	1	8
390.622	1	-3
391.817	1	10
393.013	1	4
394.208	1	-3
395.404	1	-8
396.599	1	14
397.795	1	-12
398.990	1	11
400.186	1	1
401.381	1	8
402.576	1	-1
403.771	1	2
404.967	1	1
406.162	1	7
407.357	1	3
408.552	1	0
409.747	1	-1
410.942	1	0
412.137	1	-3
413.332	1	1
414.526	1	4
415.721	1	5
416.916	1	6
418.111	1	12
419.305	1	7
420.500	1	3
421.695	1	8
422.889	1	2
424.084	1	7
425.278	1	3
426.472	1	1
427.667	1	9
428.861	1	0
430.055	1	-3
431.250	1	10
432.444	1	7
433.638	1	10
434.832	1	-6
436.026	1	1
437.220	1	-4
438.414	1	-5
439.608	1	6
440.802	1	-1
441.996	1	-1
443.190	1	0
444.384	1	-10
445.578	1	-2
446.771	1	8
447.965	1	1
449.159	1	6
450.352	1	12
451.546	1	19
452.739	1	4
453.933	1	2
455.126	1	-9
456.320	1	-2
457.513	1	2
458.706	1	2
459.899	1	4
461.093	1	7
462.286	1	3
463.479	1	7
464.672	1	6
465.865	1	-6
467.058	1	0
468.251	1	-2
469.444	1	2
470.637	1	4
471.830	1	0
473.023	1	-2
474.215	1	-1
475.408	1	-2
476.601	1	5
477.793	1	7
478.986	1	-1
480.179	1	5
481.371	1	6
482.564	1	-2
483.756	1	1
484.948	1	-1
486.141	1	0
487.333	1	-10
488.525	1	9
489.718	1	8
490.910	1	2
492.102	1	11
493.294	1	10
494.486	1	8
495.678	1	-2
496.870	1	-4
498.062	1	1
499.254	1	9
500.446	1	1
501.638	1	-2
502.829	1	7
504.021	1	4
505.213	1	2
506.404	1	-3
507.596	1	3
508.788	1	2
509.979	1	4
511.171	1	6
512.362	1	-3
513.553	1	4
514.745	1	-3
515.936	1	15
517.127	1	7
518.319	1	-3
519.510	1	5
520.701	1	-4
521.892	1	7
523.083	1	5
524.274	1	-7
525.465	1	7
526.656	1	-4
527.847	1	6
529.038	1	-2
530.229	1	9
531.419	1	3
532.610	1	5
533.801	1	16
534.991	1	-1
536.182	1	6
537.373	1	1
538.563	1	11
539.754	1	9
540.944	1	0
542.134	1	1
543.325	1	10
544.515	1	8
545.705	1	2
546.896	1	4
548.086	1	5
549.276	1	3
550.466	1	15
551.656	1	2
552.846	1	-7
554.036	1	4
555.226	1	6
556.416	1	10
557.606	1	1
558.796	1	10
559.986	1	2
561.175	1	12
562.365	1	8
563.555	1	7
564.744	1	-2
565.934	1	4
567.123	1	-1
568.313	1	0
569.502	1	9
570.692	1	7
571.881	1	3
573.070	1	-3
574.260	1	7
575.449	1	7
576.638	1	1
577.827	1	-12
579.016	1	-3
580.205	1	-1
581.394	1	4
582.583	1	11
583.772	1	3
584.961	1	4
586.150	1	11
587.339	1	-2
588.528	1	-3
589.717	1	2
590.905	1	17
592.094	1	12
593.283	1	-7
594.471	1	5
595.660	1	2
596.848	1	5
598.037	1	9
599.225	1	-3
600.413	1	6
601.602	1	1
602.790	1	-4
603.978	1	2
605.166	1	14
606.355	1	10
607.543	1	-1
608.731	1	0
609.919	1	9
611.107	1	8
612.295	1	15
613.483	1	-3
614.671	1	3
615.858	1	1
617.046	1	7
618.234	1	-3
619.422	1	4
620.609	1	-5
621.797	1	6
622.985	1	5
624.172	1	-1
625.360	1	2
626.547	1	1
627.735	1	9
628.922	1	-7
630.109	1	6
631.297	1	2
632.484	1	-5
633.671	1	-5
634.858	1	-2
636.045	1	9
637.232	1	-6
638.419	1	-1
639.606	1	2
640.793	1	0
641.980	1	1
643.167	1	3
644.354	1	-3
645.541	1	3
646.728	1	12
647.914	1	-3
649.101	1	-3
650.288	1	8
651.474	1	1
652.661	1	-1
653.847	1	-1
655.034	1	-4
656.220	1	0
657.406	1	0
658.593	1	-3
659.779	1	8
660.965	1	-1
662.152	1	-1
663.338	1	-3
664.524	1	-2
665.710	1	4
666.896	1	11
668.082	1	4
669.268	1	0
670.454	1	-8
671.640	1	-11
672.826	1	3
674.011	1	-1
675.197	1	5
676.383	1	13
677.569	1	-3
678.754	1	0
679.940	1	-3
681.125	1	8
682.311	1	-5
683.496	1	4
684.682	1	-6
685.867	1	-3
687.053	1	5
688.238	1	6
688.746	1	5

File: GaN_sample F_spot6_UVVIS_130 K_200um_350 ms 2x2mm1_252.txt
340.368	1	5
341.565	1	-7
342.763	1	3
343.960	1	-6
345.157	1	-9
346.354	1	1
347.552	1	4
348.749	1	8
349.946	1	7
351.143	1	-4
352.340	1	12
353.537	1	1
354.734	1	-3
355.931	1	7
357.127	1	1
358.324	1	-2
359.521	1	-2
360.718	1	15
361.914	1	7
363.111	1	18
364.308	1	18
365.504	1	4
366.701	1	12
367.897	1	17
369.093	1	14
370.290	1	16
371.486	1	3
372.682	1	5
373.879	1	13
375.075	1	13
376.271	1	12
377.467	1	11
378.663	1	13
379.859	1	9
381.055	1	-5
382.251	1	7
383.447	1	15
384.643	1	4
385.839	1	10
387.035	1	4
388.230	1	1
389.426	1	10
390.622	1	1
391.817	1	12
393.013	1	-1
394.208	1	0
395.404	1	3
396.599	1	6
397.795	1	-11
398.990	1	-1
400.186	1	3
401.381	1	4
402.576	1	8
403.771	1	6
404.967	1	-4
406.162	1	5
407.357	1	7
408.552	1	0
409.747	1	5
410.942	1	-1
412.137	1	-4
413.332	1	-6
414.526	1	11
415.721	1	8
416.916	1	3
418.111	1	7
419.305	1	4
420.500	1	-7
421.695	1	1
422.889	1	0
424.084	1	6
425.278	1	4
426.472	1	-3
427.667	1	7
428.861	1	0
430.055	1	0
431.250	1	8
432.444	1	3
433.638	1	-1
434.832	1	2
436.026	1	11
437.220	1	-4
438.414	1	-2
439.608	1	10
440.802	1	-2
441.996	1	4
443.190	1	6
444.384	1	-3
445.578	1	-8
446.771	1	0
447.965	1	1
449.159	1	-4
450.352	1	7
451.546	1	14
452.739	1	1
453.933	1	12
455.126	1	1
456.320	1	-7
457.513	1	5
458.706	1	2
459.899	1	2
461.093	1	4
462.286	1	5
463.479	1	10
464.672	1	4
465.865	1	-17
467.058	1	3
468.251	1	6
469.444	1	-1
470.637	1	7
471.830	1	0
473.023	1	3
474.215	1	4
475.408	1	6
476.601	1	5
477.793	1	-5
478.986	1	-5
480.179	1	-3
481.371	1	3
482.564	1	0
483.756	1	6
484.948	1	1
486.141	1	4
487.333	1	1
488.525	1	-6
489.718	1	7
490.910	1	-2
492.102	1	11
493.294	1	13
494.486	1	12
495.678	1	1
496.870	1	1
498.062	1	2
499.254	1	13
500.446	1	9
501.638	1	0
502.829	1	-3
504.021	1	1
505.213	1	3
506.404	1	-2
507.596	1	3
508.788	1	-2
509.979	1	6
511.171	1	11
512.362	1	-2
513.553	1	6
514.745	1	4
515.936	1	12
517.127	1	7
518.319	1	-5
519.510	1	-4
520.701	1	-5
521.892	1	4
523.083	1	2
524.274	1	4
525.465	1	4
526.656	1	12
527.847	1	11
529.038	1	-1
530.229	1	4
531.419	1	8
532.610	1	-1
533.801	1	11
534.991	1	7
536.182	1	15
537.373	1	10
538.563	1	8
539.754	1	-4
540.944	1	6
542.134	1	5
543.325	1	2
544.515	1	10
545.705	1	-8
546.896	1	5
548.086	1	-3
549.276	1	-2
550.466	1	7
551.656	1	7
552.846	1	-13
554.036	1	-1
555.226	1	3
556.416	1	12
557.606	1	4
558.796	1	11
559.986	1	3
561.175	1	7
562.365	1	7
563.555	1	10
564.744	1	-5
565.934	1	5
567.123	1	8
568.313	1	-3
569.502	1	-4
570.692	1	5
571.881	1	0
573.070	1	-1
574.260	1	4
575.449	1	0
576.638	1	2
577.827	1	1
579.016	1	2
580.205	1	-5
581.394	1	3
582.583	1	8
583.772	1	8
584.961	1	1
586.150	1	11
587.339	1	-1
588.528	1	9
589.717	1	-3
590.905	1	9
592.094	1	2
593.283	1	-11
594.471	1	13
595.660	1	-2
596.848	1	-2
598.037	1	11
599.225	1	4
600.413	1	6
601.602	1	0
602.790	1	-5
603.978	1	-1
605.166	1	10
606.355	1	8
607.543	1	6
608.731	1	1
609.919	1	4
611.107	1	-1
612.295	1	3
613.483	1	-4
614.671	1	8
615.858	1	1
617.046	1	-2
618.234	1	3
619.422	1	6
620.609	1	-2
621.797	1	-6
622.985	1	7
624.172	1	1
625.360	1	2
626.547	1	1
627.735	1	5
628.922	1	3
630.109	1	10
631.297	1	5
632.484	1	-13
633.671	1	-5
634.858	1	4
636.045	1	13
637.232	1	-15
638.419	1	2
639.606	1	7
640.793	1	-5
641.980	1	1
643.167	1	3
644.354	1	-9
645.541	1	-2
646.728	1	3
647.914	1	-7
649.101	1	-1
650.288	1	8
651.474	1	0
652.661	1	-8
653.847	1	-3
655.034	1	-6
656.220	1	-4
657.406	1	10
658.593	1	-1
659.779	1	0
660.965	1	0
662.152	1	-3
663.338	1	-5
664.524	1	5
665.710	1	7
666.896	1	1
668.082	1	3
669.268	1	0
670.454	1	-7
671.640	1	-6
672.826	1	1
674.011	1	-4
675.197	1	-3
676.383	1	6
677.569	1	4
678.754	1	8
679.940	1	5
681.125	1	1
682.311	1	-7
683.496	1	10
684.682	1	-11
685.867	1	1
687.053	1	6
688.238	1	5
688.746	1	2

File: GaN_sample F_spot6_UVVIS_130 K_200um_350 ms 2x2mm1_253.txt
340.368	1	6
341.565	1	4
342.763	1	4
343.960	1	-9
345.157	1	-8
346.354	1	-6
347.552	1	-5
348.749	1	6
349.946	1	8
351.143	1	3
352.340	1	9
353.537	1	-3
354.734	1	-14
355.931	1	2
357.127	1	-2
358.324	1	2
359.521	1	-3
360.718	1	9
361.914	1	6
363.111	1	20
364.308	1	9
365.504	1	16
366.701	1	6
367.897	1	12
369.093	1	12
370.290	1	19
371.486	1	8
372.682	1	4
373.879	1	12
375.075	1	8
376.271	1	12
377.467	1	6
378.663	1	11
379.859	1	10
381.055	1	11
382.251	1	5
383.447	1	5
384.643	1	0
385.839	1	11
387.035	1	11
388.230	1	-9
389.426	1	10
390.622	1	3
391.817	1	6
393.013	1	7
394.208	1	-6
395.404	1	-5
396.599	1	14
397.795	1	0
398.990	1	9
400.186	1	-5
401.381	1	3
402.576	1	6
403.771	1	6
404.967	1	3
406.162	1	-2
407.357	1	3
408.552	1	-3
409.747	1	1
410.942	1	4
412.137	1	-3
413.332	1	1
414.526	1	6
415.721	1	-7
416.916	1	6
418.111	1	8
419.305	1	-3
420.500	1	6
421.695	1	4
422.889	1	-7
424.084	1	3
425.278	1	-4
426.472	1	5
427.667	1	17
428.861	1	2
430.055	1	-1
431.250	1	12
432.444	1	15
433.638	1	4
434.832	1	-10
436.026	1	8
437.220	1	2
438.414	1	-2
439.608	1	21
440.802	1	-9
441.996	1	7
443.190	1	12
444.384	1	-4
445.578	1	-1
446.771	1	8
447.965	1	6
449.159	1	7
450.352	1	5
451.546	1	11
452.739	1	3
453.933	1	-1
455.126	1	-10
456.320	1	-2
457.513	1	-7
458.706	1	6
459.899	1	4
461.093	1	10
462.286	1	6
463.479	1	9
464.672	1	6
465.865	1	-4
467.058	1	3
468.251	1	13
469.444	1	4
470.637	1	5
471.830	1	1
473.023	1	7
474.215	1	3
475.408	1	2
476.601	1	1
477.793	1	0
478.986	1	0
480.179	1	-8
481.371	1	5
482.564	1	-1
483.756	1	-7
484.948	1	-2
486.141	1	0
487.333	1	3
488.525	1	4
489.718	1	5
490.910	1	-9
492.102	1	7
493.294	1	0
494.486	1	12
495.678	1	-2
496.870	1	8
498.062	1	-5
499.254	1	-3
500.446	1	12
501.638	1	-5
502.829	1	11
504.021	1	1
505.213	1	4
506.404	1	-10
507.596	1	-6
508.788	1	0
509.979	1	-1
511.171	1	19
512.362	1	-1
513.553	1	13
514.745	1	6
515.936	1	18
517.127	1	1
518.319	1	0
519.510	1	0
520.701	1	-1
521.892	1	6
523.083	1	2
524.274	1	5
525.465	1	3
526.656	1	2
527.847	1	3
529.038	1	-5
530.229	1	14
531.419	1	7
532.610	1	7
533.801	1	17
534.991	1	6
536.182	1	17
537.373	1	-5
538.563	1	3
539.754	1	4
540.944	1	4
542.134	1	-3
543.325	1	5
544.515	1	3
545.705	1	3
546.896	1	5
548.086	1	0
549.276	1	-2
550.466	1	20
551.656	1	7
552.846	1	0
554.036	1	-1
555.226	1	6
556.416	1	11
557.606	1	-1
558.796	1	12
559.986	1	3
561.175	1	11
562.365	1	8
563.555	1	9
564.744	1	1
565.934	1	5
567.123	1	8
568.313	1	2
569.502	1	-6
570.692	1	3
571.881	1	-1
573.070	1	0
574.260	1	1
575.449	1	10
576.638	1	3
577.827	1	1
579.016	1	1
580.205	1	7
581.394	1	2
582.583	1	12
583.772	1	7
584.961	1	-9
586.150	1	9
587.339	1	2
588.528	1	8
589.717	1	-4
590.905	1	7
592.094	1	3
593.283	1	-6
594.471	1	-15
595.660	1	0
596.848	1	4
598.037	1	5
599.225	1	0
600.413	1	8
601.602	1	-8
602.790	1	2
603.978	1	4
605.166	1	7
606.355	1	11
607.543	1	-3
608.731	1	14
609.919	1	5
611.107	1	1
612.295	1	10
613.483	1	3
614.671	1	-4
615.858	1	-10
617.046	1	7
618.234	1	0
619.422	1	-5
620.609	1	-1
621.797	1	-4
622.985	1	9
624.172	1	-8
625.360	1	2
626.547	1	11
627.735	1	14
628.922	1	-7
630.109	1	3
631.297	1	1
632.484	1	-11
633.671	1	-8
634.858	1	6
636.045	1	6
637.232	1	-4
638.419	1	8
639.606	1	0
640.793	1	-5
641.980	1	1
643.167	1	5
644.354	1	-6
645.541	1	-8
646.728	1	4
647.914	1	-5
649.101	1	-4
650.288	1	7
651.474	1	4
652.661	1	1
653.847	1	-4
655.034	1	3
656.220	1	2
657.406	1	6
658.593	1	5
659.779	1	12
660.965	1	-4
662.152	1	-2
663.338	1	-3
664.524	1	3
665.710	1	-2
666.896	1	2
668.082	1	4
669.268	1	-2
670.454	1	7
671.640	1	-3
672.826	1	-3
674.011	1	-10
675.197	1	-9
676.383	1	2
677.569	1	-8
678.754	1	8
679.940	1	-4
681.125	1	11
682.311	1	-16
683.496	1	-5
684.682	1	-5
685.867	1	4
687.053	1	-1
688.238	1	10
688.746	1	11

File: GaN_sample F_spot6_UVVIS_130 K_200um_350 ms 2x2mm1_254.txt
340.368	1	-3
341.565	1	-1
342.763	1	3
343.960	1	-11
345.157	1	-13
346.354	1	-4
347.552	1	-2
348.749	1	1
349.946	1	12
351.143	1	-4
352.340	1	11
353.537	1	1
354.734	1	7
355.931	1	9
357.127	1	7
358.324	1	-2
359.521	1	-6
360.718	1	7
361.914	1	-1
363.111	1	19
364.308	1	16
365.504	1	14
366.701	1	12
367.897	1	10
369.093	1	5
370.290	1	16
371.486	1	10
372.682	1	7
373.879	1	12
375.075	1	13
376.271	1	6
377.467	1	5
378.663	1	2
379.859	1	8
381.055	1	2
382.251	1	-1
383.447	1	7
384.643	1	7
385.839	1	6
387.035	1	15
388.230	1	10
389.426	1	6
390.622	1	-2
391.817	1	10
393.013	1	9
394.208	1	-12
395.404	1	-1
396.599	1	13
397.795	1	0
398.990	1	-2
400.186	1	2
401.381	1	12
402.576	1	-2
403.771	1	4
404.967	1	1
406.162	1	-6
407.357	1	2
408.552	1	1
409.747	1	1
410.942	1	4
412.137	1	-3
413.332	1	0
414.526	1	7
415.721	1	11
416.916	1	-3
418.111	1	5
419.305	1	-2
420.500	1	7
421.695	1	6
422.889	1	4
424.084	1	14
425.278	1	-9
426.472	1	2
427.667	1	9
428.861	1	1
430.055	1	-1
431.250	1	12
432.444	1	4
433.638	1	5
434.832	1	11
436.026	1	12
437.220	1	-8
438.414	1	-6
439.608	1	9
440.802	1	0
441.996	1	11
443.190	1	9
444.384	1	-3
445.578	1	-2
446.771	1	7
447.965	1	3
449.159	1	8
450.352	1	16
451.546	1	0
452.739	1	7
453.933	1	5
455.126	1	1
456.320	1	5
457.513	1	-5
458.706	1	1
459.899	1	-3
461.093	1	3
462.286	1	6
463.479	1	5
464.672	1	5
465.865	1	5
467.058	1	8
468.251	1	4
469.444	1	1
470.637	1	10
471.830	1	12
473.023	1	8
474.215	1	1
475.408	1	4
476.601	1	2
477.793	1	3
478.986	1	1
480.179	1	1
481.371	1	9
482.564	1	-5
483.756	1	4
484.948	1	2
486.141	1	-5
487.333	1	-2
488.525	1	2
489.718	1	1
490.910	1	-5
492.102	1	3
493.294	1	2
494.486	1	19
495.678	1	-2
496.870	1	1
498.062	1	4
499.254	1	11
500.446	1	-3
501.638	1	7
502.829	1	9
504.021	1	-8
505.213	1	-9
506.404	1	4
507.596	1	2
508.788	1	0
509.979	1	2
511.171	1	0
512.362	1	-1
513.553	1	6
514.745	1	2
515.936	1	18
517.127	1	-2
518.319	1	-8
519.510	1	-2
520.701	1	-3
521.892	1	5
523.083	1	5
524.274	1	-10
525.465	1	6
526.656	1	9
527.847	1	6
529.038	1	-1
530.229	1	-2
531.419	1	12
532.610	1	5
533.801	1	10
534.991	1	3
536.182	1	10
537.373	1	0
538.563	1	8
539.754	1	4
540.944	1	16
542.134	1	-2
543.325	1	-1
544.515	1	12
545.705	1	-4
546.896	1	1
548.086	1	-4
549.276	1	-5
550.466	1	6
551.656	1	3
552.846	1	0
554.036	1	12
555.226	1	9
556.416	1	10
557.606	1	-5
558.796	1	5
559.986	1	4
561.175	1	2
562.365	1	-1
563.555	1	8
564.744	1	-2
565.934	1	-1
567.123	1	-1
568.313	1	-5
569.502	1	-5
570.692	1	7
571.881	1	4
573.070	1	-5
574.260	1	-1
575.449	1	8
576.638	1	1
577.827	1	-6
579.016	1	3
580.205	1	0
581.394	1	3
582.583	1	13
583.772	1	6
584.961	1	-3
586.150	1	9
587.339	1	-4
588.528	1	8
589.717	1	0
590.905	1	7
592.094	1	0
593.283	1	-5
594.471	1	2
595.660	1	9
596.848	1	2
598.037	1	9
599.225	1	1
600.413	1	5
601.602	1	2
602.790	1	-9
603.978	1	3
605.166	1	12
606.355	1	-4
607.543	1	0
608.731	1	0
609.919	1	8
611.107	1	7
612.295	1	5
613.483	1	-4
614.671	1	4
615.858	1	-5
617.046	1	9
618.234	1	-4
619.422	1	-6
620.609	1	5
621.797	1	0
622.985	1	1
624.172	1	-2
625.360	1	6
626.547	1	5
627.735	1	4
628.922	1	-4
630.109	1	2
631.297	1	4
632.484	1	-12
633.671	1	-2
634.858	1	4
636.045	1	10
637.232	1	-7
638.419	1	10
639.606	1	8
640.793	1	-8
641.980	1	0
643.167	1	7
644.354	1	0
645.541	1	3
646.728	1	6
647.914	1	-1
649.101	1	-3
650.288	1	-2
651.474	1	0
652.661	1	1
653.847	1	-1
655.034	1	0
656.220	1	1
657.406	1	-2
658.593	1	1
659.779	1	3
660.965	1	0
662.152	1	7
663.338	1	6
664.524	1	-10
665.710	1	4
666.896	1	4
668.082	1	-4
669.268	1	-4
670.454	1	2
671.640	1	-9
672.826	1	-6
674.011	1	1
675.197	1	0
676.383	1	-1
677.569	1	0
678.754	1	0
679.940	1	4
681.125	1	6
682.311	1	-10
683.496	1	1
684.682	1	-1
685.867	1	-7
687.053	1	4
688.238	1	15
688.746	1	4

File: GaN_sample F_spot6_UVVIS_130 K_200um_350 ms 2x2mm1_255.txt
340.368	1	6
341.565	1	-1
342.763	1	-1
343.960	1	-13
345.157	1	-11
346.354	1	0
347.552	1	0
348.749	1	6
349.946	1	1
351.143	1	2
352.340	1	13
353.537	1	2
354.734	1	-3
355.931	1	1
357.127	1	9
358.324	1	-6
359.521	1	-3
360.718	1	5
361.914	1	6
363.111	1	6
364.308	1	13
365.504	1	13
366.701	1	8
367.897	1	15
369.093	1	11
370.290	1	8
371.486	1	12
372.682	1	5
373.879	1	12
375.075	1	14
376.271	1	11
377.467	1	13
378.663	1	9
379.859	1	6
381.055	1	5
382.251	1	3
383.447	1	13
384.643	1	7
385.839	1	-4
387.035	1	16
388.230	1	0
389.426	1	9
390.622	1	-3
391.817	1	3
393.013	1	4
394.208	1	-6
395.404	1	-1
396.599	1	6
397.795	1	-6
398.990	1	2
400.186	1	-3
401.381	1	8
402.576	1	3
403.771	1	5
404.967	1	-4
406.162	1	1
407.357	1	0
408.552	1	5
409.747	1	-4
410.942	1	0
412.137	1	-1
413.332	1	-5
414.526	1	2
415.721	1	8
416.916	1	-2
418.111	1	3
419.305	1	8
420.500	1	0
421.695	1	3
422.889	1	1
424.084	1	13
425.278	1	0
426.472	1	-1
427.667	1	13
428.861	1	-1
430.055	1	5
431.250	1	20
432.444	1	11
433.638	1	9
434.832	1	6
436.026	1	8
437.220	1	1
438.414	1	-1
439.608	1	14
440.802	1	-5
441.996	1	6
443.190	1	0
444.384	1	-10
445.578	1	-4
446.771	1	3
447.965	1	-1
449.159	1	-5
450.352	1	1
451.546	1	11
452.739	1	-1
453.933	1	1
455.126	1	-4
456.320	1	5
457.513	1	2
458.706	1	3
459.899	1	-1
461.093	1	9
462.286	1	4
463.479	1	13
464.672	1	5
465.865	1	-9
467.058	1	2
468.251	1	2
469.444	1	-1
470.637	1	7
471.830	1	0
473.023	1	3
474.215	1	3
475.408	1	4
476.601	1	5
477.793	1	7
478.986	1	-7
480.179	1	-1
481.371	1	1
482.564	1	-2
483.756	1	3
484.948	1	-3
486.141	1	8
487.333	1	-4
488.525	1	5
489.718	1	1
490.910	1	-2
492.102	1	8
493.294	1	4
494.486	1	13
495.678	1	-5
496.870	1	3
498.062	1	-6
499.254	1	2
500.446	1	8
501.638	1	1
502.829	1	3
504.021	1	0
505.213	1	4
506.404	1	-3
507.596	1	1
508.788	1	0
509.979	1	0
511.171	1	5
512.362	1	3
513.553	1	7
514.745	1	6
515.936	1	16
517.127	1	3
518.319	1	3
519.510	1	-6
520.701	1	-2
521.892	1	5
523.083	1	-2
524.274	1	-4
525.465	1	8
526.656	1	13
527.847	1	5
529.038	1	-3
530.229	1	5
531.419	1	2
532.610	1	-1
533.801	1	17
534.991	1	1
536.182	1	7
537.373	1	1
538.563	1	12
539.754	1	-7
540.944	1	9
542.134	1	4
543.325	1	3
544.515	1	0
545.705	1	5
546.896	1	-1
548.086	1	1
549.276	1	2
550.466	1	14
551.656	1	11
552.846	1	-9
554.036	1	9
555.226	1	2
556.416	1	5
557.606	1	0
558.796	1	5
559.986	1	5
561.175	1	5
562.365	1	11
563.555	1	4
564.744	1	-1
565.934	1	10
567.123	1	5
568.313	1	-6
569.502	1	7
570.692	1	7
571.881	1	9
573.070	1	-2
574.260	1	7
575.449	1	6
576.638	1	-4
577.827	1	-5
579.016	1	8
580.205	1	-7
581.394	1	-2
582.583	1	5
583.772	1	4
584.961	1	-7
586.150	1	5
587.339	1	1
588.528	1	10
589.717	1	-1
590.905	1	8
592.094	1	-4
593.283	1	-7
594.471	1	4
595.660	1	2
596.848	1	-2
598.037	1	5
599.225	1	-1
600.413	1	11
601.602	1	-1
602.790	1	11
603.978	1	1
605.166	1	10
606.355	1	9
607.543	1	-4
608.731	1	9
609.919	1	9
611.107	1	4
612.295	1	13
613.483	1	7
614.671	1	3
615.858	1	-4
617.046	1	9
618.234	1	0
619.422	1	-1
620.609	1	-5
621.797	1	5
622.985	1	-3
624.172	1	3
625.360	1	6
626.547	1	1
627.735	1	7
628.922	1	3
630.109	1	9
631.297	1	0
632.484	1	-10
633.671	1	-10
634.858	1	0
636.045	1	14
637.232	1	-5
638.419	1	2
639.606	1	7
640.793	1	-9
641.980	1	2
643.167	1	2
644.354	1	-4
645.541	1	1
646.728	1	3
647.914	1	-5
649.101	1	-2
650.288	1	10
651.474	1	-2
652.661	1	6
653.847	1	4
655.034	1	-10
656.220	1	-7
657.406	1	8
658.593	1	-1
659.779	1	0
660.965	1	2
662.152	1	-3
663.338	1	-9
664.524	1	2
665.710	1	1
666.896	1	6
668.082	1	2
669.268	1	-3
670.454	1	3
671.640	1	-14
672.826	1	12
674.011	1	2
675.197	1	4
676.383	1	13
677.569	1	1
678.754	1	11
679.940	1	-9
681.125	1	7
682.311	1	-5
683.496	1	-1
684.682	1	5
685.867	1	-5
687.053	1	4
688.238	1	11
688.746	1	3

File: GaN_sample F_spot6_UVVIS_130 K_200um_350 ms 2x2mm1_257.txt
340.368	1	2
341.565	1	2
342.763	1	0
343.960	1	-13
345.157	1	-10
346.354	1	0
347.552	1	-1
348.749	1	0
349.946	1	12
351.143	1	7
352.340	1	8
353.537	1	2
354.734	1	6
355.931	1	4
357.127	1	1
358.324	1	-1
359.521	1	-5
360.718	1	3
361.914	1	3
363.111	1	12
364.308	1	15
365.504	1	5
366.701	1	4
367.897	1	10
369.093	1	10
370.290	1	3
371.486	1	4
372.682	1	4
373.879	1	4
375.075	1	10
376.271	1	4
377.467	1	18
378.663	1	9
379.859	1	2
381.055	1	12
382.251	1	2
383.447	1	7
384.643	1	5
385.839	1	14
387.035	1	11
388.230	1	4
389.426	1	2
390.622	1	16
391.817	1	12
393.013	1	5
394.208	1	1
395.404	1	-6
396.599	1	8
397.795	1	-1
398.990	1	0
400.186	1	-2
401.381	1	-1
402.576	1	8
403.771	1	10
404.967	1	5
406.162	1	1
407.357	1	1
408.552	1	-1
409.747	1	2
410.942	1	4
412.137	1	-1
413.332	1	3
414.526	1	6
415.721	1	6
416.916	1	-2
418.111	1	4
419.305	1	7
420.500	1	7
421.695	1	4
422.889	1	-2
424.084	1	2
425.278	1	8
426.472	1	5
427.667	1	7
428.861	1	6
430.055	1	-1
431.250	1	10
432.444	1	9
433.638	1	10
434.832	1	-3
436.026	1	9
437.220	1	5
438.414	1	6
439.608	1	18
440.802	1	2
441.996	1	18
443.190	1	0
444.384	1	-5
445.578	1	3
446.771	1	-1
447.965	1	4
449.159	1	0
450.352	1	4
451.546	1	12
452.739	1	13
453.933	1	2
455.126	1	-5
456.320	1	0
457.513	1	-7
458.706	1	-3
459.899	1	0
461.093	1	8
462.286	1	6
463.479	1	20
464.672	1	8
465.865	1	2
467.058	1	4
468.251	1	-5
469.444	1	11
470.637	1	3
471.830	1	2
473.023	1	8
474.215	1	-2
475.408	1	3
476.601	1	-4
477.793	1	-11
478.986	1	0
480.179	1	-3
481.371	1	2
482.564	1	-4
483.756	1	1
484.948	1	3
486.141	1	0
487.333	1	-9
488.525	1	11
489.718	1	8
490.910	1	5
492.102	1	5
493.294	1	10
494.486	1	8
495.678	1	1
496.870	1	-6
498.062	1	-1
499.254	1	10
500.446	1	5
501.638	1	-3
502.829	1	0
504.021	1	-9
505.213	1	2
506.404	1	6
507.596	1	3
508.788	1	-5
509.979	1	-4
511.171	1	13
512.362	1	0
513.553	1	9
514.745	1	1
515.936	1	23
517.127	1	8
518.319	1	-3
519.510	1	1
520.701	1	2
521.892	1	14
523.083	1	5
524.274	1	-6
525.465	1	14
526.656	1	1
527.847	1	4
529.038	1	-3
530.229	1	8
531.419	1	8
532.610	1	3
533.801	1	14
534.991	1	7
536.182	1	0
537.373	1	2
538.563	1	14
539.754	1	6
540.944	1	-7
542.134	1	-3
543.325	1	0
544.515	1	13
545.705	1	1
546.896	1	5
548.086	1	-1
549.276	1	-4
550.466	1	8
551.656	1	2
552.846	1	-5
554.036	1	6
555.226	1	2
556.416	1	3
557.606	1	-3
558.796	1	15
559.986	1	9
561.175	1	4
562.365	1	7
563.555	1	10
564.744	1	4
565.934	1	-3
567.123	1	5
568.313	1	1
569.502	1	-9
570.692	1	7
571.881	1	2
573.070	1	8
574.260	1	0
575.449	1	4
576.638	1	-5
577.827	1	2
579.016	1	0
580.205	1	-3
581.394	1	3
582.583	1	7
583.772	1	2
584.961	1	-3
586.150	1	18
587.339	1	4
588.528	1	-4
589.717	1	-1
590.905	1	7
592.094	1	3
593.283	1	-4
594.471	1	3
595.660	1	-7
596.848	1	-1
598.037	1	3
599.225	1	0
600.413	1	-1
601.602	1	3
602.790	1	2
603.978	1	3
605.166	1	12
606.355	1	5
607.543	1	-5
608.731	1	-1
609.919	1	12
611.107	1	4
612.295	1	6
613.483	1	-1
614.671	1	-4
615.858	1	-5
617.046	1	3
618.234	1	7
619.422	1	-3
620.609	1	-1
621.797	1	0
622.985	1	7
624.172	1	0
625.360	1	1
626.547	1	6
627.735	1	4
628.922	1	-3
630.109	1	10
631.297	1	-1
632.484	1	-8
633.671	1	-5
634.858	1	10
636.045	1	11
637.232	1	-7
638.419	1	3
639.606	1	9
640.793	1	-8
641.980	1	2
643.167	1	3
644.354	1	7
645.541	1	-4
646.728	1	8
647.914	1	-1
649.101	1	-2
650.288	1	6
651.474	1	0
652.661	1	4
653.847	1	1
655.034	1	-3
656.220	1	-1
657.406	1	-5
658.593	1	-1
659.779	1	7
660.965	1	4
662.152	1	-3
663.338	1	-1
664.524	1	-5
665.710	1	0
666.896	1	9
668.082	1	-1
669.268	1	-3
670.454	1	-4
671.640	1	-12
672.826	1	4
674.011	1	4
675.197	1	2
676.383	1	0
677.569	1	-4
678.754	1	5
679.940	1	-6
681.125	1	10
682.311	1	-5
683.496	1	-11
684.682	1	-6
685.867	1	1
687.053	1	4
688.238	1	8
688.746	1	7