Folder: cryo-il_analysis/Data/GaN_130K_350ms (part 2)

File: GaN_sample F_spot6_UVVIS_130 K_200um_350 ms 2x2mm1_25.txt
340.368	1	-1
341.565	1	5
342.763	1	2
343.960	1	-6
345.157	1	-10
346.354	1	0
347.552	1	4
348.749	1	6
349.946	1	0
351.143	1	2
352.340	1	6
353.537	1	0
354.734	1	-2
355.931	1	4
357.127	1	4
358.324	1	-3
359.521	1	-5
360.718	1	3
361.914	1	2
363.111	1	2
364.308	1	9
365.504	1	0
366.701	1	-5
367.897	1	-7
369.093	1	8
370.290	1	0
371.486	1	2
372.682	1	-4
373.879	1	5
375.075	1	1
376.271	1	11
377.467	1	8
378.663	1	4
379.859	1	-1
381.055	1	3
382.251	1	1
383.447	1	-8
384.643	1	3
385.839	1	6
387.035	1	3
388.230	1	1
389.426	1	4
390.622	1	5
391.817	1	4
393.013	1	6
394.208	1	-3
395.404	1	-11
396.599	1	6
397.795	1	-2
398.990	1	7
400.186	1	-12
401.381	1	5
402.576	1	0
403.771	1	7
404.967	1	2
406.162	1	-2
407.357	1	-4
408.552	1	1
409.747	1	-3
410.942	1	-2
412.137	1	-2
413.332	1	0
414.526	1	-6
415.721	1	-2
416.916	1	2
418.111	1	8
419.305	1	7
420.500	1	4
421.695	1	-2
422.889	1	-1
424.084	1	1
425.278	1	-12
426.472	1	5
427.667	1	2
428.861	1	2
430.055	1	-1
431.250	1	3
432.444	1	2
433.638	1	-5
434.832	1	-8
436.026	1	-2
437.220	1	-9
438.414	1	-5
439.608	1	3
440.802	1	-10
441.996	1	8
443.190	1	1
444.384	1	-3
445.578	1	4
446.771	1	-9
447.965	1	1
449.159	1	4
450.352	1	10
451.546	1	0
452.739	1	4
453.933	1	9
455.126	1	-7
456.320	1	1
457.513	1	-4
458.706	1	-8
459.899	1	-5
461.093	1	5
462.286	1	12
463.479	1	7
464.672	1	7
465.865	1	-8
467.058	1	0
468.251	1	16
469.444	1	-5
470.637	1	6
471.830	1	7
473.023	1	5
474.215	1	-1
475.408	1	5
476.601	1	-3
477.793	1	2
478.986	1	-4
480.179	1	-6
481.371	1	7
482.564	1	7
483.756	1	0
484.948	1	2
486.141	1	-3
487.333	1	-5
488.525	1	-3
489.718	1	0
490.910	1	-2
492.102	1	7
493.294	1	14
494.486	1	14
495.678	1	-5
496.870	1	-1
498.062	1	-4
499.254	1	0
500.446	1	5
501.638	1	-2
502.829	1	-1
504.021	1	-4
505.213	1	-1
506.404	1	3
507.596	1	-5
508.788	1	-2
509.979	1	0
511.171	1	4
512.362	1	-6
513.553	1	1
514.745	1	1
515.936	1	10
517.127	1	5
518.319	1	-11
519.510	1	0
520.701	1	5
521.892	1	1
523.083	1	-3
524.274	1	-10
525.465	1	9
526.656	1	4
527.847	1	8
529.038	1	-10
530.229	1	8
531.419	1	1
532.610	1	6
533.801	1	11
534.991	1	5
536.182	1	9
537.373	1	2
538.563	1	8
539.754	1	-6
540.944	1	5
542.134	1	-2
543.325	1	0
544.515	1	1
545.705	1	-3
546.896	1	-1
548.086	1	-6
549.276	1	-3
550.466	1	8
551.656	1	10
552.846	1	-9
554.036	1	-3
555.226	1	5
556.416	1	-3
557.606	1	-10
558.796	1	10
559.986	1	7
561.175	1	2
562.365	1	11
563.555	1	3
564.744	1	-11
565.934	1	-1
567.123	1	2
568.313	1	-3
569.502	1	-2
570.692	1	6
571.881	1	3
573.070	1	-4
574.260	1	13
575.449	1	1
576.638	1	-4
577.827	1	-3
579.016	1	-8
580.205	1	-2
581.394	1	-2
582.583	1	7
583.772	1	4
584.961	1	-4
586.150	1	3
587.339	1	3
588.528	1	10
589.717	1	-3
590.905	1	11
592.094	1	-7
593.283	1	-12
594.471	1	7
595.660	1	1
596.848	1	6
598.037	1	1
599.225	1	7
600.413	1	15
601.602	1	-4
602.790	1	5
603.978	1	3
605.166	1	3
606.355	1	5
607.543	1	3
608.731	1	4
609.919	1	4
611.107	1	11
612.295	1	5
613.483	1	-4
614.671	1	5
615.858	1	-8
617.046	1	7
618.234	1	3
619.422	1	-1
620.609	1	-12
621.797	1	4
622.985	1	11
624.172	1	2
625.360	1	-6
626.547	1	-7
627.735	1	1
628.922	1	-1
630.109	1	2
631.297	1	-2
632.484	1	-9
633.671	1	-5
634.858	1	14
636.045	1	7
637.232	1	-4
638.419	1	11
639.606	1	4
640.793	1	-14
641.980	1	-4
643.167	1	2
644.354	1	-2
645.541	1	-2
646.728	1	4
647.914	1	-6
649.101	1	-2
650.288	1	5
651.474	1	-4
652.661	1	-11
653.847	1	-1
655.034	1	-3
656.220	1	4
657.406	1	-3
658.593	1	3
659.779	1	1
660.965	1	0
662.152	1	3
663.338	1	3
664.524	1	-1
665.710	1	9
666.896	1	5
668.082	1	4
669.268	1	-6
670.454	1	7
671.640	1	-6
672.826	1	-3
674.011	1	1
675.197	1	2
676.383	1	5
677.569	1	1
678.754	1	9
679.940	1	1
681.125	1	11
682.311	1	-3
683.496	1	-1
684.682	1	-3
685.867	1	4
687.053	1	0
688.238	1	3
688.746	1	5

File: GaN_sample F_spot6_UVVIS_130 K_200um_350 ms 2x2mm1_26.txt
340.368	1	4
341.565	1	-9
342.763	1	5
343.960	1	-11
345.157	1	-4
346.354	1	3
347.552	1	3
348.749	1	4
349.946	1	10
351.143	1	7
352.340	1	-4
353.537	1	10
354.734	1	-1
355.931	1	4
357.127	1	0
358.324	1	2
359.521	1	-8
360.718	1	8
361.914	1	1
363.111	1	7
364.308	1	3
365.504	1	0
366.701	1	7
367.897	1	3
369.093	1	2
370.290	1	13
371.486	1	0
372.682	1	-8
373.879	1	7
375.075	1	7
376.271	1	10
377.467	1	8
378.663	1	-2
379.859	1	-3
381.055	1	4
382.251	1	0
383.447	1	7
384.643	1	5
385.839	1	11
387.035	1	2
388.230	1	1
389.426	1	5
390.622	1	-7
391.817	1	1
393.013	1	1
394.208	1	-7
395.404	1	-14
396.599	1	2
397.795	1	-7
398.990	1	-8
400.186	1	-2
401.381	1	-8
402.576	1	-1
403.771	1	4
404.967	1	2
406.162	1	-7
407.357	1	-9
408.552	1	-6
409.747	1	-1
410.942	1	4
412.137	1	-7
413.332	1	-5
414.526	1	3
415.721	1	5
416.916	1	-6
418.111	1	3
419.305	1	3
420.500	1	-4
421.695	1	-4
422.889	1	-1
424.084	1	7
425.278	1	-4
426.472	1	4
427.667	1	8
428.861	1	-7
430.055	1	-4
431.250	1	1
432.444	1	5
433.638	1	1
434.832	1	-2
436.026	1	8
437.220	1	-3
438.414	1	-10
439.608	1	11
440.802	1	-9
441.996	1	0
443.190	1	-4
444.384	1	-4
445.578	1	-7
446.771	1	5
447.965	1	9
449.159	1	4
450.352	1	7
451.546	1	11
452.739	1	8
453.933	1	-2
455.126	1	-8
456.320	1	-4
457.513	1	-9
458.706	1	2
459.899	1	7
461.093	1	4
462.286	1	9
463.479	1	7
464.672	1	11
465.865	1	-1
467.058	1	6
468.251	1	-1
469.444	1	5
470.637	1	-1
471.830	1	6
473.023	1	6
474.215	1	2
475.408	1	4
476.601	1	5
477.793	1	-1
478.986	1	1
480.179	1	-4
481.371	1	13
482.564	1	-11
483.756	1	-4
484.948	1	3
486.141	1	-5
487.333	1	-1
488.525	1	5
489.718	1	1
490.910	1	1
492.102	1	6
493.294	1	5
494.486	1	8
495.678	1	-2
496.870	1	1
498.062	1	-9
499.254	1	-5
500.446	1	-1
501.638	1	1
502.829	1	-6
504.021	1	4
505.213	1	5
506.404	1	4
507.596	1	-2
508.788	1	-2
509.979	1	-2
511.171	1	2
512.362	1	-7
513.553	1	14
514.745	1	-7
515.936	1	10
517.127	1	1
518.319	1	-10
519.510	1	-6
520.701	1	-7
521.892	1	5
523.083	1	-2
524.274	1	-11
525.465	1	0
526.656	1	5
527.847	1	2
529.038	1	-9
530.229	1	3
531.419	1	12
532.610	1	5
533.801	1	15
534.991	1	0
536.182	1	-1
537.373	1	-1
538.563	1	3
539.754	1	-8
540.944	1	7
542.134	1	-1
543.325	1	-3
544.515	1	-2
545.705	1	-4
546.896	1	1
548.086	1	-6
549.276	1	-4
550.466	1	3
551.656	1	4
552.846	1	-6
554.036	1	-4
555.226	1	7
556.416	1	3
557.606	1	-4
558.796	1	11
559.986	1	0
561.175	1	6
562.365	1	-4
563.555	1	9
564.744	1	6
565.934	1	2
567.123	1	-2
568.313	1	-8
569.502	1	-3
570.692	1	13
571.881	1	-3
573.070	1	2
574.260	1	-6
575.449	1	0
576.638	1	-2
577.827	1	-2
579.016	1	8
580.205	1	3
581.394	1	1
582.583	1	10
583.772	1	7
584.961	1	-7
586.150	1	5
587.339	1	1
588.528	1	5
589.717	1	1
590.905	1	11
592.094	1	-4
593.283	1	-3
594.471	1	-2
595.660	1	0
596.848	1	2
598.037	1	14
599.225	1	2
600.413	1	6
601.602	1	-4
602.790	1	-4
603.978	1	1
605.166	1	8
606.355	1	2
607.543	1	6
608.731	1	-2
609.919	1	8
611.107	1	10
612.295	1	9
613.483	1	-1
614.671	1	7
615.858	1	-7
617.046	1	2
618.234	1	-1
619.422	1	1
620.609	1	0
621.797	1	-6
622.985	1	0
624.172	1	8
625.360	1	0
626.547	1	-1
627.735	1	4
628.922	1	-1
630.109	1	2
631.297	1	5
632.484	1	2
633.671	1	-5
634.858	1	3
636.045	1	15
637.232	1	3
638.419	1	5
639.606	1	2
640.793	1	-4
641.980	1	-10
643.167	1	3
644.354	1	2
645.541	1	-6
646.728	1	0
647.914	1	-6
649.101	1	-5
650.288	1	12
651.474	1	-7
652.661	1	-10
653.847	1	-2
655.034	1	5
656.220	1	2
657.406	1	-2
658.593	1	-2
659.779	1	5
660.965	1	2
662.152	1	0
663.338	1	3
664.524	1	-3
665.710	1	7
666.896	1	-4
668.082	1	6
669.268	1	1
670.454	1	-5
671.640	1	-8
672.826	1	3
674.011	1	1
675.197	1	1
676.383	1	10
677.569	1	2
678.754	1	8
679.940	1	2
681.125	1	8
682.311	1	-8
683.496	1	-4
684.682	1	-8
685.867	1	-2
687.053	1	0
688.238	1	6
688.746	1	9

File: GaN_sample F_spot6_UVVIS_130 K_200um_350 ms 2x2mm1_28.txt
340.368	1	8
341.565	1	3
342.763	1	8
343.960	1	-6
345.157	1	-8
346.354	1	6
347.552	1	-5
348.749	1	4
349.946	1	2
351.143	1	0
352.340	1	15
353.537	1	-5
354.734	1	6
355.931	1	6
357.127	1	10
358.324	1	3
359.521	1	-6
360.718	1	4
361.914	1	4
363.111	1	10
364.308	1	3
365.504	1	3
366.701	1	5
367.897	1	4
369.093	1	2
370.290	1	10
371.486	1	-4
372.682	1	-2
373.879	1	10
375.075	1	9
376.271	1	3
377.467	1	10
378.663	1	0
379.859	1	-3
381.055	1	-3
382.251	1	-6
383.447	1	8
384.643	1	8
385.839	1	2
387.035	1	13
388.230	1	3
389.426	1	8
390.622	1	0
391.817	1	1
393.013	1	7
394.208	1	-2
395.404	1	-6
396.599	1	12
397.795	1	-15
398.990	1	-2
400.186	1	-3
401.381	1	1
402.576	1	-1
403.771	1	7
404.967	1	-2
406.162	1	-9
407.357	1	-1
408.552	1	-2
409.747	1	-8
410.942	1	-2
412.137	1	-8
413.332	1	-7
414.526	1	-3
415.721	1	1
416.916	1	-4
418.111	1	1
419.305	1	7
420.500	1	-3
421.695	1	2
422.889	1	-2
424.084	1	11
425.278	1	6
426.472	1	1
427.667	1	-5
428.861	1	-6
430.055	1	-6
431.250	1	9
432.444	1	0
433.638	1	-2
434.832	1	0
436.026	1	0
437.220	1	-4
438.414	1	-11
439.608	1	8
440.802	1	-4
441.996	1	6
443.190	1	5
444.384	1	-4
445.578	1	-3
446.771	1	9
447.965	1	5
449.159	1	9
450.352	1	4
451.546	1	6
452.739	1	4
453.933	1	1
455.126	1	-9
456.320	1	-12
457.513	1	-6
458.706	1	6
459.899	1	-2
461.093	1	5
462.286	1	7
463.479	1	12
464.672	1	11
465.865	1	-7
467.058	1	8
468.251	1	-4
469.444	1	1
470.637	1	-1
471.830	1	-2
473.023	1	0
474.215	1	-3
475.408	1	6
476.601	1	-10
477.793	1	0
478.986	1	-2
480.179	1	1
481.371	1	1
482.564	1	3
483.756	1	-5
484.948	1	-6
486.141	1	0
487.333	1	-2
488.525	1	5
489.718	1	3
490.910	1	-1
492.102	1	2
493.294	1	8
494.486	1	6
495.678	1	-3
496.870	1	1
498.062	1	-1
499.254	1	7
500.446	1	0
501.638	1	-2
502.829	1	-5
504.021	1	2
505.213	1	4
506.404	1	-3
507.596	1	-2
508.788	1	2
509.979	1	-3
511.171	1	10
512.362	1	3
513.553	1	15
514.745	1	1
515.936	1	16
517.127	1	-8
518.319	1	2
519.510	1	3
520.701	1	-2
521.892	1	9
523.083	1	-5
524.274	1	-5
525.465	1	2
526.656	1	9
527.847	1	0
529.038	1	-15
530.229	1	7
531.419	1	3
532.610	1	2
533.801	1	10
534.991	1	0
536.182	1	2
537.373	1	3
538.563	1	8
539.754	1	-9
540.944	1	2
542.134	1	0
543.325	1	7
544.515	1	-9
545.705	1	-7
546.896	1	1
548.086	1	-6
549.276	1	-15
550.466	1	6
551.656	1	-2
552.846	1	-6
554.036	1	3
555.226	1	10
556.416	1	8
557.606	1	-2
558.796	1	6
559.986	1	2
561.175	1	4
562.365	1	9
563.555	1	6
564.744	1	-3
565.934	1	0
567.123	1	4
568.313	1	-9
569.502	1	1
570.692	1	16
571.881	1	1
573.070	1	6
574.260	1	9
575.449	1	-3
576.638	1	-10
577.827	1	-2
579.016	1	-4
580.205	1	6
581.394	1	-1
582.583	1	0
583.772	1	12
584.961	1	-1
586.150	1	9
587.339	1	-1
588.528	1	10
589.717	1	2
590.905	1	3
592.094	1	2
593.283	1	-5
594.471	1	0
595.660	1	11
596.848	1	11
598.037	1	2
599.225	1	5
600.413	1	10
601.602	1	-7
602.790	1	-3
603.978	1	0
605.166	1	14
606.355	1	3
607.543	1	7
608.731	1	4
609.919	1	8
611.107	1	8
612.295	1	8
613.483	1	3
614.671	1	9
615.858	1	5
617.046	1	2
618.234	1	-4
619.422	1	5
620.609	1	-6
621.797	1	6
622.985	1	0
624.172	1	8
625.360	1	6
626.547	1	9
627.735	1	10
628.922	1	-6
630.109	1	14
631.297	1	10
632.484	1	-9
633.671	1	-15
634.858	1	9
636.045	1	19
637.232	1	2
638.419	1	9
639.606	1	6
640.793	1	-10
641.980	1	-2
643.167	1	0
644.354	1	0
645.541	1	0
646.728	1	3
647.914	1	7
649.101	1	-4
650.288	1	4
651.474	1	-9
652.661	1	-8
653.847	1	-9
655.034	1	2
656.220	1	2
657.406	1	2
658.593	1	-2
659.779	1	5
660.965	1	-1
662.152	1	-5
663.338	1	-2
664.524	1	-5
665.710	1	4
666.896	1	1
668.082	1	4
669.268	1	-6
670.454	1	-1
671.640	1	-4
672.826	1	3
674.011	1	2
675.197	1	-3
676.383	1	8
677.569	1	2
678.754	1	0
679.940	1	8
681.125	1	4
682.311	1	-12
683.496	1	-7
684.682	1	-3
685.867	1	-3
687.053	1	6
688.238	1	9
688.746	1	0

File: GaN_sample F_spot6_UVVIS_130 K_200um_350 ms 2x2mm1_100.txt
340.368	1	9
341.565	1	3
342.763	1	10
343.960	1	-2
345.157	1	-9
346.354	1	-3
347.552	1	1
348.749	1	13
349.946	1	8
351.143	1	8
352.340	1	8
353.537	1	0
354.734	1	4
355.931	1	17
357.127	1	19
358.324	1	16
359.521	1	14
360.718	1	31
361.914	1	41
363.111	1	51
364.308	1	66
365.504	1	103
366.701	1	113
367.897	1	122
369.093	1	108
370.290	1	108
371.486	1	88
372.682	1	76
373.879	1	76
375.075	1	58
376.271	1	51
377.467	1	53
378.663	1	35
379.859	1	29
381.055	1	31
382.251	1	37
383.447	1	28
384.643	1	32
385.839	1	26
387.035	1	35
388.230	1	14
389.426	1	19
390.622	1	21
391.817	1	24
393.013	1	20
394.208	1	16
395.404	1	7
396.599	1	15
397.795	1	3
398.990	1	24
400.186	1	14
401.381	1	17
402.576	1	14
403.771	1	15
404.967	1	14
406.162	1	11
407.357	1	17
408.552	1	2
409.747	1	2
410.942	1	9
412.137	1	7
413.332	1	2
414.526	1	13
415.721	1	10
416.916	1	9
418.111	1	12
419.305	1	11
420.500	1	12
421.695	1	2
422.889	1	7
424.084	1	10
425.278	1	8
426.472	1	14
427.667	1	8
428.861	1	10
430.055	1	3
431.250	1	16
432.444	1	16
433.638	1	11
434.832	1	15
436.026	1	12
437.220	1	-1
438.414	1	-3
439.608	1	10
440.802	1	4
441.996	1	18
443.190	1	10
444.384	1	6
445.578	1	1
446.771	1	21
447.965	1	12
449.159	1	3
450.352	1	11
451.546	1	11
452.739	1	13
453.933	1	4
455.126	1	-15
456.320	1	12
457.513	1	0
458.706	1	7
459.899	1	-4
461.093	1	14
462.286	1	9
463.479	1	16
464.672	1	13
465.865	1	-2
467.058	1	5
468.251	1	5
469.444	1	0
470.637	1	6
471.830	1	7
473.023	1	5
474.215	1	1
475.408	1	7
476.601	1	-1
477.793	1	12
478.986	1	7
480.179	1	0
481.371	1	12
482.564	1	1
483.756	1	11
484.948	1	10
486.141	1	14
487.333	1	4
488.525	1	25
489.718	1	11
490.910	1	4
492.102	1	16
493.294	1	11
494.486	1	24
495.678	1	17
496.870	1	20
498.062	1	12
499.254	1	17
500.446	1	32
501.638	1	31
502.829	1	16
504.021	1	23
505.213	1	29
506.404	1	32
507.596	1	21
508.788	1	36
509.979	1	34
511.171	1	46
512.362	1	39
513.553	1	48
514.745	1	46
515.936	1	47
517.127	1	38
518.319	1	32
519.510	1	38
520.701	1	35
521.892	1	56
523.083	1	42
524.274	1	42
525.465	1	52
526.656	1	36
527.847	1	49
529.038	1	40
530.229	1	48
531.419	1	57
532.610	1	51
533.801	1	58
534.991	1	40
536.182	1	54
537.373	1	42
538.563	1	43
539.754	1	44
540.944	1	42
542.134	1	32
543.325	1	34
544.515	1	40
545.705	1	30
546.896	1	32
548.086	1	28
549.276	1	24
550.466	1	36
551.656	1	36
552.846	1	33
554.036	1	33
555.226	1	39
556.416	1	40
557.606	1	21
558.796	1	53
559.986	1	33
561.175	1	32
562.365	1	22
563.555	1	44
564.744	1	22
565.934	1	28
567.123	1	27
568.313	1	19
569.502	1	24
570.692	1	24
571.881	1	17
573.070	1	23
574.260	1	22
575.449	1	23
576.638	1	12
577.827	1	18
579.016	1	9
580.205	1	4
581.394	1	22
582.583	1	23
583.772	1	21
584.961	1	11
586.150	1	28
587.339	1	8
588.528	1	17
589.717	1	4
590.905	1	14
592.094	1	17
593.283	1	9
594.471	1	10
595.660	1	11
596.848	1	9
598.037	1	13
599.225	1	9
600.413	1	20
601.602	1	15
602.790	1	7
603.978	1	12
605.166	1	10
606.355	1	18
607.543	1	4
608.731	1	9
609.919	1	14
611.107	1	11
612.295	1	13
613.483	1	3
614.671	1	9
615.858	1	-1
617.046	1	10
618.234	1	10
619.422	1	12
620.609	1	0
621.797	1	8
622.985	1	9
624.172	1	-1
625.360	1	5
626.547	1	7
627.735	1	12
628.922	1	3
630.109	1	10
631.297	1	6
632.484	1	-11
633.671	1	4
634.858	1	11
636.045	1	13
637.232	1	1
638.419	1	17
639.606	1	8
640.793	1	2
641.980	1	1
643.167	1	5
644.354	1	-5
645.541	1	5
646.728	1	12
647.914	1	-3
649.101	1	-8
650.288	1	13
651.474	1	0
652.661	1	10
653.847	1	3
655.034	1	4
656.220	1	-4
657.406	1	8
658.593	1	5
659.779	1	4
660.965	1	8
662.152	1	4
663.338	1	3
664.524	1	2
665.710	1	10
666.896	1	6
668.082	1	5
669.268	1	-3
670.454	1	5
671.640	1	-3
672.826	1	3
674.011	1	8
675.197	1	-2
676.383	1	5
677.569	1	4
678.754	1	1
679.940	1	0
681.125	1	13
682.311	1	0
683.496	1	5
684.682	1	-10
685.867	1	7
687.053	1	15
688.238	1	14
688.746	1	10

File: GaN_sample F_spot6_UVVIS_130 K_200um_350 ms 2x2mm1_101.txt
340.368	1	15
341.565	1	3
342.763	1	-7
343.960	1	-2
345.157	1	-14
346.354	1	9
347.552	1	-5
348.749	1	3
349.946	1	11
351.143	1	11
352.340	1	16
353.537	1	-3
354.734	1	7
355.931	1	14
357.127	1	12
358.324	1	19
359.521	1	28
360.718	1	30
361.914	1	38
363.111	1	59
364.308	1	78
365.504	1	85
366.701	1	101
367.897	1	119
369.093	1	116
370.290	1	101
371.486	1	91
372.682	1	73
373.879	1	70
375.075	1	68
376.271	1	45
377.467	1	38
378.663	1	42
379.859	1	32
381.055	1	38
382.251	1	26
383.447	1	27
384.643	1	41
385.839	1	33
387.035	1	31
388.230	1	20
389.426	1	35
390.622	1	12
391.817	1	30
393.013	1	18
394.208	1	4
395.404	1	12
396.599	1	17
397.795	1	12
398.990	1	12
400.186	1	17
401.381	1	18
402.576	1	7
403.771	1	14
404.967	1	9
406.162	1	0
407.357	1	5
408.552	1	4
409.747	1	11
410.942	1	15
412.137	1	1
413.332	1	2
414.526	1	0
415.721	1	12
416.916	1	8
418.111	1	15
419.305	1	13
420.500	1	7
421.695	1	16
422.889	1	2
424.084	1	14
425.278	1	6
426.472	1	6
427.667	1	15
428.861	1	16
430.055	1	-1
431.250	1	12
432.444	1	4
433.638	1	13
434.832	1	13
436.026	1	2
437.220	1	5
438.414	1	-1
439.608	1	15
440.802	1	-3
441.996	1	18
443.190	1	13
444.384	1	1
445.578	1	-5
446.771	1	9
447.965	1	3
449.159	1	12
450.352	1	9
451.546	1	16
452.739	1	12
453.933	1	7
455.126	1	2
456.320	1	-5
457.513	1	-4
458.706	1	11
459.899	1	0
461.093	1	9
462.286	1	13
463.479	1	13
464.672	1	11
465.865	1	0
467.058	1	10
468.251	1	8
469.444	1	11
470.637	1	5
471.830	1	13
473.023	1	13
474.215	1	13
475.408	1	15
476.601	1	11
477.793	1	6
478.986	1	7
480.179	1	-2
481.371	1	15
482.564	1	12
483.756	1	14
484.948	1	10
486.141	1	4
487.333	1	-1
488.525	1	20
489.718	1	23
490.910	1	10
492.102	1	23
493.294	1	16
494.486	1	23
495.678	1	12
496.870	1	13
498.062	1	19
499.254	1	22
500.446	1	21
501.638	1	16
502.829	1	29
504.021	1	20
505.213	1	23
506.404	1	28
507.596	1	31
508.788	1	30
509.979	1	30
511.171	1	44
512.362	1	34
513.553	1	39
514.745	1	27
515.936	1	45
517.127	1	42
518.319	1	34
519.510	1	38
520.701	1	41
521.892	1	48
523.083	1	49
524.274	1	35
525.465	1	38
526.656	1	45
527.847	1	35
529.038	1	35
530.229	1	57
531.419	1	50
532.610	1	36
533.801	1	54
534.991	1	44
536.182	1	39
537.373	1	45
538.563	1	51
539.754	1	41
540.944	1	42
542.134	1	33
543.325	1	38
544.515	1	34
545.705	1	41
546.896	1	46
548.086	1	31
549.276	1	30
550.466	1	43
551.656	1	37
552.846	1	30
554.036	1	43
555.226	1	43
556.416	1	45
557.606	1	34
558.796	1	43
559.986	1	29
561.175	1	28
562.365	1	37
563.555	1	25
564.744	1	29
565.934	1	25
567.123	1	22
568.313	1	18
569.502	1	32
570.692	1	30
571.881	1	21
573.070	1	9
574.260	1	28
575.449	1	26
576.638	1	19
577.827	1	11
579.016	1	11
580.205	1	18
581.394	1	15
582.583	1	18
583.772	1	19
584.961	1	16
586.150	1	22
587.339	1	12
588.528	1	19
589.717	1	7
590.905	1	15
592.094	1	10
593.283	1	2
594.471	1	6
595.660	1	14
596.848	1	4
598.037	1	10
599.225	1	10
600.413	1	9
601.602	1	5
602.790	1	1
603.978	1	13
605.166	1	17
606.355	1	12
607.543	1	2
608.731	1	12
609.919	1	16
611.107	1	9
612.295	1	15
613.483	1	5
614.671	1	7
615.858	1	0
617.046	1	8
618.234	1	4
619.422	1	12
620.609	1	4
621.797	1	1
622.985	1	3
624.172	1	-2
625.360	1	7
626.547	1	3
627.735	1	12
628.922	1	3
630.109	1	11
631.297	1	0
632.484	1	-3
633.671	1	-6
634.858	1	3
636.045	1	23
637.232	1	1
638.419	1	11
639.606	1	6
640.793	1	-7
641.980	1	2
643.167	1	6
644.354	1	-1
645.541	1	-1
646.728	1	7
647.914	1	1
649.101	1	5
650.288	1	3
651.474	1	2
652.661	1	4
653.847	1	8
655.034	1	8
656.220	1	-6
657.406	1	3
658.593	1	3
659.779	1	-3
660.965	1	-2
662.152	1	1
663.338	1	5
664.524	1	2
665.710	1	14
666.896	1	13
668.082	1	4
669.268	1	9
670.454	1	8
671.640	1	0
672.826	1	9
674.011	1	1
675.197	1	5
676.383	1	10
677.569	1	13
678.754	1	12
679.940	1	11
681.125	1	9
682.311	1	-12
683.496	1	5
684.682	1	1
685.867	1	-6
687.053	1	10
688.238	1	9
688.746	1	3

File: GaN_sample F_spot6_UVVIS_130 K_200um_350 ms 2x2mm1_102.txt
340.368	1	4
341.565	1	1
342.763	1	7
343.960	1	-8
345.157	1	-2
346.354	1	2
347.552	1	4
348.749	1	13
349.946	1	3
351.143	1	2
352.340	1	7
353.537	1	4
354.734	1	7
355.931	1	6
357.127	1	20
358.324	1	17
359.521	1	8
360.718	1	30
361.914	1	40
363.111	1	64
364.308	1	85
365.504	1	86
366.701	1	101
367.897	1	120
369.093	1	112
370.290	1	103
371.486	1	81
372.682	1	66
373.879	1	68
375.075	1	62
376.271	1	53
377.467	1	49
378.663	1	37
379.859	1	31
381.055	1	23
382.251	1	28
383.447	1	29
384.643	1	42
385.839	1	35
387.035	1	47
388.230	1	25
389.426	1	19
390.622	1	28
391.817	1	27
393.013	1	22
394.208	1	6
395.404	1	5
396.599	1	22
397.795	1	5
398.990	1	18
400.186	1	16
401.381	1	7
402.576	1	13
403.771	1	18
404.967	1	13
406.162	1	6
407.357	1	10
408.552	1	9
409.747	1	6
410.942	1	5
412.137	1	16
413.332	1	-3
414.526	1	11
415.721	1	9
416.916	1	12
418.111	1	16
419.305	1	15
420.500	1	7
421.695	1	3
422.889	1	10
424.084	1	13
425.278	1	1
426.472	1	11
427.667	1	15
428.861	1	-2
430.055	1	5
431.250	1	11
432.444	1	11
433.638	1	6
434.832	1	1
436.026	1	12
437.220	1	1
438.414	1	-4
439.608	1	13
440.802	1	-3
441.996	1	11
443.190	1	7
444.384	1	3
445.578	1	1
446.771	1	2
447.965	1	-2
449.159	1	11
450.352	1	11
451.546	1	12
452.739	1	6
453.933	1	13
455.126	1	4
456.320	1	6
457.513	1	6
458.706	1	1
459.899	1	4
461.093	1	12
462.286	1	0
463.479	1	10
464.672	1	3
465.865	1	-5
467.058	1	1
468.251	1	10
469.444	1	8
470.637	1	15
471.830	1	6
473.023	1	9
474.215	1	13
475.408	1	14
476.601	1	4
477.793	1	-2
478.986	1	3
480.179	1	7
481.371	1	17
482.564	1	0
483.756	1	14
484.948	1	12
486.141	1	9
487.333	1	-3
488.525	1	15
489.718	1	17
490.910	1	11
492.102	1	19
493.294	1	14
494.486	1	28
495.678	1	22
496.870	1	23
498.062	1	13
499.254	1	30
500.446	1	24
501.638	1	16
502.829	1	21
504.021	1	23
505.213	1	16
506.404	1	36
507.596	1	31
508.788	1	37
509.979	1	28
511.171	1	51
512.362	1	29
513.553	1	41
514.745	1	34
515.936	1	57
517.127	1	44
518.319	1	39
519.510	1	37
520.701	1	42
521.892	1	44
523.083	1	49
524.274	1	33
525.465	1	46
526.656	1	42
527.847	1	36
529.038	1	31
530.229	1	47
531.419	1	48
532.610	1	47
533.801	1	51
534.991	1	44
536.182	1	43
537.373	1	36
538.563	1	51
539.754	1	47
540.944	1	49
542.134	1	40
543.325	1	46
544.515	1	30
545.705	1	34
546.896	1	38
548.086	1	34
549.276	1	31
550.466	1	40
551.656	1	33
552.846	1	27
554.036	1	38
555.226	1	38
556.416	1	35
557.606	1	28
558.796	1	43
559.986	1	35
561.175	1	37
562.365	1	21
563.555	1	37
564.744	1	21
565.934	1	27
567.123	1	31
568.313	1	12
569.502	1	22
570.692	1	15
571.881	1	24
573.070	1	24
574.260	1	16
575.449	1	12
576.638	1	13
577.827	1	6
579.016	1	18
580.205	1	6
581.394	1	11
582.583	1	25
583.772	1	17
584.961	1	6
586.150	1	10
587.339	1	20
588.528	1	20
589.717	1	12
590.905	1	18
592.094	1	11
593.283	1	-2
594.471	1	7
595.660	1	15
596.848	1	11
598.037	1	4
599.225	1	11
600.413	1	10
601.602	1	7
602.790	1	6
603.978	1	14
605.166	1	7
606.355	1	5
607.543	1	13
608.731	1	10
609.919	1	18
611.107	1	16
612.295	1	6
613.483	1	0
614.671	1	5
615.858	1	6
617.046	1	10
618.234	1	-4
619.422	1	8
620.609	1	6
621.797	1	10
622.985	1	1
624.172	1	6
625.360	1	3
626.547	1	11
627.735	1	13
628.922	1	1
630.109	1	5
631.297	1	3
632.484	1	4
633.671	1	-1
634.858	1	10
636.045	1	18
637.232	1	-7
638.419	1	3
639.606	1	1
640.793	1	1
641.980	1	-2
643.167	1	10
644.354	1	2
645.541	1	3
646.728	1	12
647.914	1	-2
649.101	1	4
650.288	1	7
651.474	1	10
652.661	1	9
653.847	1	-1
655.034	1	-1
656.220	1	-9
657.406	1	5
658.593	1	-3
659.779	1	17
660.965	1	6
662.152	1	1
663.338	1	5
664.524	1	10
665.710	1	10
666.896	1	8
668.082	1	4
669.268	1	5
670.454	1	6
671.640	1	-2
672.826	1	8
674.011	1	5
675.197	1	0
676.383	1	8
677.569	1	1
678.754	1	7
679.940	1	8
681.125	1	14
682.311	1	-8
683.496	1	7
684.682	1	0
685.867	1	4
687.053	1	5
688.238	1	8
688.746	1	14