Folder: cryo-il_analysis/Data/GaN_130K_350ms (part 11)

File: GaN_sample F_spot6_UVVIS_130 K_200um_350 ms 2x2mm1_158.txt
340.368	1	5
341.565	1	6
342.763	1	4
343.960	1	-11
345.157	1	-5
346.354	1	6
347.552	1	-4
348.749	1	4
349.946	1	7
351.143	1	-2
352.340	1	8
353.537	1	5
354.734	1	0
355.931	1	7
357.127	1	4
358.324	1	10
359.521	1	7
360.718	1	11
361.914	1	14
363.111	1	19
364.308	1	39
365.504	1	28
366.701	1	26
367.897	1	28
369.093	1	36
370.290	1	31
371.486	1	33
372.682	1	18
373.879	1	13
375.075	1	26
376.271	1	13
377.467	1	16
378.663	1	11
379.859	1	5
381.055	1	16
382.251	1	10
383.447	1	10
384.643	1	7
385.839	1	10
387.035	1	16
388.230	1	4
389.426	1	21
390.622	1	15
391.817	1	11
393.013	1	15
394.208	1	8
395.404	1	-6
396.599	1	10
397.795	1	-4
398.990	1	12
400.186	1	-6
401.381	1	9
402.576	1	4
403.771	1	14
404.967	1	11
406.162	1	12
407.357	1	9
408.552	1	5
409.747	1	5
410.942	1	3
412.137	1	-4
413.332	1	4
414.526	1	11
415.721	1	4
416.916	1	13
418.111	1	5
419.305	1	3
420.500	1	16
421.695	1	9
422.889	1	6
424.084	1	17
425.278	1	8
426.472	1	8
427.667	1	2
428.861	1	7
430.055	1	5
431.250	1	8
432.444	1	3
433.638	1	14
434.832	1	1
436.026	1	11
437.220	1	6
438.414	1	-4
439.608	1	7
440.802	1	4
441.996	1	12
443.190	1	8
444.384	1	-3
445.578	1	3
446.771	1	7
447.965	1	6
449.159	1	3
450.352	1	-1
451.546	1	12
452.739	1	8
453.933	1	5
455.126	1	1
456.320	1	8
457.513	1	1
458.706	1	3
459.899	1	2
461.093	1	6
462.286	1	3
463.479	1	16
464.672	1	12
465.865	1	-3
467.058	1	9
468.251	1	11
469.444	1	3
470.637	1	3
471.830	1	6
473.023	1	6
474.215	1	-1
475.408	1	0
476.601	1	2
477.793	1	-1
478.986	1	5
480.179	1	-6
481.371	1	9
482.564	1	-1
483.756	1	-8
484.948	1	-3
486.141	1	2
487.333	1	-2
488.525	1	10
489.718	1	9
490.910	1	-3
492.102	1	4
493.294	1	12
494.486	1	14
495.678	1	-1
496.870	1	2
498.062	1	0
499.254	1	12
500.446	1	6
501.638	1	8
502.829	1	5
504.021	1	4
505.213	1	8
506.404	1	10
507.596	1	0
508.788	1	8
509.979	1	6
511.171	1	12
512.362	1	0
513.553	1	8
514.745	1	8
515.936	1	21
517.127	1	17
518.319	1	8
519.510	1	7
520.701	1	4
521.892	1	19
523.083	1	14
524.274	1	-3
525.465	1	13
526.656	1	8
527.847	1	6
529.038	1	4
530.229	1	24
531.419	1	16
532.610	1	4
533.801	1	23
534.991	1	10
536.182	1	15
537.373	1	7
538.563	1	19
539.754	1	11
540.944	1	15
542.134	1	9
543.325	1	5
544.515	1	13
545.705	1	2
546.896	1	6
548.086	1	7
549.276	1	4
550.466	1	17
551.656	1	12
552.846	1	1
554.036	1	16
555.226	1	16
556.416	1	14
557.606	1	0
558.796	1	17
559.986	1	11
561.175	1	13
562.365	1	6
563.555	1	9
564.744	1	9
565.934	1	5
567.123	1	8
568.313	1	-1
569.502	1	6
570.692	1	22
571.881	1	6
573.070	1	2
574.260	1	4
575.449	1	14
576.638	1	-4
577.827	1	2
579.016	1	3
580.205	1	-6
581.394	1	12
582.583	1	14
583.772	1	12
584.961	1	0
586.150	1	12
587.339	1	6
588.528	1	9
589.717	1	8
590.905	1	12
592.094	1	1
593.283	1	2
594.471	1	0
595.660	1	12
596.848	1	12
598.037	1	-2
599.225	1	4
600.413	1	14
601.602	1	1
602.790	1	-6
603.978	1	-1
605.166	1	10
606.355	1	7
607.543	1	4
608.731	1	10
609.919	1	8
611.107	1	7
612.295	1	10
613.483	1	-1
614.671	1	13
615.858	1	-11
617.046	1	6
618.234	1	-1
619.422	1	5
620.609	1	-9
621.797	1	7
622.985	1	4
624.172	1	6
625.360	1	3
626.547	1	1
627.735	1	17
628.922	1	-6
630.109	1	10
631.297	1	3
632.484	1	-6
633.671	1	-5
634.858	1	8
636.045	1	10
637.232	1	0
638.419	1	3
639.606	1	0
640.793	1	-10
641.980	1	4
643.167	1	-1
644.354	1	2
645.541	1	-1
646.728	1	0
647.914	1	-7
649.101	1	-7
650.288	1	15
651.474	1	-5
652.661	1	6
653.847	1	-2
655.034	1	-4
656.220	1	3
657.406	1	5
658.593	1	-2
659.779	1	0
660.965	1	-1
662.152	1	3
663.338	1	5
664.524	1	-4
665.710	1	2
666.896	1	8
668.082	1	1
669.268	1	1
670.454	1	-2
671.640	1	-11
672.826	1	10
674.011	1	5
675.197	1	3
676.383	1	3
677.569	1	4
678.754	1	-3
679.940	1	1
681.125	1	8
682.311	1	-6
683.496	1	-2
684.682	1	7
685.867	1	7
687.053	1	-9
688.238	1	6
688.746	1	5

File: GaN_sample F_spot6_UVVIS_130 K_200um_350 ms 2x2mm1_160.txt
340.368	1	5
341.565	1	3
342.763	1	-3
343.960	1	-11
345.157	1	-4
346.354	1	3
347.552	1	8
348.749	1	7
349.946	1	6
351.143	1	-6
352.340	1	18
353.537	1	9
354.734	1	-3
355.931	1	8
357.127	1	13
358.324	1	14
359.521	1	-2
360.718	1	20
361.914	1	19
363.111	1	22
364.308	1	30
365.504	1	27
366.701	1	26
367.897	1	23
369.093	1	30
370.290	1	36
371.486	1	18
372.682	1	16
373.879	1	27
375.075	1	18
376.271	1	15
377.467	1	26
378.663	1	13
379.859	1	11
381.055	1	11
382.251	1	-2
383.447	1	10
384.643	1	17
385.839	1	9
387.035	1	22
388.230	1	8
389.426	1	13
390.622	1	11
391.817	1	3
393.013	1	10
394.208	1	-3
395.404	1	-9
396.599	1	11
397.795	1	2
398.990	1	2
400.186	1	3
401.381	1	11
402.576	1	5
403.771	1	4
404.967	1	5
406.162	1	-6
407.357	1	3
408.552	1	-6
409.747	1	8
410.942	1	13
412.137	1	-1
413.332	1	-1
414.526	1	-3
415.721	1	9
416.916	1	-5
418.111	1	7
419.305	1	6
420.500	1	9
421.695	1	4
422.889	1	-1
424.084	1	9
425.278	1	-7
426.472	1	5
427.667	1	6
428.861	1	-2
430.055	1	2
431.250	1	8
432.444	1	17
433.638	1	8
434.832	1	-5
436.026	1	9
437.220	1	4
438.414	1	-1
439.608	1	16
440.802	1	6
441.996	1	8
443.190	1	0
444.384	1	-1
445.578	1	7
446.771	1	4
447.965	1	7
449.159	1	8
450.352	1	9
451.546	1	14
452.739	1	9
453.933	1	2
455.126	1	1
456.320	1	-1
457.513	1	-8
458.706	1	2
459.899	1	4
461.093	1	8
462.286	1	9
463.479	1	10
464.672	1	6
465.865	1	4
467.058	1	1
468.251	1	3
469.444	1	1
470.637	1	6
471.830	1	8
473.023	1	6
474.215	1	-1
475.408	1	1
476.601	1	7
477.793	1	4
478.986	1	-5
480.179	1	2
481.371	1	8
482.564	1	9
483.756	1	2
484.948	1	2
486.141	1	7
487.333	1	0
488.525	1	10
489.718	1	-1
490.910	1	-8
492.102	1	8
493.294	1	16
494.486	1	16
495.678	1	4
496.870	1	14
498.062	1	3
499.254	1	2
500.446	1	13
501.638	1	7
502.829	1	1
504.021	1	10
505.213	1	8
506.404	1	2
507.596	1	9
508.788	1	6
509.979	1	4
511.171	1	20
512.362	1	7
513.553	1	10
514.745	1	14
515.936	1	14
517.127	1	14
518.319	1	4
519.510	1	9
520.701	1	9
521.892	1	10
523.083	1	12
524.274	1	14
525.465	1	16
526.656	1	26
527.847	1	15
529.038	1	5
530.229	1	15
531.419	1	15
532.610	1	4
533.801	1	14
534.991	1	9
536.182	1	12
537.373	1	10
538.563	1	4
539.754	1	6
540.944	1	9
542.134	1	3
543.325	1	13
544.515	1	12
545.705	1	-3
546.896	1	4
548.086	1	3
549.276	1	4
550.466	1	17
551.656	1	5
552.846	1	6
554.036	1	4
555.226	1	15
556.416	1	11
557.606	1	-1
558.796	1	14
559.986	1	3
561.175	1	16
562.365	1	15
563.555	1	9
564.744	1	5
565.934	1	7
567.123	1	7
568.313	1	2
569.502	1	6
570.692	1	14
571.881	1	5
573.070	1	-4
574.260	1	8
575.449	1	13
576.638	1	-5
577.827	1	1
579.016	1	7
580.205	1	5
581.394	1	13
582.583	1	7
583.772	1	7
584.961	1	4
586.150	1	7
587.339	1	1
588.528	1	11
589.717	1	2
590.905	1	9
592.094	1	-4
593.283	1	1
594.471	1	7
595.660	1	-4
596.848	1	7
598.037	1	5
599.225	1	5
600.413	1	18
601.602	1	-4
602.790	1	3
603.978	1	8
605.166	1	9
606.355	1	15
607.543	1	4
608.731	1	7
609.919	1	11
611.107	1	8
612.295	1	11
613.483	1	-8
614.671	1	7
615.858	1	-1
617.046	1	10
618.234	1	8
619.422	1	5
620.609	1	-4
621.797	1	0
622.985	1	1
624.172	1	4
625.360	1	7
626.547	1	7
627.735	1	12
628.922	1	2
630.109	1	10
631.297	1	0
632.484	1	-1
633.671	1	6
634.858	1	10
636.045	1	19
637.232	1	-3
638.419	1	6
639.606	1	7
640.793	1	-6
641.980	1	-4
643.167	1	14
644.354	1	-8
645.541	1	9
646.728	1	11
647.914	1	0
649.101	1	-1
650.288	1	7
651.474	1	3
652.661	1	-2
653.847	1	-3
655.034	1	0
656.220	1	15
657.406	1	5
658.593	1	1
659.779	1	10
660.965	1	9
662.152	1	4
663.338	1	-4
664.524	1	5
665.710	1	-3
666.896	1	2
668.082	1	1
669.268	1	7
670.454	1	-3
671.640	1	-11
672.826	1	0
674.011	1	2
675.197	1	1
676.383	1	3
677.569	1	-2
678.754	1	6
679.940	1	-4
681.125	1	10
682.311	1	-3
683.496	1	-3
684.682	1	-8
685.867	1	-1
687.053	1	-4
688.238	1	11
688.746	1	9

File: GaN_sample F_spot6_UVVIS_130 K_200um_350 ms 2x2mm1_161.txt
340.368	1	11
341.565	1	6
342.763	1	8
343.960	1	-1
345.157	1	-8
346.354	1	-2
347.552	1	2
348.749	1	10
349.946	1	14
351.143	1	3
352.340	1	8
353.537	1	2
354.734	1	3
355.931	1	14
357.127	1	0
358.324	1	5
359.521	1	14
360.718	1	20
361.914	1	12
363.111	1	25
364.308	1	29
365.504	1	26
366.701	1	23
367.897	1	17
369.093	1	28
370.290	1	39
371.486	1	27
372.682	1	18
373.879	1	23
375.075	1	25
376.271	1	16
377.467	1	15
378.663	1	23
379.859	1	11
381.055	1	12
382.251	1	9
383.447	1	10
384.643	1	13
385.839	1	11
387.035	1	26
388.230	1	11
389.426	1	12
390.622	1	6
391.817	1	12
393.013	1	12
394.208	1	6
395.404	1	4
396.599	1	21
397.795	1	1
398.990	1	13
400.186	1	3
401.381	1	4
402.576	1	12
403.771	1	15
404.967	1	5
406.162	1	-4
407.357	1	1
408.552	1	3
409.747	1	1
410.942	1	7
412.137	1	7
413.332	1	6
414.526	1	-2
415.721	1	9
416.916	1	7
418.111	1	16
419.305	1	8
420.500	1	9
421.695	1	2
422.889	1	-4
424.084	1	5
425.278	1	5
426.472	1	2
427.667	1	10
428.861	1	4
430.055	1	5
431.250	1	8
432.444	1	8
433.638	1	6
434.832	1	10
436.026	1	17
437.220	1	-8
438.414	1	3
439.608	1	10
440.802	1	-10
441.996	1	4
443.190	1	14
444.384	1	-3
445.578	1	-3
446.771	1	10
447.965	1	4
449.159	1	-2
450.352	1	11
451.546	1	6
452.739	1	7
453.933	1	14
455.126	1	2
456.320	1	5
457.513	1	4
458.706	1	13
459.899	1	0
461.093	1	15
462.286	1	10
463.479	1	14
464.672	1	11
465.865	1	-13
467.058	1	12
468.251	1	1
469.444	1	-2
470.637	1	2
471.830	1	7
473.023	1	4
474.215	1	4
475.408	1	4
476.601	1	0
477.793	1	2
478.986	1	-3
480.179	1	-1
481.371	1	12
482.564	1	1
483.756	1	4
484.948	1	2
486.141	1	1
487.333	1	-5
488.525	1	7
489.718	1	3
490.910	1	-7
492.102	1	6
493.294	1	3
494.486	1	19
495.678	1	14
496.870	1	14
498.062	1	15
499.254	1	10
500.446	1	11
501.638	1	0
502.829	1	2
504.021	1	2
505.213	1	10
506.404	1	3
507.596	1	5
508.788	1	9
509.979	1	6
511.171	1	20
512.362	1	5
513.553	1	13
514.745	1	7
515.936	1	20
517.127	1	9
518.319	1	5
519.510	1	12
520.701	1	8
521.892	1	18
523.083	1	16
524.274	1	4
525.465	1	21
526.656	1	8
527.847	1	12
529.038	1	14
530.229	1	13
531.419	1	8
532.610	1	19
533.801	1	20
534.991	1	10
536.182	1	19
537.373	1	12
538.563	1	13
539.754	1	12
540.944	1	6
542.134	1	9
543.325	1	7
544.515	1	6
545.705	1	7
546.896	1	17
548.086	1	3
549.276	1	9
550.466	1	17
551.656	1	16
552.846	1	5
554.036	1	12
555.226	1	14
556.416	1	15
557.606	1	4
558.796	1	16
559.986	1	14
561.175	1	13
562.365	1	11
563.555	1	17
564.744	1	3
565.934	1	4
567.123	1	8
568.313	1	1
569.502	1	5
570.692	1	6
571.881	1	5
573.070	1	6
574.260	1	1
575.449	1	16
576.638	1	7
577.827	1	3
579.016	1	2
580.205	1	-1
581.394	1	-3
582.583	1	14
583.772	1	0
584.961	1	-1
586.150	1	1
587.339	1	3
588.528	1	10
589.717	1	8
590.905	1	16
592.094	1	2
593.283	1	-3
594.471	1	5
595.660	1	4
596.848	1	5
598.037	1	5
599.225	1	1
600.413	1	15
601.602	1	3
602.790	1	-5
603.978	1	-1
605.166	1	13
606.355	1	13
607.543	1	6
608.731	1	8
609.919	1	10
611.107	1	10
612.295	1	4
613.483	1	0
614.671	1	0
615.858	1	-6
617.046	1	8
618.234	1	5
619.422	1	4
620.609	1	-6
621.797	1	-2
622.985	1	2
624.172	1	3
625.360	1	3
626.547	1	5
627.735	1	15
628.922	1	-8
630.109	1	5
631.297	1	3
632.484	1	-1
633.671	1	-4
634.858	1	12
636.045	1	13
637.232	1	3
638.419	1	4
639.606	1	10
640.793	1	0
641.980	1	5
643.167	1	9
644.354	1	-12
645.541	1	4
646.728	1	13
647.914	1	0
649.101	1	-13
650.288	1	6
651.474	1	-1
652.661	1	-6
653.847	1	1
655.034	1	3
656.220	1	4
657.406	1	7
658.593	1	5
659.779	1	0
660.965	1	-2
662.152	1	0
663.338	1	2
664.524	1	-5
665.710	1	3
666.896	1	3
668.082	1	5
669.268	1	7
670.454	1	1
671.640	1	-9
672.826	1	-2
674.011	1	6
675.197	1	1
676.383	1	4
677.569	1	3
678.754	1	-5
679.940	1	2
681.125	1	7
682.311	1	-5
683.496	1	3
684.682	1	-1
685.867	1	0
687.053	1	-4
688.238	1	13
688.746	1	11

File: GaN_sample F_spot6_UVVIS_130 K_200um_350 ms 2x2mm1_162.txt
340.368	1	6
341.565	1	9
342.763	1	1
343.960	1	-5
345.157	1	-14
346.354	1	9
347.552	1	1
348.749	1	7
349.946	1	4
351.143	1	6
352.340	1	10
353.537	1	11
354.734	1	0
355.931	1	8
357.127	1	10
358.324	1	8
359.521	1	8
360.718	1	14
361.914	1	11
363.111	1	22
364.308	1	27
365.504	1	20
366.701	1	23
367.897	1	29
369.093	1	29
370.290	1	44
371.486	1	24
372.682	1	24
373.879	1	23
375.075	1	26
376.271	1	15
377.467	1	13
378.663	1	13
379.859	1	10
381.055	1	3
382.251	1	12
383.447	1	17
384.643	1	9
385.839	1	9
387.035	1	17
388.230	1	6
389.426	1	5
390.622	1	10
391.817	1	12
393.013	1	9
394.208	1	1
395.404	1	-2
396.599	1	15
397.795	1	0
398.990	1	11
400.186	1	0
401.381	1	6
402.576	1	12
403.771	1	5
404.967	1	13
406.162	1	3
407.357	1	7
408.552	1	5
409.747	1	-1
410.942	1	11
412.137	1	4
413.332	1	-5
414.526	1	9
415.721	1	6
416.916	1	3
418.111	1	15
419.305	1	5
420.500	1	4
421.695	1	3
422.889	1	14
424.084	1	8
425.278	1	2
426.472	1	2
427.667	1	7
428.861	1	-3
430.055	1	-2
431.250	1	12
432.444	1	15
433.638	1	5
434.832	1	5
436.026	1	17
437.220	1	1
438.414	1	2
439.608	1	13
440.802	1	3
441.996	1	5
443.190	1	-6
444.384	1	0
445.578	1	2
446.771	1	2
447.965	1	5
449.159	1	11
450.352	1	10
451.546	1	18
452.739	1	2
453.933	1	6
455.126	1	-6
456.320	1	4
457.513	1	-7
458.706	1	8
459.899	1	-1
461.093	1	9
462.286	1	8
463.479	1	8
464.672	1	10
465.865	1	-3
467.058	1	9
468.251	1	2
469.444	1	3
470.637	1	17
471.830	1	-11
473.023	1	9
474.215	1	5
475.408	1	3
476.601	1	9
477.793	1	0
478.986	1	0
480.179	1	-1
481.371	1	7
482.564	1	2
483.756	1	0
484.948	1	3
486.141	1	13
487.333	1	4
488.525	1	9
489.718	1	10
490.910	1	-3
492.102	1	5
493.294	1	7
494.486	1	5
495.678	1	5
496.870	1	3
498.062	1	-2
499.254	1	3
500.446	1	17
501.638	1	1
502.829	1	6
504.021	1	0
505.213	1	11
506.404	1	11
507.596	1	4
508.788	1	12
509.979	1	2
511.171	1	16
512.362	1	5
513.553	1	4
514.745	1	10
515.936	1	21
517.127	1	7
518.319	1	3
519.510	1	12
520.701	1	11
521.892	1	16
523.083	1	10
524.274	1	5
525.465	1	20
526.656	1	4
527.847	1	14
529.038	1	-7
530.229	1	13
531.419	1	8
532.610	1	12
533.801	1	24
534.991	1	19
536.182	1	16
537.373	1	9
538.563	1	17
539.754	1	7
540.944	1	12
542.134	1	9
543.325	1	15
544.515	1	15
545.705	1	9
546.896	1	6
548.086	1	5
549.276	1	7
550.466	1	16
551.656	1	8
552.846	1	3
554.036	1	14
555.226	1	12
556.416	1	15
557.606	1	3
558.796	1	11
559.986	1	8
561.175	1	2
562.365	1	5
563.555	1	3
564.744	1	11
565.934	1	5
567.123	1	10
568.313	1	2
569.502	1	0
570.692	1	15
571.881	1	14
573.070	1	0
574.260	1	5
575.449	1	14
576.638	1	-2
577.827	1	0
579.016	1	-13
580.205	1	4
581.394	1	15
582.583	1	6
583.772	1	4
584.961	1	0
586.150	1	7
587.339	1	0
588.528	1	13
589.717	1	3
590.905	1	-2
592.094	1	3
593.283	1	-4
594.471	1	4
595.660	1	9
596.848	1	8
598.037	1	9
599.225	1	4
600.413	1	11
601.602	1	-5
602.790	1	1
603.978	1	7
605.166	1	21
606.355	1	12
607.543	1	0
608.731	1	11
609.919	1	13
611.107	1	5
612.295	1	12
613.483	1	2
614.671	1	1
615.858	1	-6
617.046	1	13
618.234	1	12
619.422	1	6
620.609	1	1
621.797	1	3
622.985	1	14
624.172	1	-10
625.360	1	-3
626.547	1	9
627.735	1	6
628.922	1	-11
630.109	1	3
631.297	1	7
632.484	1	-5
633.671	1	-2
634.858	1	3
636.045	1	16
637.232	1	-5
638.419	1	9
639.606	1	10
640.793	1	0
641.980	1	-3
643.167	1	9
644.354	1	-1
645.541	1	-5
646.728	1	-4
647.914	1	3
649.101	1	1
650.288	1	8
651.474	1	2
652.661	1	3
653.847	1	-4
655.034	1	0
656.220	1	-1
657.406	1	9
658.593	1	7
659.779	1	4
660.965	1	2
662.152	1	0
663.338	1	0
664.524	1	5
665.710	1	6
666.896	1	6
668.082	1	4
669.268	1	6
670.454	1	9
671.640	1	-4
672.826	1	-4
674.011	1	-1
675.197	1	-6
676.383	1	2
677.569	1	-4
678.754	1	-3
679.940	1	-8
681.125	1	13
682.311	1	-7
683.496	1	1
684.682	1	2
685.867	1	5
687.053	1	4
688.238	1	9
688.746	1	7

File: GaN_sample F_spot6_UVVIS_130 K_200um_350 ms 2x2mm1_165.txt
340.368	1	3
341.565	1	5
342.763	1	10
343.960	1	-10
345.157	1	-8
346.354	1	6
347.552	1	-2
348.749	1	3
349.946	1	2
351.143	1	5
352.340	1	22
353.537	1	-1
354.734	1	9
355.931	1	10
357.127	1	6
358.324	1	2
359.521	1	3
360.718	1	13
361.914	1	14
363.111	1	26
364.308	1	30
365.504	1	28
366.701	1	28
367.897	1	37
369.093	1	33
370.290	1	21
371.486	1	20
372.682	1	8
373.879	1	19
375.075	1	22
376.271	1	16
377.467	1	16
378.663	1	15
379.859	1	10
381.055	1	4
382.251	1	12
383.447	1	7
384.643	1	6
385.839	1	7
387.035	1	18
388.230	1	0
389.426	1	13
390.622	1	4
391.817	1	12
393.013	1	17
394.208	1	2
395.404	1	0
396.599	1	14
397.795	1	-6
398.990	1	5
400.186	1	-5
401.381	1	11
402.576	1	10
403.771	1	12
404.967	1	1
406.162	1	0
407.357	1	12
408.552	1	8
409.747	1	3
410.942	1	10
412.137	1	8
413.332	1	0
414.526	1	6
415.721	1	5
416.916	1	15
418.111	1	11
419.305	1	1
420.500	1	1
421.695	1	3
422.889	1	11
424.084	1	9
425.278	1	3
426.472	1	4
427.667	1	9
428.861	1	3
430.055	1	4
431.250	1	13
432.444	1	10
433.638	1	4
434.832	1	7
436.026	1	7
437.220	1	-5
438.414	1	-1
439.608	1	16
440.802	1	-7
441.996	1	13
443.190	1	3
444.384	1	3
445.578	1	9
446.771	1	11
447.965	1	9
449.159	1	10
450.352	1	11
451.546	1	9
452.739	1	4
453.933	1	-3
455.126	1	-5
456.320	1	0
457.513	1	-11
458.706	1	-3
459.899	1	9
461.093	1	3
462.286	1	3
463.479	1	18
464.672	1	7
465.865	1	-3
467.058	1	10
468.251	1	9
469.444	1	7
470.637	1	6
471.830	1	8
473.023	1	8
474.215	1	3
475.408	1	5
476.601	1	6
477.793	1	-1
478.986	1	6
480.179	1	1
481.371	1	7
482.564	1	2
483.756	1	1
484.948	1	-6
486.141	1	-3
487.333	1	0
488.525	1	0
489.718	1	11
490.910	1	-9
492.102	1	2
493.294	1	8
494.486	1	14
495.678	1	1
496.870	1	-3
498.062	1	-5
499.254	1	13
500.446	1	5
501.638	1	3
502.829	1	1
504.021	1	1
505.213	1	12
506.404	1	9
507.596	1	-1
508.788	1	2
509.979	1	0
511.171	1	14
512.362	1	11
513.553	1	13
514.745	1	9
515.936	1	18
517.127	1	12
518.319	1	2
519.510	1	5
520.701	1	13
521.892	1	12
523.083	1	11
524.274	1	-3
525.465	1	14
526.656	1	14
527.847	1	9
529.038	1	1
530.229	1	18
531.419	1	9
532.610	1	3
533.801	1	19
534.991	1	4
536.182	1	14
537.373	1	18
538.563	1	22
539.754	1	6
540.944	1	10
542.134	1	9
543.325	1	2
544.515	1	10
545.705	1	5
546.896	1	9
548.086	1	5
549.276	1	2
550.466	1	8
551.656	1	1
552.846	1	3
554.036	1	5
555.226	1	14
556.416	1	19
557.606	1	8
558.796	1	8
559.986	1	13
561.175	1	12
562.365	1	8
563.555	1	11
564.744	1	5
565.934	1	8
567.123	1	3
568.313	1	7
569.502	1	3
570.692	1	12
571.881	1	6
573.070	1	2
574.260	1	16
575.449	1	12
576.638	1	-3
577.827	1	4
579.016	1	4
580.205	1	-1
581.394	1	-4
582.583	1	19
583.772	1	5
584.961	1	9
586.150	1	-1
587.339	1	8
588.528	1	10
589.717	1	2
590.905	1	21
592.094	1	-1
593.283	1	-10
594.471	1	14
595.660	1	4
596.848	1	6
598.037	1	1
599.225	1	7
600.413	1	11
601.602	1	-2
602.790	1	-2
603.978	1	2
605.166	1	5
606.355	1	8
607.543	1	3
608.731	1	7
609.919	1	4
611.107	1	16
612.295	1	9
613.483	1	5
614.671	1	5
615.858	1	0
617.046	1	11
618.234	1	3
619.422	1	1
620.609	1	-6
621.797	1	-1
622.985	1	6
624.172	1	1
625.360	1	1
626.547	1	3
627.735	1	9
628.922	1	-8
630.109	1	11
631.297	1	5
632.484	1	-7
633.671	1	2
634.858	1	10
636.045	1	19
637.232	1	3
638.419	1	9
639.606	1	7
640.793	1	-1
641.980	1	1
643.167	1	1
644.354	1	-2
645.541	1	5
646.728	1	-1
647.914	1	-10
649.101	1	5
650.288	1	6
651.474	1	0
652.661	1	3
653.847	1	-6
655.034	1	7
656.220	1	4
657.406	1	11
658.593	1	5
659.779	1	4
660.965	1	7
662.152	1	-5
663.338	1	4
664.524	1	-15
665.710	1	17
666.896	1	3
668.082	1	3
669.268	1	6
670.454	1	4
671.640	1	-2
672.826	1	7
674.011	1	3
675.197	1	-2
676.383	1	3
677.569	1	-5
678.754	1	2
679.940	1	3
681.125	1	4
682.311	1	-7
683.496	1	2
684.682	1	3
685.867	1	2
687.053	1	4
688.238	1	4
688.746	1	7

File: GaN_sample F_spot6_UVVIS_130 K_200um_350 ms 2x2mm1_166.txt
340.368	1	4
341.565	1	-3
342.763	1	3
343.960	1	1
345.157	1	-11
346.354	1	3
347.552	1	3
348.749	1	1
349.946	1	3
351.143	1	-3
352.340	1	13
353.537	1	4
354.734	1	-1
355.931	1	7
357.127	1	9
358.324	1	10
359.521	1	4
360.718	1	7
361.914	1	0
363.111	1	27
364.308	1	20
365.504	1	19
366.701	1	28
367.897	1	26
369.093	1	30
370.290	1	36
371.486	1	24
372.682	1	18
373.879	1	16
375.075	1	23
376.271	1	14
377.467	1	24
378.663	1	14
379.859	1	10
381.055	1	9
382.251	1	17
383.447	1	9
384.643	1	18
385.839	1	8
387.035	1	13
388.230	1	-4
389.426	1	18
390.622	1	7
391.817	1	6
393.013	1	14
394.208	1	-4
395.404	1	0
396.599	1	16
397.795	1	5
398.990	1	-6
400.186	1	5
401.381	1	13
402.576	1	2
403.771	1	14
404.967	1	3
406.162	1	5
407.357	1	9
408.552	1	11
409.747	1	7
410.942	1	7
412.137	1	3
413.332	1	1
414.526	1	5
415.721	1	8
416.916	1	9
418.111	1	7
419.305	1	5
420.500	1	11
421.695	1	7
422.889	1	4
424.084	1	8
425.278	1	-5
426.472	1	3
427.667	1	10
428.861	1	2
430.055	1	1
431.250	1	15
432.444	1	8
433.638	1	9
434.832	1	9
436.026	1	12
437.220	1	0
438.414	1	-6
439.608	1	12
440.802	1	0
441.996	1	18
443.190	1	4
444.384	1	-7
445.578	1	-1
446.771	1	9
447.965	1	7
449.159	1	14
450.352	1	8
451.546	1	14
452.739	1	8
453.933	1	8
455.126	1	-11
456.320	1	1
457.513	1	3
458.706	1	4
459.899	1	-2
461.093	1	15
462.286	1	7
463.479	1	7
464.672	1	3
465.865	1	-11
467.058	1	5
468.251	1	9
469.444	1	6
470.637	1	11
471.830	1	9
473.023	1	16
474.215	1	8
475.408	1	8
476.601	1	8
477.793	1	-2
478.986	1	0
480.179	1	-3
481.371	1	7
482.564	1	2
483.756	1	5
484.948	1	4
486.141	1	8
487.333	1	-5
488.525	1	9
489.718	1	14
490.910	1	-3
492.102	1	12
493.294	1	6
494.486	1	10
495.678	1	4
496.870	1	6
498.062	1	7
499.254	1	14
500.446	1	7
501.638	1	5
502.829	1	7
504.021	1	10
505.213	1	10
506.404	1	1
507.596	1	-2
508.788	1	4
509.979	1	3
511.171	1	17
512.362	1	2
513.553	1	13
514.745	1	-2
515.936	1	19
517.127	1	3
518.319	1	2
519.510	1	2
520.701	1	6
521.892	1	19
523.083	1	5
524.274	1	-10
525.465	1	9
526.656	1	9
527.847	1	17
529.038	1	-5
530.229	1	8
531.419	1	11
532.610	1	11
533.801	1	17
534.991	1	9
536.182	1	19
537.373	1	17
538.563	1	21
539.754	1	6
540.944	1	13
542.134	1	2
543.325	1	7
544.515	1	14
545.705	1	8
546.896	1	11
548.086	1	2
549.276	1	5
550.466	1	10
551.656	1	15
552.846	1	8
554.036	1	9
555.226	1	10
556.416	1	4
557.606	1	6
558.796	1	8
559.986	1	12
561.175	1	14
562.365	1	14
563.555	1	19
564.744	1	18
565.934	1	2
567.123	1	5
568.313	1	3
569.502	1	0
570.692	1	13
571.881	1	9
573.070	1	8
574.260	1	1
575.449	1	8
576.638	1	2
577.827	1	0
579.016	1	4
580.205	1	-7
581.394	1	5
582.583	1	14
583.772	1	6
584.961	1	-1
586.150	1	0
587.339	1	1
588.528	1	17
589.717	1	4
590.905	1	10
592.094	1	8
593.283	1	7
594.471	1	1
595.660	1	9
596.848	1	3
598.037	1	8
599.225	1	11
600.413	1	3
601.602	1	-1
602.790	1	0
603.978	1	7
605.166	1	11
606.355	1	-1
607.543	1	3
608.731	1	11
609.919	1	8
611.107	1	12
612.295	1	8
613.483	1	-7
614.671	1	8
615.858	1	6
617.046	1	8
618.234	1	4
619.422	1	-1
620.609	1	2
621.797	1	-5
622.985	1	9
624.172	1	3
625.360	1	10
626.547	1	10
627.735	1	8
628.922	1	-5
630.109	1	6
631.297	1	-2
632.484	1	-10
633.671	1	-1
634.858	1	6
636.045	1	11
637.232	1	-5
638.419	1	12
639.606	1	3
640.793	1	-6
641.980	1	0
643.167	1	9
644.354	1	-6
645.541	1	8
646.728	1	14
647.914	1	0
649.101	1	2
650.288	1	7
651.474	1	2
652.661	1	-2
653.847	1	8
655.034	1	-4
656.220	1	0
657.406	1	0
658.593	1	-3
659.779	1	1
660.965	1	-1
662.152	1	-3
663.338	1	-1
664.524	1	-1
665.710	1	2
666.896	1	6
668.082	1	6
669.268	1	-1
670.454	1	-1
671.640	1	-3
672.826	1	8
674.011	1	4
675.197	1	-1
676.383	1	5
677.569	1	1
678.754	1	-2
679.940	1	-2
681.125	1	6
682.311	1	-15
683.496	1	-1
684.682	1	11
685.867	1	4
687.053	1	7
688.238	1	8
688.746	1	7