Folder: cryo-il_analysis/Data/GaN_200K_800ms (part 30)

File: GaN_sample F_spot 12_UVVIS_200 K_200um_800 ms 2x2mm1_293.txt
340.368	1	1
341.565	1	-5
342.763	1	5
343.960	1	2
345.157	1	7
346.354	1	-5
347.552	1	0
348.749	1	-3
349.946	1	-4
351.143	1	-4
352.340	1	2
353.537	1	-4
354.734	1	8
355.931	1	-1
357.127	1	-6
358.324	1	4
359.521	1	5
360.718	1	-2
361.914	1	0
363.111	1	15
364.308	1	9
365.504	1	17
366.701	1	11
367.897	1	11
369.093	1	15
370.290	1	10
371.486	1	21
372.682	1	18
373.879	1	11
375.075	1	4
376.271	1	15
377.467	1	8
378.663	1	5
379.859	1	-2
381.055	1	7
382.251	1	2
383.447	1	3
384.643	1	6
385.839	1	0
387.035	1	5
388.230	1	6
389.426	1	3
390.622	1	-6
391.817	1	2
393.013	1	-3
394.208	1	7
395.404	1	-2
396.599	1	-5
397.795	1	2
398.990	1	0
400.186	1	1
401.381	1	2
402.576	1	3
403.771	1	1
404.967	1	-3
406.162	1	6
407.357	1	-9
408.552	1	-6
409.747	1	-3
410.942	1	12
412.137	1	0
413.332	1	-7
414.526	1	-7
415.721	1	1
416.916	1	-5
418.111	1	4
419.305	1	3
420.500	1	-7
421.695	1	3
422.889	1	-10
424.084	1	5
425.278	1	11
426.472	1	-3
427.667	1	2
428.861	1	-4
430.055	1	0
431.250	1	-6
432.444	1	0
433.638	1	-9
434.832	1	5
436.026	1	6
437.220	1	6
438.414	1	-1
439.608	1	-7
440.802	1	3
441.996	1	5
443.190	1	4
444.384	1	1
445.578	1	-8
446.771	1	11
447.965	1	-4
449.159	1	-8
450.352	1	-6
451.546	1	-6
452.739	1	10
453.933	1	0
455.126	1	-13
456.320	1	-5
457.513	1	5
458.706	1	-4
459.899	1	-4
461.093	1	2
462.286	1	-3
463.479	1	-2
464.672	1	-6
465.865	1	-2
467.058	1	-6
468.251	1	1
469.444	1	-11
470.637	1	1
471.830	1	-1
473.023	1	7
474.215	1	-1
475.408	1	-2
476.601	1	5
477.793	1	0
478.986	1	-1
480.179	1	-6
481.371	1	12
482.564	1	3
483.756	1	8
484.948	1	-4
486.141	1	3
487.333	1	3
488.525	1	-4
489.718	1	5
490.910	1	2
492.102	1	0
493.294	1	3
494.486	1	11
495.678	1	7
496.870	1	1
498.062	1	4
499.254	1	-3
500.446	1	-2
501.638	1	-9
502.829	1	-7
504.021	1	2
505.213	1	4
506.404	1	5
507.596	1	-1
508.788	1	2
509.979	1	-1
511.171	1	-11
512.362	1	-7
513.553	1	-5
514.745	1	-1
515.936	1	2
517.127	1	-6
518.319	1	-6
519.510	1	2
520.701	1	6
521.892	1	0
523.083	1	1
524.274	1	-7
525.465	1	8
526.656	1	-2
527.847	1	-2
529.038	1	-3
530.229	1	2
531.419	1	6
532.610	1	-7
533.801	1	16
534.991	1	10
536.182	1	6
537.373	1	1
538.563	1	10
539.754	1	5
540.944	1	-8
542.134	1	4
543.325	1	-3
544.515	1	1
545.705	1	-2
546.896	1	7
548.086	1	1
549.276	1	-4
550.466	1	3
551.656	1	4
552.846	1	6
554.036	1	10
555.226	1	-2
556.416	1	-9
557.606	1	1
558.796	1	-3
559.986	1	-6
561.175	1	2
562.365	1	3
563.555	1	6
564.744	1	8
565.934	1	4
567.123	1	-2
568.313	1	10
569.502	1	3
570.692	1	0
571.881	1	10
573.070	1	1
574.260	1	9
575.449	1	3
576.638	1	1
577.827	1	0
579.016	1	3
580.205	1	0
581.394	1	1
582.583	1	9
583.772	1	6
584.961	1	3
586.150	1	3
587.339	1	-2
588.528	1	-2
589.717	1	-3
590.905	1	0
592.094	1	5
593.283	1	1
594.471	1	19
595.660	1	2
596.848	1	-4
598.037	1	0
599.225	1	-8
600.413	1	8
601.602	1	2
602.790	1	-3
603.978	1	0
605.166	1	9
606.355	1	5
607.543	1	-7
608.731	1	4
609.919	1	7
611.107	1	2
612.295	1	-3
613.483	1	6
614.671	1	3
615.858	1	2
617.046	1	4
618.234	1	-1
619.422	1	7
620.609	1	3
621.797	1	-2
622.985	1	7
624.172	1	6
625.360	1	5
626.547	1	-2
627.735	1	8
628.922	1	3
630.109	1	-8
631.297	1	-7
632.484	1	-4
633.671	1	1
634.858	1	5
636.045	1	11
637.232	1	-6
638.419	1	-1
639.606	1	5
640.793	1	1
641.980	1	6
643.167	1	-1
644.354	1	2
645.541	1	4
646.728	1	0
647.914	1	-7
649.101	1	-2
650.288	1	-7
651.474	1	-7
652.661	1	-1
653.847	1	5
655.034	1	8
656.220	1	-4
657.406	1	2
658.593	1	-4
659.779	1	7
660.965	1	7
662.152	1	7
663.338	1	3
664.524	1	6
665.710	1	1
666.896	1	-9
668.082	1	-4
669.268	1	-1
670.454	1	3
671.640	1	5
672.826	1	0
674.011	1	-4
675.197	1	-11
676.383	1	1
677.569	1	-2
678.754	1	-6
679.940	1	6
681.125	1	2
682.311	1	6
683.496	1	-2
684.682	1	-5
685.867	1	-3
687.053	1	4
688.238	1	2
688.746	1	-7

File: GaN_sample F_spot 12_UVVIS_200 K_200um_800 ms 2x2mm1_294.txt
340.368	1	-2
341.565	1	-12
342.763	1	5
343.960	1	0
345.157	1	-7
346.354	1	7
347.552	1	-10
348.749	1	0
349.946	1	-3
351.143	1	-5
352.340	1	2
353.537	1	-10
354.734	1	1
355.931	1	2
357.127	1	5
358.324	1	-4
359.521	1	2
360.718	1	6
361.914	1	10
363.111	1	-1
364.308	1	1
365.504	1	18
366.701	1	9
367.897	1	21
369.093	1	12
370.290	1	8
371.486	1	23
372.682	1	15
373.879	1	6
375.075	1	7
376.271	1	18
377.467	1	15
378.663	1	-4
379.859	1	8
381.055	1	7
382.251	1	4
383.447	1	1
384.643	1	6
385.839	1	1
387.035	1	5
388.230	1	5
389.426	1	-3
390.622	1	8
391.817	1	-5
393.013	1	-7
394.208	1	0
395.404	1	-10
396.599	1	-3
397.795	1	9
398.990	1	5
400.186	1	-1
401.381	1	-4
402.576	1	0
403.771	1	0
404.967	1	-1
406.162	1	1
407.357	1	-4
408.552	1	2
409.747	1	4
410.942	1	-6
412.137	1	2
413.332	1	3
414.526	1	1
415.721	1	0
416.916	1	-3
418.111	1	4
419.305	1	-6
420.500	1	1
421.695	1	1
422.889	1	-19
424.084	1	1
425.278	1	9
426.472	1	3
427.667	1	5
428.861	1	-5
430.055	1	2
431.250	1	-6
432.444	1	10
433.638	1	-4
434.832	1	4
436.026	1	8
437.220	1	4
438.414	1	-13
439.608	1	-3
440.802	1	-1
441.996	1	7
443.190	1	-1
444.384	1	-9
445.578	1	-6
446.771	1	6
447.965	1	-9
449.159	1	-6
450.352	1	3
451.546	1	5
452.739	1	4
453.933	1	-7
455.126	1	-7
456.320	1	4
457.513	1	8
458.706	1	0
459.899	1	-2
461.093	1	-5
462.286	1	2
463.479	1	6
464.672	1	0
465.865	1	-3
467.058	1	3
468.251	1	2
469.444	1	-10
470.637	1	-4
471.830	1	-6
473.023	1	1
474.215	1	9
475.408	1	1
476.601	1	0
477.793	1	-5
478.986	1	6
480.179	1	3
481.371	1	3
482.564	1	-8
483.756	1	4
484.948	1	-1
486.141	1	3
487.333	1	-4
488.525	1	-3
489.718	1	5
490.910	1	-8
492.102	1	-7
493.294	1	-8
494.486	1	3
495.678	1	11
496.870	1	6
498.062	1	2
499.254	1	7
500.446	1	-13
501.638	1	-7
502.829	1	-7
504.021	1	-12
505.213	1	3
506.404	1	2
507.596	1	-4
508.788	1	1
509.979	1	6
511.171	1	-5
512.362	1	-7
513.553	1	-10
514.745	1	-5
515.936	1	1
517.127	1	1
518.319	1	1
519.510	1	2
520.701	1	-3
521.892	1	3
523.083	1	-9
524.274	1	-4
525.465	1	12
526.656	1	-3
527.847	1	-10
529.038	1	8
530.229	1	-2
531.419	1	0
532.610	1	-6
533.801	1	12
534.991	1	-1
536.182	1	2
537.373	1	-2
538.563	1	8
539.754	1	9
540.944	1	-4
542.134	1	9
543.325	1	1
544.515	1	-2
545.705	1	-6
546.896	1	-7
548.086	1	2
549.276	1	-13
550.466	1	0
551.656	1	2
552.846	1	0
554.036	1	9
555.226	1	4
556.416	1	-7
557.606	1	-1
558.796	1	3
559.986	1	-2
561.175	1	7
562.365	1	-2
563.555	1	-8
564.744	1	8
565.934	1	4
567.123	1	5
568.313	1	10
569.502	1	4
570.692	1	10
571.881	1	16
573.070	1	2
574.260	1	9
575.449	1	2
576.638	1	-7
577.827	1	9
579.016	1	11
580.205	1	10
581.394	1	-2
582.583	1	12
583.772	1	7
584.961	1	5
586.150	1	4
587.339	1	1
588.528	1	11
589.717	1	2
590.905	1	-1
592.094	1	0
593.283	1	1
594.471	1	11
595.660	1	5
596.848	1	3
598.037	1	0
599.225	1	-8
600.413	1	15
601.602	1	3
602.790	1	1
603.978	1	3
605.166	1	5
606.355	1	-5
607.543	1	-1
608.731	1	8
609.919	1	9
611.107	1	0
612.295	1	-9
613.483	1	5
614.671	1	3
615.858	1	1
617.046	1	4
618.234	1	-4
619.422	1	-11
620.609	1	1
621.797	1	1
622.985	1	3
624.172	1	-14
625.360	1	0
626.547	1	8
627.735	1	-4
628.922	1	8
630.109	1	-5
631.297	1	1
632.484	1	5
633.671	1	-3
634.858	1	-1
636.045	1	7
637.232	1	-8
638.419	1	2
639.606	1	6
640.793	1	8
641.980	1	3
643.167	1	-6
644.354	1	3
645.541	1	-2
646.728	1	8
647.914	1	1
649.101	1	-1
650.288	1	-4
651.474	1	-3
652.661	1	3
653.847	1	1
655.034	1	6
656.220	1	-7
657.406	1	9
658.593	1	2
659.779	1	1
660.965	1	14
662.152	1	4
663.338	1	6
664.524	1	8
665.710	1	0
666.896	1	2
668.082	1	7
669.268	1	-2
670.454	1	-9
671.640	1	0
672.826	1	-2
674.011	1	5
675.197	1	-7
676.383	1	2
677.569	1	-11
678.754	1	-5
679.940	1	-7
681.125	1	10
682.311	1	-1
683.496	1	4
684.682	1	-5
685.867	1	-11
687.053	1	7
688.238	1	1
688.746	1	-6

File: GaN_sample F_spot 12_UVVIS_200 K_200um_800 ms 2x2mm1_295.txt
340.368	1	0
341.565	1	-6
342.763	1	7
343.960	1	7
345.157	1	-9
346.354	1	-1
347.552	1	-1
348.749	1	-7
349.946	1	-7
351.143	1	0
352.340	1	8
353.537	1	4
354.734	1	7
355.931	1	5
357.127	1	0
358.324	1	9
359.521	1	5
360.718	1	9
361.914	1	13
363.111	1	0
364.308	1	7
365.504	1	17
366.701	1	16
367.897	1	27
369.093	1	9
370.290	1	18
371.486	1	13
372.682	1	22
373.879	1	10
375.075	1	6
376.271	1	13
377.467	1	9
378.663	1	4
379.859	1	10
381.055	1	16
382.251	1	4
383.447	1	-12
384.643	1	5
385.839	1	0
387.035	1	6
388.230	1	7
389.426	1	-3
390.622	1	-1
391.817	1	12
393.013	1	12
394.208	1	-1
395.404	1	-6
396.599	1	-5
397.795	1	-6
398.990	1	-4
400.186	1	-3
401.381	1	-7
402.576	1	7
403.771	1	6
404.967	1	11
406.162	1	-3
407.357	1	0
408.552	1	-5
409.747	1	2
410.942	1	2
412.137	1	8
413.332	1	0
414.526	1	1
415.721	1	2
416.916	1	-8
418.111	1	2
419.305	1	-3
420.500	1	5
421.695	1	-12
422.889	1	-11
424.084	1	-9
425.278	1	12
426.472	1	-3
427.667	1	5
428.861	1	-4
430.055	1	-3
431.250	1	-8
432.444	1	9
433.638	1	-7
434.832	1	-5
436.026	1	9
437.220	1	0
438.414	1	-4
439.608	1	-13
440.802	1	-6
441.996	1	-7
443.190	1	0
444.384	1	-11
445.578	1	-15
446.771	1	14
447.965	1	-8
449.159	1	-7
450.352	1	-3
451.546	1	-2
452.739	1	0
453.933	1	1
455.126	1	-5
456.320	1	-6
457.513	1	-1
458.706	1	-4
459.899	1	8
461.093	1	-8
462.286	1	2
463.479	1	-6
464.672	1	2
465.865	1	2
467.058	1	-4
468.251	1	3
469.444	1	-6
470.637	1	-3
471.830	1	-1
473.023	1	14
474.215	1	-3
475.408	1	1
476.601	1	-10
477.793	1	4
478.986	1	0
480.179	1	-2
481.371	1	2
482.564	1	0
483.756	1	7
484.948	1	-7
486.141	1	-10
487.333	1	0
488.525	1	5
489.718	1	-1
490.910	1	-8
492.102	1	-7
493.294	1	3
494.486	1	8
495.678	1	0
496.870	1	4
498.062	1	-2
499.254	1	0
500.446	1	5
501.638	1	-8
502.829	1	-4
504.021	1	-8
505.213	1	2
506.404	1	0
507.596	1	7
508.788	1	14
509.979	1	3
511.171	1	-4
512.362	1	0
513.553	1	0
514.745	1	-4
515.936	1	-5
517.127	1	-6
518.319	1	-3
519.510	1	2
520.701	1	5
521.892	1	-1
523.083	1	-4
524.274	1	7
525.465	1	7
526.656	1	5
527.847	1	2
529.038	1	-2
530.229	1	4
531.419	1	11
532.610	1	1
533.801	1	13
534.991	1	3
536.182	1	-6
537.373	1	-2
538.563	1	3
539.754	1	7
540.944	1	7
542.134	1	-3
543.325	1	4
544.515	1	-3
545.705	1	-5
546.896	1	7
548.086	1	3
549.276	1	0
550.466	1	-4
551.656	1	-6
552.846	1	1
554.036	1	1
555.226	1	-11
556.416	1	1
557.606	1	4
558.796	1	-5
559.986	1	-11
561.175	1	-4
562.365	1	6
563.555	1	6
564.744	1	-2
565.934	1	4
567.123	1	3
568.313	1	10
569.502	1	1
570.692	1	0
571.881	1	6
573.070	1	3
574.260	1	12
575.449	1	-4
576.638	1	-10
577.827	1	-1
579.016	1	0
580.205	1	10
581.394	1	-4
582.583	1	7
583.772	1	5
584.961	1	4
586.150	1	-3
587.339	1	9
588.528	1	-3
589.717	1	2
590.905	1	3
592.094	1	1
593.283	1	0
594.471	1	13
595.660	1	5
596.848	1	10
598.037	1	-10
599.225	1	-7
600.413	1	4
601.602	1	12
602.790	1	-5
603.978	1	-2
605.166	1	12
606.355	1	5
607.543	1	7
608.731	1	1
609.919	1	7
611.107	1	-6
612.295	1	-8
613.483	1	-10
614.671	1	9
615.858	1	1
617.046	1	11
618.234	1	3
619.422	1	-8
620.609	1	4
621.797	1	0
622.985	1	-6
624.172	1	-5
625.360	1	7
626.547	1	-2
627.735	1	3
628.922	1	1
630.109	1	-14
631.297	1	-5
632.484	1	-2
633.671	1	-3
634.858	1	5
636.045	1	3
637.232	1	-1
638.419	1	-1
639.606	1	0
640.793	1	8
641.980	1	6
643.167	1	-8
644.354	1	5
645.541	1	9
646.728	1	-3
647.914	1	-5
649.101	1	-2
650.288	1	7
651.474	1	-9
652.661	1	2
653.847	1	11
655.034	1	-2
656.220	1	-4
657.406	1	10
658.593	1	9
659.779	1	-5
660.965	1	11
662.152	1	4
663.338	1	9
664.524	1	-1
665.710	1	4
666.896	1	9
668.082	1	-1
669.268	1	5
670.454	1	4
671.640	1	0
672.826	1	1
674.011	1	-14
675.197	1	-6
676.383	1	3
677.569	1	-7
678.754	1	-6
679.940	1	-3
681.125	1	9
682.311	1	4
683.496	1	2
684.682	1	-9
685.867	1	-8
687.053	1	9
688.238	1	3
688.746	1	1

File: GaN_sample F_spot 12_UVVIS_200 K_200um_800 ms 2x2mm1_296.txt
340.368	1	0
341.565	1	-4
342.763	1	4
343.960	1	-6
345.157	1	-12
346.354	1	2
347.552	1	-2
348.749	1	-7
349.946	1	-8
351.143	1	-1
352.340	1	-1
353.537	1	-1
354.734	1	-3
355.931	1	3
357.127	1	0
358.324	1	-2
359.521	1	7
360.718	1	3
361.914	1	9
363.111	1	6
364.308	1	7
365.504	1	16
366.701	1	8
367.897	1	21
369.093	1	5
370.290	1	23
371.486	1	21
372.682	1	24
373.879	1	4
375.075	1	-2
376.271	1	17
377.467	1	8
378.663	1	5
379.859	1	7
381.055	1	13
382.251	1	-10
383.447	1	5
384.643	1	6
385.839	1	0
387.035	1	3
388.230	1	11
389.426	1	-3
390.622	1	-7
391.817	1	-4
393.013	1	2
394.208	1	2
395.404	1	1
396.599	1	-1
397.795	1	-5
398.990	1	-11
400.186	1	1
401.381	1	-2
402.576	1	0
403.771	1	-1
404.967	1	-2
406.162	1	9
407.357	1	-7
408.552	1	-4
409.747	1	5
410.942	1	4
412.137	1	10
413.332	1	0
414.526	1	0
415.721	1	-3
416.916	1	-2
418.111	1	-2
419.305	1	-2
420.500	1	-8
421.695	1	-1
422.889	1	-10
424.084	1	1
425.278	1	11
426.472	1	-4
427.667	1	0
428.861	1	4
430.055	1	0
431.250	1	1
432.444	1	6
433.638	1	2
434.832	1	0
436.026	1	8
437.220	1	6
438.414	1	-7
439.608	1	-13
440.802	1	-7
441.996	1	10
443.190	1	3
444.384	1	-7
445.578	1	-10
446.771	1	5
447.965	1	-3
449.159	1	-1
450.352	1	-9
451.546	1	-3
452.739	1	2
453.933	1	6
455.126	1	-10
456.320	1	6
457.513	1	5
458.706	1	-4
459.899	1	7
461.093	1	-4
462.286	1	7
463.479	1	-6
464.672	1	-5
465.865	1	-3
467.058	1	-5
468.251	1	1
469.444	1	0
470.637	1	-5
471.830	1	6
473.023	1	-2
474.215	1	7
475.408	1	5
476.601	1	-3
477.793	1	-5
478.986	1	-6
480.179	1	-1
481.371	1	5
482.564	1	-1
483.756	1	6
484.948	1	-6
486.141	1	-8
487.333	1	0
488.525	1	-2
489.718	1	-3
490.910	1	3
492.102	1	-3
493.294	1	-7
494.486	1	10
495.678	1	-1
496.870	1	8
498.062	1	1
499.254	1	-6
500.446	1	-15
501.638	1	1
502.829	1	-2
504.021	1	5
505.213	1	9
506.404	1	3
507.596	1	1
508.788	1	16
509.979	1	-9
511.171	1	0
512.362	1	-15
513.553	1	0
514.745	1	0
515.936	1	6
517.127	1	6
518.319	1	2
519.510	1	-1
520.701	1	-6
521.892	1	8
523.083	1	5
524.274	1	-2
525.465	1	12
526.656	1	-3
527.847	1	0
529.038	1	1
530.229	1	1
531.419	1	2
532.610	1	-11
533.801	1	4
534.991	1	3
536.182	1	3
537.373	1	5
538.563	1	6
539.754	1	5
540.944	1	-4
542.134	1	4
543.325	1	-7
544.515	1	-1
545.705	1	2
546.896	1	0
548.086	1	7
549.276	1	-7
550.466	1	1
551.656	1	4
552.846	1	0
554.036	1	-1
555.226	1	-16
556.416	1	-3
557.606	1	4
558.796	1	3
559.986	1	2
561.175	1	6
562.365	1	-1
563.555	1	-6
564.744	1	3
565.934	1	9
567.123	1	9
568.313	1	13
569.502	1	3
570.692	1	3
571.881	1	12
573.070	1	3
574.260	1	9
575.449	1	6
576.638	1	2
577.827	1	-8
579.016	1	12
580.205	1	-6
581.394	1	4
582.583	1	2
583.772	1	12
584.961	1	3
586.150	1	-8
587.339	1	10
588.528	1	0
589.717	1	4
590.905	1	-1
592.094	1	-1
593.283	1	5
594.471	1	9
595.660	1	-3
596.848	1	-1
598.037	1	-4
599.225	1	-11
600.413	1	11
601.602	1	18
602.790	1	-3
603.978	1	6
605.166	1	8
606.355	1	7
607.543	1	-7
608.731	1	5
609.919	1	15
611.107	1	0
612.295	1	-10
613.483	1	4
614.671	1	9
615.858	1	5
617.046	1	2
618.234	1	-6
619.422	1	1
620.609	1	7
621.797	1	5
622.985	1	1
624.172	1	-4
625.360	1	3
626.547	1	6
627.735	1	6
628.922	1	5
630.109	1	-8
631.297	1	1
632.484	1	-5
633.671	1	-4
634.858	1	-2
636.045	1	21
637.232	1	-7
638.419	1	-3
639.606	1	5
640.793	1	8
641.980	1	11
643.167	1	-3
644.354	1	5
645.541	1	-4
646.728	1	-5
647.914	1	-5
649.101	1	-3
650.288	1	1
651.474	1	-3
652.661	1	-6
653.847	1	4
655.034	1	4
656.220	1	-6
657.406	1	3
658.593	1	8
659.779	1	0
660.965	1	11
662.152	1	3
663.338	1	5
664.524	1	-2
665.710	1	1
666.896	1	7
668.082	1	11
669.268	1	3
670.454	1	2
671.640	1	0
672.826	1	0
674.011	1	-4
675.197	1	-4
676.383	1	0
677.569	1	-5
678.754	1	-4
679.940	1	-2
681.125	1	7
682.311	1	6
683.496	1	-3
684.682	1	-4
685.867	1	0
687.053	1	5
688.238	1	8
688.746	1	-4

File: GaN_sample F_spot 12_UVVIS_200 K_200um_800 ms 2x2mm1_297.txt
340.368	1	4
341.565	1	-10
342.763	1	0
343.960	1	6
345.157	1	-6
346.354	1	0
347.552	1	0
348.749	1	-8
349.946	1	-9
351.143	1	3
352.340	1	8
353.537	1	-11
354.734	1	6
355.931	1	1
357.127	1	3
358.324	1	0
359.521	1	0
360.718	1	3
361.914	1	7
363.111	1	4
364.308	1	9
365.504	1	12
366.701	1	3
367.897	1	18
369.093	1	6
370.290	1	21
371.486	1	21
372.682	1	19
373.879	1	6
375.075	1	7
376.271	1	25
377.467	1	11
378.663	1	1
379.859	1	0
381.055	1	14
382.251	1	9
383.447	1	-4
384.643	1	3
385.839	1	2
387.035	1	3
388.230	1	17
389.426	1	2
390.622	1	-3
391.817	1	3
393.013	1	-3
394.208	1	-2
395.404	1	0
396.599	1	5
397.795	1	-11
398.990	1	-1
400.186	1	5
401.381	1	-3
402.576	1	-5
403.771	1	3
404.967	1	2
406.162	1	4
407.357	1	-2
408.552	1	-7
409.747	1	-5
410.942	1	5
412.137	1	-2
413.332	1	7
414.526	1	2
415.721	1	-11
416.916	1	1
418.111	1	0
419.305	1	1
420.500	1	-5
421.695	1	-3
422.889	1	-8
424.084	1	-2
425.278	1	9
426.472	1	4
427.667	1	2
428.861	1	-1
430.055	1	3
431.250	1	-3
432.444	1	3
433.638	1	-1
434.832	1	-2
436.026	1	9
437.220	1	6
438.414	1	-4
439.608	1	-7
440.802	1	-2
441.996	1	7
443.190	1	-2
444.384	1	-7
445.578	1	-11
446.771	1	11
447.965	1	5
449.159	1	-9
450.352	1	-7
451.546	1	7
452.739	1	1
453.933	1	-7
455.126	1	-6
456.320	1	-2
457.513	1	4
458.706	1	-4
459.899	1	-5
461.093	1	-5
462.286	1	-9
463.479	1	6
464.672	1	-4
465.865	1	-6
467.058	1	0
468.251	1	0
469.444	1	-6
470.637	1	-5
471.830	1	-3
473.023	1	5
474.215	1	8
475.408	1	-3
476.601	1	-5
477.793	1	-9
478.986	1	-2
480.179	1	-1
481.371	1	5
482.564	1	3
483.756	1	10
484.948	1	-5
486.141	1	-11
487.333	1	4
488.525	1	9
489.718	1	-1
490.910	1	4
492.102	1	-2
493.294	1	0
494.486	1	2
495.678	1	-7
496.870	1	8
498.062	1	-9
499.254	1	1
500.446	1	-6
501.638	1	-1
502.829	1	-1
504.021	1	1
505.213	1	7
506.404	1	7
507.596	1	6
508.788	1	13
509.979	1	-12
511.171	1	-5
512.362	1	-7
513.553	1	-14
514.745	1	-8
515.936	1	-12
517.127	1	-10
518.319	1	0
519.510	1	-6
520.701	1	-3
521.892	1	1
523.083	1	2
524.274	1	-2
525.465	1	7
526.656	1	8
527.847	1	6
529.038	1	-4
530.229	1	7
531.419	1	7
532.610	1	1
533.801	1	15
534.991	1	6
536.182	1	3
537.373	1	-2
538.563	1	0
539.754	1	-2
540.944	1	-4
542.134	1	9
543.325	1	9
544.515	1	-3
545.705	1	-6
546.896	1	1
548.086	1	-6
549.276	1	-7
550.466	1	7
551.656	1	4
552.846	1	3
554.036	1	-4
555.226	1	-1
556.416	1	2
557.606	1	2
558.796	1	-1
559.986	1	-4
561.175	1	0
562.365	1	9
563.555	1	-2
564.744	1	6
565.934	1	14
567.123	1	4
568.313	1	8
569.502	1	8
570.692	1	3
571.881	1	6
573.070	1	5
574.260	1	19
575.449	1	3
576.638	1	-6
577.827	1	2
579.016	1	12
580.205	1	-2
581.394	1	0
582.583	1	15
583.772	1	4
584.961	1	0
586.150	1	7
587.339	1	9
588.528	1	4
589.717	1	9
590.905	1	6
592.094	1	-3
593.283	1	4
594.471	1	11
595.660	1	-2
596.848	1	-4
598.037	1	1
599.225	1	-5
600.413	1	4
601.602	1	1
602.790	1	-4
603.978	1	7
605.166	1	9
606.355	1	-7
607.543	1	4
608.731	1	2
609.919	1	9
611.107	1	2
612.295	1	-8
613.483	1	10
614.671	1	8
615.858	1	6
617.046	1	9
618.234	1	-3
619.422	1	-3
620.609	1	5
621.797	1	-2
622.985	1	6
624.172	1	-10
625.360	1	4
626.547	1	0
627.735	1	-1
628.922	1	3
630.109	1	-18
631.297	1	0
632.484	1	0
633.671	1	-13
634.858	1	-10
636.045	1	17
637.232	1	4
638.419	1	-8
639.606	1	1
640.793	1	8
641.980	1	-1
643.167	1	-11
644.354	1	3
645.541	1	8
646.728	1	-1
647.914	1	-6
649.101	1	0
650.288	1	4
651.474	1	2
652.661	1	-6
653.847	1	9
655.034	1	2
656.220	1	0
657.406	1	4
658.593	1	0
659.779	1	0
660.965	1	3
662.152	1	-3
663.338	1	0
664.524	1	1
665.710	1	-6
666.896	1	-6
668.082	1	2
669.268	1	1
670.454	1	-4
671.640	1	3
672.826	1	6
674.011	1	-8
675.197	1	-5
676.383	1	3
677.569	1	-9
678.754	1	-6
679.940	1	5
681.125	1	8
682.311	1	4
683.496	1	4
684.682	1	-14
685.867	1	0
687.053	1	-3
688.238	1	8
688.746	1	-5

File: GaN_sample F_spot 12_UVVIS_200 K_200um_800 ms 2x2mm1_299.txt
340.368	1	1
341.565	1	-10
342.763	1	1
343.960	1	-9
345.157	1	-3
346.354	1	-1
347.552	1	2
348.749	1	-9
349.946	1	-1
351.143	1	-9
352.340	1	6
353.537	1	-2
354.734	1	-5
355.931	1	-3
357.127	1	-3
358.324	1	-2
359.521	1	15
360.718	1	3
361.914	1	10
363.111	1	-1
364.308	1	4
365.504	1	20
366.701	1	11
367.897	1	15
369.093	1	9
370.290	1	16
371.486	1	15
372.682	1	21
373.879	1	11
375.075	1	2
376.271	1	12
377.467	1	6
378.663	1	5
379.859	1	2
381.055	1	5
382.251	1	-11
383.447	1	-7
384.643	1	7
385.839	1	-3
387.035	1	2
388.230	1	13
389.426	1	1
390.622	1	0
391.817	1	3
393.013	1	-5
394.208	1	-2
395.404	1	-12
396.599	1	2
397.795	1	-1
398.990	1	4
400.186	1	6
401.381	1	-7
402.576	1	-5
403.771	1	6
404.967	1	3
406.162	1	15
407.357	1	9
408.552	1	5
409.747	1	8
410.942	1	8
412.137	1	0
413.332	1	2
414.526	1	1
415.721	1	-8
416.916	1	-3
418.111	1	1
419.305	1	1
420.500	1	-9
421.695	1	-1
422.889	1	-8
424.084	1	1
425.278	1	2
426.472	1	2
427.667	1	5
428.861	1	5
430.055	1	9
431.250	1	2
432.444	1	9
433.638	1	1
434.832	1	0
436.026	1	8
437.220	1	2
438.414	1	-6
439.608	1	-9
440.802	1	-3
441.996	1	0
443.190	1	0
444.384	1	0
445.578	1	-2
446.771	1	8
447.965	1	9
449.159	1	-8
450.352	1	-4
451.546	1	0
452.739	1	0
453.933	1	-9
455.126	1	-3
456.320	1	-4
457.513	1	-2
458.706	1	2
459.899	1	-1
461.093	1	7
462.286	1	-9
463.479	1	1
464.672	1	1
465.865	1	-2
467.058	1	7
468.251	1	0
469.444	1	-19
470.637	1	4
471.830	1	-5
473.023	1	-2
474.215	1	10
475.408	1	-4
476.601	1	-5
477.793	1	-5
478.986	1	-2
480.179	1	5
481.371	1	8
482.564	1	1
483.756	1	5
484.948	1	1
486.141	1	-2
487.333	1	7
488.525	1	3
489.718	1	-3
490.910	1	-4
492.102	1	-6
493.294	1	1
494.486	1	-5
495.678	1	0
496.870	1	5
498.062	1	2
499.254	1	-1
500.446	1	-7
501.638	1	-6
502.829	1	-3
504.021	1	2
505.213	1	6
506.404	1	3
507.596	1	1
508.788	1	7
509.979	1	-4
511.171	1	1
512.362	1	2
513.553	1	-10
514.745	1	-2
515.936	1	-3
517.127	1	-1
518.319	1	-4
519.510	1	-2
520.701	1	5
521.892	1	-1
523.083	1	-4
524.274	1	5
525.465	1	8
526.656	1	2
527.847	1	5
529.038	1	0
530.229	1	-1
531.419	1	8
532.610	1	-6
533.801	1	8
534.991	1	1
536.182	1	3
537.373	1	-5
538.563	1	4
539.754	1	10
540.944	1	4
542.134	1	12
543.325	1	-5
544.515	1	2
545.705	1	-5
546.896	1	-6
548.086	1	7
549.276	1	3
550.466	1	-6
551.656	1	7
552.846	1	-4
554.036	1	-2
555.226	1	-14
556.416	1	-2
557.606	1	6
558.796	1	2
559.986	1	2
561.175	1	6
562.365	1	8
563.555	1	2
564.744	1	7
565.934	1	10
567.123	1	7
568.313	1	3
569.502	1	-6
570.692	1	8
571.881	1	7
573.070	1	2
574.260	1	4
575.449	1	0
576.638	1	-3
577.827	1	-1
579.016	1	11
580.205	1	2
581.394	1	-5
582.583	1	12
583.772	1	5
584.961	1	7
586.150	1	-5
587.339	1	-1
588.528	1	6
589.717	1	5
590.905	1	1
592.094	1	-6
593.283	1	7
594.471	1	8
595.660	1	-6
596.848	1	3
598.037	1	-4
599.225	1	-1
600.413	1	7
601.602	1	2
602.790	1	0
603.978	1	-2
605.166	1	9
606.355	1	-6
607.543	1	-6
608.731	1	-6
609.919	1	8
611.107	1	5
612.295	1	-6
613.483	1	-4
614.671	1	4
615.858	1	1
617.046	1	4
618.234	1	-10
619.422	1	0
620.609	1	9
621.797	1	-6
622.985	1	-7
624.172	1	0
625.360	1	0
626.547	1	0
627.735	1	8
628.922	1	8
630.109	1	-7
631.297	1	-5
632.484	1	-5
633.671	1	-4
634.858	1	-2
636.045	1	6
637.232	1	-2
638.419	1	-7
639.606	1	10
640.793	1	12
641.980	1	0
643.167	1	-1
644.354	1	-2
645.541	1	-3
646.728	1	-5
647.914	1	-5
649.101	1	-1
650.288	1	3
651.474	1	-3
652.661	1	-5
653.847	1	11
655.034	1	0
656.220	1	-10
657.406	1	9
658.593	1	9
659.779	1	5
660.965	1	9
662.152	1	0
663.338	1	9
664.524	1	3
665.710	1	-2
666.896	1	-8
668.082	1	2
669.268	1	0
670.454	1	6
671.640	1	0
672.826	1	-8
674.011	1	1
675.197	1	-7
676.383	1	2
677.569	1	-6
678.754	1	-4
679.940	1	-12
681.125	1	5
682.311	1	-4
683.496	1	1
684.682	1	-6
685.867	1	3
687.053	1	-3
688.238	1	5
688.746	1	6