Folder: cryo-il_analysis/Data/GaN_150K_450ms (part 8)

File: GaN_sample D_spot15_UVVIS_150 K_200um_450 ms 2x2mm1_79.txt
340.368	1	0
341.565	1	0
342.763	1	8
343.960	1	7
345.157	1	18
346.354	1	5
347.552	1	19
348.749	1	8
349.946	1	5
351.143	1	18
352.340	1	14
353.537	1	2
354.734	1	22
355.931	1	17
357.127	1	12
358.324	1	19
359.521	1	35
360.718	1	29
361.914	1	51
363.111	1	59
364.308	1	85
365.504	1	114
366.701	1	141
367.897	1	170
369.093	1	167
370.290	1	156
371.486	1	126
372.682	1	89
373.879	1	79
375.075	1	62
376.271	1	59
377.467	1	61
378.663	1	47
379.859	1	42
381.055	1	34
382.251	1	28
383.447	1	32
384.643	1	18
385.839	1	32
387.035	1	20
388.230	1	18
389.426	1	12
390.622	1	3
391.817	1	10
393.013	1	21
394.208	1	14
395.404	1	22
396.599	1	15
397.795	1	13
398.990	1	28
400.186	1	22
401.381	1	17
402.576	1	24
403.771	1	4
404.967	1	11
406.162	1	8
407.357	1	20
408.552	1	8
409.747	1	12
410.942	1	21
412.137	1	5
413.332	1	26
414.526	1	-2
415.721	1	16
416.916	1	20
418.111	1	17
419.305	1	19
420.500	1	19
421.695	1	20
422.889	1	8
424.084	1	11
425.278	1	12
426.472	1	14
427.667	1	12
428.861	1	19
430.055	1	14
431.250	1	13
432.444	1	23
433.638	1	17
434.832	1	13
436.026	1	13
437.220	1	19
438.414	1	22
439.608	1	11
440.802	1	15
441.996	1	10
443.190	1	14
444.384	1	12
445.578	1	10
446.771	1	18
447.965	1	12
449.159	1	2
450.352	1	12
451.546	1	9
452.739	1	5
453.933	1	10
455.126	1	2
456.320	1	13
457.513	1	7
458.706	1	19
459.899	1	5
461.093	1	9
462.286	1	2
463.479	1	9
464.672	1	12
465.865	1	10
467.058	1	7
468.251	1	2
469.444	1	12
470.637	1	4
471.830	1	13
473.023	1	10
474.215	1	7
475.408	1	8
476.601	1	12
477.793	1	11
478.986	1	9
480.179	1	14
481.371	1	2
482.564	1	16
483.756	1	15
484.948	1	13
486.141	1	23
487.333	1	14
488.525	1	16
489.718	1	6
490.910	1	22
492.102	1	24
493.294	1	0
494.486	1	14
495.678	1	14
496.870	1	22
498.062	1	15
499.254	1	25
500.446	1	11
501.638	1	20
502.829	1	28
504.021	1	26
505.213	1	27
506.404	1	31
507.596	1	36
508.788	1	28
509.979	1	22
511.171	1	41
512.362	1	46
513.553	1	36
514.745	1	34
515.936	1	32
517.127	1	52
518.319	1	38
519.510	1	34
520.701	1	42
521.892	1	46
523.083	1	36
524.274	1	38
525.465	1	48
526.656	1	49
527.847	1	33
529.038	1	44
530.229	1	53
531.419	1	38
532.610	1	52
533.801	1	46
534.991	1	50
536.182	1	35
537.373	1	31
538.563	1	34
539.754	1	46
540.944	1	37
542.134	1	46
543.325	1	43
544.515	1	39
545.705	1	37
546.896	1	45
548.086	1	41
549.276	1	43
550.466	1	37
551.656	1	34
552.846	1	40
554.036	1	25
555.226	1	33
556.416	1	30
557.606	1	23
558.796	1	35
559.986	1	40
561.175	1	25
562.365	1	30
563.555	1	37
564.744	1	29
565.934	1	27
567.123	1	26
568.313	1	26
569.502	1	27
570.692	1	28
571.881	1	13
573.070	1	18
574.260	1	20
575.449	1	24
576.638	1	19
577.827	1	16
579.016	1	19
580.205	1	15
581.394	1	20
582.583	1	25
583.772	1	25
584.961	1	4
586.150	1	17
587.339	1	15
588.528	1	12
589.717	1	12
590.905	1	12
592.094	1	18
593.283	1	11
594.471	1	2
595.660	1	8
596.848	1	11
598.037	1	7
599.225	1	14
600.413	1	9
601.602	1	22
602.790	1	13
603.978	1	8
605.166	1	10
606.355	1	7
607.543	1	7
608.731	1	11
609.919	1	-7
611.107	1	21
612.295	1	15
613.483	1	10
614.671	1	12
615.858	1	-4
617.046	1	15
618.234	1	1
619.422	1	21
620.609	1	9
621.797	1	14
622.985	1	12
624.172	1	13
625.360	1	6
626.547	1	5
627.735	1	7
628.922	1	18
630.109	1	13
631.297	1	5
632.484	1	20
633.671	1	13
634.858	1	11
636.045	1	8
637.232	1	15
638.419	1	3
639.606	1	14
640.793	1	4
641.980	1	23
643.167	1	8
644.354	1	19
645.541	1	10
646.728	1	1
647.914	1	13
649.101	1	8
650.288	1	8
651.474	1	7
652.661	1	10
653.847	1	13
655.034	1	8
656.220	1	14
657.406	1	-3
658.593	1	11
659.779	1	9
660.965	1	11
662.152	1	4
663.338	1	-1
664.524	1	16
665.710	1	6
666.896	1	4
668.082	1	8
669.268	1	-1
670.454	1	1
671.640	1	8
672.826	1	-2
674.011	1	5
675.197	1	14
676.383	1	11
677.569	1	24
678.754	1	3
679.940	1	3
681.125	1	-2
682.311	1	16
683.496	1	8
684.682	1	12
685.867	1	13
687.053	1	20
688.238	1	17
688.746	1	10

File: GaN_sample D_spot15_UVVIS_150 K_200um_450 ms 2x2mm1_80.txt
340.368	1	7
341.565	1	6
342.763	1	8
343.960	1	8
345.157	1	10
346.354	1	17
347.552	1	21
348.749	1	13
349.946	1	2
351.143	1	4
352.340	1	11
353.537	1	1
354.734	1	16
355.931	1	27
357.127	1	25
358.324	1	25
359.521	1	33
360.718	1	33
361.914	1	52
363.111	1	59
364.308	1	92
365.504	1	108
366.701	1	150
367.897	1	176
369.093	1	177
370.290	1	154
371.486	1	112
372.682	1	102
373.879	1	80
375.075	1	58
376.271	1	70
377.467	1	54
378.663	1	45
379.859	1	43
381.055	1	34
382.251	1	25
383.447	1	29
384.643	1	33
385.839	1	21
387.035	1	29
388.230	1	22
389.426	1	-2
390.622	1	10
391.817	1	1
393.013	1	22
394.208	1	17
395.404	1	16
396.599	1	15
397.795	1	9
398.990	1	24
400.186	1	12
401.381	1	12
402.576	1	20
403.771	1	5
404.967	1	18
406.162	1	10
407.357	1	20
408.552	1	10
409.747	1	19
410.942	1	24
412.137	1	17
413.332	1	26
414.526	1	7
415.721	1	13
416.916	1	7
418.111	1	11
419.305	1	17
420.500	1	18
421.695	1	18
422.889	1	16
424.084	1	20
425.278	1	21
426.472	1	21
427.667	1	11
428.861	1	23
430.055	1	14
431.250	1	23
432.444	1	14
433.638	1	14
434.832	1	10
436.026	1	12
437.220	1	13
438.414	1	25
439.608	1	7
440.802	1	17
441.996	1	10
443.190	1	16
444.384	1	24
445.578	1	7
446.771	1	8
447.965	1	13
449.159	1	1
450.352	1	13
451.546	1	6
452.739	1	13
453.933	1	7
455.126	1	18
456.320	1	24
457.513	1	9
458.706	1	15
459.899	1	8
461.093	1	13
462.286	1	2
463.479	1	7
464.672	1	2
465.865	1	16
467.058	1	16
468.251	1	-1
469.444	1	18
470.637	1	13
471.830	1	11
473.023	1	20
474.215	1	13
475.408	1	14
476.601	1	5
477.793	1	3
478.986	1	12
480.179	1	15
481.371	1	-1
482.564	1	10
483.756	1	12
484.948	1	20
486.141	1	14
487.333	1	13
488.525	1	9
489.718	1	10
490.910	1	22
492.102	1	18
493.294	1	11
494.486	1	15
495.678	1	26
496.870	1	22
498.062	1	24
499.254	1	18
500.446	1	11
501.638	1	26
502.829	1	27
504.021	1	29
505.213	1	25
506.404	1	28
507.596	1	42
508.788	1	36
509.979	1	27
511.171	1	42
512.362	1	40
513.553	1	43
514.745	1	47
515.936	1	38
517.127	1	39
518.319	1	36
519.510	1	38
520.701	1	47
521.892	1	46
523.083	1	41
524.274	1	38
525.465	1	48
526.656	1	54
527.847	1	39
529.038	1	39
530.229	1	44
531.419	1	42
532.610	1	61
533.801	1	38
534.991	1	38
536.182	1	32
537.373	1	35
538.563	1	43
539.754	1	31
540.944	1	38
542.134	1	46
543.325	1	48
544.515	1	38
545.705	1	40
546.896	1	43
548.086	1	42
549.276	1	43
550.466	1	35
551.656	1	31
552.846	1	39
554.036	1	44
555.226	1	38
556.416	1	42
557.606	1	28
558.796	1	43
559.986	1	36
561.175	1	27
562.365	1	34
563.555	1	18
564.744	1	33
565.934	1	38
567.123	1	22
568.313	1	24
569.502	1	30
570.692	1	23
571.881	1	12
573.070	1	24
574.260	1	24
575.449	1	13
576.638	1	26
577.827	1	27
579.016	1	20
580.205	1	11
581.394	1	12
582.583	1	24
583.772	1	27
584.961	1	9
586.150	1	15
587.339	1	19
588.528	1	9
589.717	1	19
590.905	1	10
592.094	1	18
593.283	1	9
594.471	1	4
595.660	1	4
596.848	1	16
598.037	1	11
599.225	1	8
600.413	1	16
601.602	1	8
602.790	1	8
603.978	1	19
605.166	1	20
606.355	1	-3
607.543	1	9
608.731	1	4
609.919	1	-3
611.107	1	17
612.295	1	6
613.483	1	15
614.671	1	17
615.858	1	9
617.046	1	12
618.234	1	1
619.422	1	25
620.609	1	3
621.797	1	6
622.985	1	11
624.172	1	7
625.360	1	11
626.547	1	9
627.735	1	17
628.922	1	14
630.109	1	3
631.297	1	9
632.484	1	12
633.671	1	10
634.858	1	11
636.045	1	-9
637.232	1	16
638.419	1	8
639.606	1	17
640.793	1	9
641.980	1	14
643.167	1	6
644.354	1	9
645.541	1	3
646.728	1	4
647.914	1	14
649.101	1	2
650.288	1	10
651.474	1	12
652.661	1	13
653.847	1	4
655.034	1	7
656.220	1	11
657.406	1	-6
658.593	1	15
659.779	1	8
660.965	1	4
662.152	1	5
663.338	1	3
664.524	1	11
665.710	1	18
666.896	1	12
668.082	1	8
669.268	1	3
670.454	1	11
671.640	1	11
672.826	1	3
674.011	1	14
675.197	1	8
676.383	1	4
677.569	1	11
678.754	1	6
679.940	1	5
681.125	1	-2
682.311	1	5
683.496	1	6
684.682	1	15
685.867	1	7
687.053	1	22
688.238	1	17
688.746	1	13

File: GaN_sample D_spot15_UVVIS_150 K_200um_450 ms 2x2mm1_81.txt
340.368	1	6
341.565	1	-3
342.763	1	8
343.960	1	11
345.157	1	11
346.354	1	6
347.552	1	10
348.749	1	16
349.946	1	7
351.143	1	12
352.340	1	11
353.537	1	10
354.734	1	18
355.931	1	15
357.127	1	24
358.324	1	22
359.521	1	28
360.718	1	32
361.914	1	43
363.111	1	50
364.308	1	83
365.504	1	95
366.701	1	146
367.897	1	158
369.093	1	151
370.290	1	140
371.486	1	118
372.682	1	88
373.879	1	76
375.075	1	63
376.271	1	53
377.467	1	52
378.663	1	45
379.859	1	42
381.055	1	27
382.251	1	13
383.447	1	23
384.643	1	21
385.839	1	27
387.035	1	22
388.230	1	24
389.426	1	12
390.622	1	14
391.817	1	-2
393.013	1	18
394.208	1	17
395.404	1	13
396.599	1	12
397.795	1	7
398.990	1	19
400.186	1	10
401.381	1	19
402.576	1	20
403.771	1	2
404.967	1	12
406.162	1	9
407.357	1	32
408.552	1	12
409.747	1	14
410.942	1	23
412.137	1	17
413.332	1	21
414.526	1	8
415.721	1	22
416.916	1	5
418.111	1	21
419.305	1	27
420.500	1	17
421.695	1	19
422.889	1	15
424.084	1	23
425.278	1	19
426.472	1	23
427.667	1	12
428.861	1	20
430.055	1	17
431.250	1	8
432.444	1	10
433.638	1	18
434.832	1	14
436.026	1	9
437.220	1	18
438.414	1	20
439.608	1	15
440.802	1	11
441.996	1	11
443.190	1	15
444.384	1	16
445.578	1	5
446.771	1	12
447.965	1	20
449.159	1	21
450.352	1	10
451.546	1	7
452.739	1	16
453.933	1	5
455.126	1	18
456.320	1	15
457.513	1	14
458.706	1	15
459.899	1	7
461.093	1	6
462.286	1	7
463.479	1	9
464.672	1	5
465.865	1	7
467.058	1	15
468.251	1	-1
469.444	1	4
470.637	1	2
471.830	1	8
473.023	1	22
474.215	1	15
475.408	1	14
476.601	1	6
477.793	1	15
478.986	1	8
480.179	1	16
481.371	1	2
482.564	1	12
483.756	1	13
484.948	1	9
486.141	1	21
487.333	1	8
488.525	1	13
489.718	1	13
490.910	1	3
492.102	1	19
493.294	1	9
494.486	1	16
495.678	1	15
496.870	1	15
498.062	1	16
499.254	1	12
500.446	1	10
501.638	1	35
502.829	1	21
504.021	1	27
505.213	1	31
506.404	1	25
507.596	1	39
508.788	1	27
509.979	1	28
511.171	1	33
512.362	1	47
513.553	1	31
514.745	1	39
515.936	1	37
517.127	1	43
518.319	1	37
519.510	1	37
520.701	1	51
521.892	1	42
523.083	1	33
524.274	1	41
525.465	1	49
526.656	1	44
527.847	1	38
529.038	1	38
530.229	1	49
531.419	1	50
532.610	1	44
533.801	1	46
534.991	1	34
536.182	1	45
537.373	1	37
538.563	1	39
539.754	1	41
540.944	1	47
542.134	1	42
543.325	1	45
544.515	1	31
545.705	1	32
546.896	1	34
548.086	1	42
549.276	1	38
550.466	1	41
551.656	1	31
552.846	1	40
554.036	1	35
555.226	1	35
556.416	1	34
557.606	1	21
558.796	1	43
559.986	1	33
561.175	1	11
562.365	1	23
563.555	1	35
564.744	1	38
565.934	1	26
567.123	1	31
568.313	1	28
569.502	1	20
570.692	1	21
571.881	1	20
573.070	1	20
574.260	1	22
575.449	1	8
576.638	1	27
577.827	1	5
579.016	1	14
580.205	1	21
581.394	1	12
582.583	1	25
583.772	1	17
584.961	1	1
586.150	1	18
587.339	1	7
588.528	1	10
589.717	1	9
590.905	1	13
592.094	1	16
593.283	1	15
594.471	1	10
595.660	1	17
596.848	1	11
598.037	1	6
599.225	1	9
600.413	1	4
601.602	1	11
602.790	1	16
603.978	1	18
605.166	1	11
606.355	1	-6
607.543	1	12
608.731	1	-2
609.919	1	1
611.107	1	15
612.295	1	7
613.483	1	4
614.671	1	14
615.858	1	6
617.046	1	10
618.234	1	2
619.422	1	25
620.609	1	7
621.797	1	7
622.985	1	7
624.172	1	3
625.360	1	7
626.547	1	2
627.735	1	12
628.922	1	6
630.109	1	-1
631.297	1	10
632.484	1	14
633.671	1	13
634.858	1	12
636.045	1	6
637.232	1	18
638.419	1	3
639.606	1	12
640.793	1	17
641.980	1	9
643.167	1	9
644.354	1	14
645.541	1	1
646.728	1	1
647.914	1	16
649.101	1	5
650.288	1	8
651.474	1	12
652.661	1	13
653.847	1	10
655.034	1	5
656.220	1	15
657.406	1	4
658.593	1	12
659.779	1	9
660.965	1	-1
662.152	1	4
663.338	1	-1
664.524	1	13
665.710	1	8
666.896	1	11
668.082	1	-3
669.268	1	6
670.454	1	7
671.640	1	10
672.826	1	11
674.011	1	4
675.197	1	12
676.383	1	6
677.569	1	24
678.754	1	2
679.940	1	0
681.125	1	2
682.311	1	5
683.496	1	1
684.682	1	11
685.867	1	3
687.053	1	21
688.238	1	15
688.746	1	1

File: GaN_sample D_spot15_UVVIS_150 K_200um_450 ms 2x2mm1_82.txt
340.368	1	4
341.565	1	8
342.763	1	7
343.960	1	9
345.157	1	19
346.354	1	3
347.552	1	23
348.749	1	14
349.946	1	8
351.143	1	5
352.340	1	7
353.537	1	9
354.734	1	15
355.931	1	14
357.127	1	20
358.324	1	15
359.521	1	19
360.718	1	41
361.914	1	45
363.111	1	56
364.308	1	82
365.504	1	105
366.701	1	133
367.897	1	150
369.093	1	150
370.290	1	145
371.486	1	110
372.682	1	96
373.879	1	75
375.075	1	55
376.271	1	63
377.467	1	58
378.663	1	49
379.859	1	49
381.055	1	33
382.251	1	32
383.447	1	33
384.643	1	29
385.839	1	29
387.035	1	24
388.230	1	13
389.426	1	13
390.622	1	7
391.817	1	8
393.013	1	12
394.208	1	10
395.404	1	20
396.599	1	16
397.795	1	18
398.990	1	18
400.186	1	19
401.381	1	9
402.576	1	23
403.771	1	5
404.967	1	8
406.162	1	8
407.357	1	20
408.552	1	8
409.747	1	11
410.942	1	23
412.137	1	9
413.332	1	21
414.526	1	8
415.721	1	20
416.916	1	7
418.111	1	24
419.305	1	20
420.500	1	20
421.695	1	16
422.889	1	22
424.084	1	25
425.278	1	14
426.472	1	29
427.667	1	10
428.861	1	27
430.055	1	18
431.250	1	18
432.444	1	11
433.638	1	22
434.832	1	11
436.026	1	25
437.220	1	16
438.414	1	14
439.608	1	10
440.802	1	12
441.996	1	18
443.190	1	20
444.384	1	16
445.578	1	3
446.771	1	12
447.965	1	5
449.159	1	8
450.352	1	8
451.546	1	17
452.739	1	13
453.933	1	4
455.126	1	10
456.320	1	11
457.513	1	6
458.706	1	18
459.899	1	10
461.093	1	19
462.286	1	10
463.479	1	0
464.672	1	6
465.865	1	5
467.058	1	24
468.251	1	3
469.444	1	13
470.637	1	18
471.830	1	15
473.023	1	17
474.215	1	11
475.408	1	4
476.601	1	13
477.793	1	12
478.986	1	11
480.179	1	14
481.371	1	1
482.564	1	16
483.756	1	12
484.948	1	16
486.141	1	18
487.333	1	8
488.525	1	3
489.718	1	0
490.910	1	19
492.102	1	19
493.294	1	10
494.486	1	22
495.678	1	11
496.870	1	23
498.062	1	16
499.254	1	30
500.446	1	25
501.638	1	22
502.829	1	19
504.021	1	33
505.213	1	23
506.404	1	31
507.596	1	39
508.788	1	37
509.979	1	28
511.171	1	39
512.362	1	43
513.553	1	42
514.745	1	36
515.936	1	39
517.127	1	39
518.319	1	33
519.510	1	33
520.701	1	40
521.892	1	45
523.083	1	31
524.274	1	47
525.465	1	41
526.656	1	47
527.847	1	35
529.038	1	48
530.229	1	49
531.419	1	43
532.610	1	45
533.801	1	47
534.991	1	43
536.182	1	45
537.373	1	27
538.563	1	43
539.754	1	39
540.944	1	39
542.134	1	35
543.325	1	33
544.515	1	42
545.705	1	40
546.896	1	44
548.086	1	40
549.276	1	42
550.466	1	37
551.656	1	41
552.846	1	39
554.036	1	31
555.226	1	36
556.416	1	28
557.606	1	18
558.796	1	41
559.986	1	34
561.175	1	28
562.365	1	29
563.555	1	32
564.744	1	38
565.934	1	31
567.123	1	27
568.313	1	31
569.502	1	27
570.692	1	26
571.881	1	14
573.070	1	22
574.260	1	25
575.449	1	14
576.638	1	19
577.827	1	16
579.016	1	10
580.205	1	17
581.394	1	26
582.583	1	24
583.772	1	25
584.961	1	7
586.150	1	16
587.339	1	12
588.528	1	7
589.717	1	12
590.905	1	16
592.094	1	13
593.283	1	14
594.471	1	10
595.660	1	11
596.848	1	11
598.037	1	15
599.225	1	14
600.413	1	4
601.602	1	4
602.790	1	6
603.978	1	6
605.166	1	19
606.355	1	1
607.543	1	8
608.731	1	9
609.919	1	6
611.107	1	9
612.295	1	20
613.483	1	13
614.671	1	5
615.858	1	-1
617.046	1	3
618.234	1	8
619.422	1	14
620.609	1	5
621.797	1	3
622.985	1	3
624.172	1	14
625.360	1	7
626.547	1	3
627.735	1	13
628.922	1	12
630.109	1	-5
631.297	1	10
632.484	1	18
633.671	1	15
634.858	1	5
636.045	1	8
637.232	1	6
638.419	1	9
639.606	1	16
640.793	1	6
641.980	1	7
643.167	1	2
644.354	1	11
645.541	1	3
646.728	1	8
647.914	1	5
649.101	1	2
650.288	1	7
651.474	1	14
652.661	1	11
653.847	1	4
655.034	1	10
656.220	1	23
657.406	1	-3
658.593	1	13
659.779	1	8
660.965	1	8
662.152	1	12
663.338	1	4
664.524	1	18
665.710	1	11
666.896	1	15
668.082	1	7
669.268	1	6
670.454	1	13
671.640	1	3
672.826	1	5
674.011	1	22
675.197	1	4
676.383	1	7
677.569	1	18
678.754	1	-1
679.940	1	-1
681.125	1	6
682.311	1	10
683.496	1	1
684.682	1	10
685.867	1	14
687.053	1	21
688.238	1	12
688.746	1	11

File: GaN_sample D_spot15_UVVIS_150 K_200um_450 ms 2x2mm1_83.txt
340.368	1	6
341.565	1	10
342.763	1	12
343.960	1	15
345.157	1	14
346.354	1	3
347.552	1	16
348.749	1	16
349.946	1	7
351.143	1	16
352.340	1	7
353.537	1	6
354.734	1	13
355.931	1	19
357.127	1	17
358.324	1	21
359.521	1	30
360.718	1	32
361.914	1	47
363.111	1	55
364.308	1	87
365.504	1	99
366.701	1	123
367.897	1	143
369.093	1	147
370.290	1	126
371.486	1	123
372.682	1	83
373.879	1	83
375.075	1	43
376.271	1	61
377.467	1	54
378.663	1	44
379.859	1	42
381.055	1	19
382.251	1	23
383.447	1	30
384.643	1	30
385.839	1	24
387.035	1	17
388.230	1	21
389.426	1	5
390.622	1	8
391.817	1	8
393.013	1	11
394.208	1	8
395.404	1	21
396.599	1	12
397.795	1	19
398.990	1	22
400.186	1	17
401.381	1	14
402.576	1	15
403.771	1	5
404.967	1	22
406.162	1	11
407.357	1	17
408.552	1	17
409.747	1	10
410.942	1	24
412.137	1	19
413.332	1	11
414.526	1	7
415.721	1	18
416.916	1	17
418.111	1	13
419.305	1	9
420.500	1	16
421.695	1	20
422.889	1	16
424.084	1	20
425.278	1	21
426.472	1	21
427.667	1	14
428.861	1	18
430.055	1	20
431.250	1	20
432.444	1	18
433.638	1	18
434.832	1	13
436.026	1	15
437.220	1	8
438.414	1	6
439.608	1	1
440.802	1	14
441.996	1	4
443.190	1	7
444.384	1	20
445.578	1	7
446.771	1	8
447.965	1	8
449.159	1	4
450.352	1	0
451.546	1	15
452.739	1	13
453.933	1	11
455.126	1	11
456.320	1	24
457.513	1	10
458.706	1	16
459.899	1	5
461.093	1	4
462.286	1	3
463.479	1	15
464.672	1	12
465.865	1	-1
467.058	1	6
468.251	1	4
469.444	1	5
470.637	1	6
471.830	1	8
473.023	1	10
474.215	1	14
475.408	1	19
476.601	1	21
477.793	1	8
478.986	1	19
480.179	1	10
481.371	1	-9
482.564	1	16
483.756	1	9
484.948	1	11
486.141	1	18
487.333	1	6
488.525	1	4
489.718	1	6
490.910	1	28
492.102	1	15
493.294	1	9
494.486	1	11
495.678	1	14
496.870	1	18
498.062	1	14
499.254	1	11
500.446	1	17
501.638	1	21
502.829	1	21
504.021	1	19
505.213	1	30
506.404	1	31
507.596	1	30
508.788	1	35
509.979	1	28
511.171	1	26
512.362	1	32
513.553	1	33
514.745	1	31
515.936	1	30
517.127	1	48
518.319	1	35
519.510	1	34
520.701	1	42
521.892	1	37
523.083	1	38
524.274	1	47
525.465	1	55
526.656	1	44
527.847	1	33
529.038	1	45
530.229	1	45
531.419	1	36
532.610	1	45
533.801	1	44
534.991	1	32
536.182	1	39
537.373	1	36
538.563	1	32
539.754	1	37
540.944	1	44
542.134	1	24
543.325	1	46
544.515	1	37
545.705	1	32
546.896	1	44
548.086	1	37
549.276	1	38
550.466	1	36
551.656	1	46
552.846	1	38
554.036	1	26
555.226	1	34
556.416	1	29
557.606	1	26
558.796	1	28
559.986	1	33
561.175	1	24
562.365	1	22
563.555	1	33
564.744	1	33
565.934	1	39
567.123	1	16
568.313	1	22
569.502	1	22
570.692	1	19
571.881	1	19
573.070	1	16
574.260	1	16
575.449	1	17
576.638	1	21
577.827	1	1
579.016	1	25
580.205	1	15
581.394	1	16
582.583	1	16
583.772	1	27
584.961	1	8
586.150	1	21
587.339	1	5
588.528	1	13
589.717	1	18
590.905	1	7
592.094	1	9
593.283	1	12
594.471	1	5
595.660	1	12
596.848	1	15
598.037	1	8
599.225	1	11
600.413	1	10
601.602	1	16
602.790	1	15
603.978	1	8
605.166	1	8
606.355	1	-4
607.543	1	15
608.731	1	3
609.919	1	-1
611.107	1	7
612.295	1	14
613.483	1	6
614.671	1	8
615.858	1	-3
617.046	1	8
618.234	1	8
619.422	1	13
620.609	1	5
621.797	1	7
622.985	1	7
624.172	1	5
625.360	1	5
626.547	1	9
627.735	1	5
628.922	1	5
630.109	1	4
631.297	1	8
632.484	1	16
633.671	1	11
634.858	1	14
636.045	1	11
637.232	1	5
638.419	1	-5
639.606	1	10
640.793	1	9
641.980	1	20
643.167	1	5
644.354	1	3
645.541	1	6
646.728	1	16
647.914	1	13
649.101	1	5
650.288	1	5
651.474	1	20
652.661	1	12
653.847	1	5
655.034	1	0
656.220	1	5
657.406	1	2
658.593	1	4
659.779	1	8
660.965	1	9
662.152	1	6
663.338	1	6
664.524	1	20
665.710	1	4
666.896	1	2
668.082	1	9
669.268	1	0
670.454	1	7
671.640	1	17
672.826	1	0
674.011	1	5
675.197	1	9
676.383	1	9
677.569	1	21
678.754	1	6
679.940	1	4
681.125	1	3
682.311	1	8
683.496	1	7
684.682	1	4
685.867	1	11
687.053	1	19
688.238	1	21
688.746	1	1

File: GaN_sample D_spot15_UVVIS_150 K_200um_450 ms 2x2mm1_84.txt
340.368	1	5
341.565	1	7
342.763	1	3
343.960	1	8
345.157	1	17
346.354	1	11
347.552	1	13
348.749	1	17
349.946	1	7
351.143	1	17
352.340	1	21
353.537	1	8
354.734	1	12
355.931	1	20
357.127	1	20
358.324	1	28
359.521	1	24
360.718	1	36
361.914	1	45
363.111	1	53
364.308	1	80
365.504	1	91
366.701	1	130
367.897	1	142
369.093	1	140
370.290	1	119
371.486	1	108
372.682	1	92
373.879	1	68
375.075	1	60
376.271	1	61
377.467	1	55
378.663	1	40
379.859	1	35
381.055	1	36
382.251	1	22
383.447	1	29
384.643	1	10
385.839	1	33
387.035	1	23
388.230	1	17
389.426	1	16
390.622	1	15
391.817	1	6
393.013	1	32
394.208	1	16
395.404	1	19
396.599	1	15
397.795	1	10
398.990	1	17
400.186	1	21
401.381	1	18
402.576	1	14
403.771	1	14
404.967	1	17
406.162	1	5
407.357	1	22
408.552	1	12
409.747	1	24
410.942	1	25
412.137	1	15
413.332	1	12
414.526	1	8
415.721	1	13
416.916	1	5
418.111	1	7
419.305	1	19
420.500	1	14
421.695	1	23
422.889	1	10
424.084	1	14
425.278	1	12
426.472	1	23
427.667	1	9
428.861	1	26
430.055	1	15
431.250	1	20
432.444	1	15
433.638	1	17
434.832	1	18
436.026	1	17
437.220	1	16
438.414	1	24
439.608	1	1
440.802	1	12
441.996	1	11
443.190	1	11
444.384	1	15
445.578	1	4
446.771	1	13
447.965	1	11
449.159	1	14
450.352	1	14
451.546	1	18
452.739	1	12
453.933	1	5
455.126	1	10
456.320	1	13
457.513	1	9
458.706	1	22
459.899	1	14
461.093	1	4
462.286	1	2
463.479	1	5
464.672	1	10
465.865	1	14
467.058	1	14
468.251	1	2
469.444	1	17
470.637	1	8
471.830	1	5
473.023	1	12
474.215	1	4
475.408	1	22
476.601	1	7
477.793	1	7
478.986	1	8
480.179	1	14
481.371	1	7
482.564	1	15
483.756	1	9
484.948	1	17
486.141	1	16
487.333	1	5
488.525	1	5
489.718	1	7
490.910	1	15
492.102	1	21
493.294	1	9
494.486	1	5
495.678	1	12
496.870	1	23
498.062	1	15
499.254	1	15
500.446	1	16
501.638	1	18
502.829	1	13
504.021	1	25
505.213	1	28
506.404	1	21
507.596	1	37
508.788	1	24
509.979	1	25
511.171	1	35
512.362	1	44
513.553	1	42
514.745	1	27
515.936	1	32
517.127	1	45
518.319	1	36
519.510	1	32
520.701	1	35
521.892	1	40
523.083	1	47
524.274	1	43
525.465	1	44
526.656	1	44
527.847	1	35
529.038	1	38
530.229	1	46
531.419	1	45
532.610	1	48
533.801	1	34
534.991	1	42
536.182	1	41
537.373	1	33
538.563	1	22
539.754	1	30
540.944	1	40
542.134	1	35
543.325	1	42
544.515	1	34
545.705	1	41
546.896	1	44
548.086	1	36
549.276	1	42
550.466	1	34
551.656	1	34
552.846	1	35
554.036	1	39
555.226	1	35
556.416	1	35
557.606	1	21
558.796	1	37
559.986	1	29
561.175	1	23
562.365	1	28
563.555	1	24
564.744	1	24
565.934	1	38
567.123	1	17
568.313	1	20
569.502	1	32
570.692	1	22
571.881	1	14
573.070	1	21
574.260	1	16
575.449	1	14
576.638	1	23
577.827	1	14
579.016	1	12
580.205	1	21
581.394	1	17
582.583	1	14
583.772	1	16
584.961	1	-2
586.150	1	28
587.339	1	10
588.528	1	1
589.717	1	15
590.905	1	-1
592.094	1	14
593.283	1	17
594.471	1	-5
595.660	1	14
596.848	1	20
598.037	1	19
599.225	1	8
600.413	1	6
601.602	1	18
602.790	1	16
603.978	1	13
605.166	1	17
606.355	1	-2
607.543	1	18
608.731	1	1
609.919	1	8
611.107	1	11
612.295	1	11
613.483	1	11
614.671	1	14
615.858	1	8
617.046	1	6
618.234	1	4
619.422	1	26
620.609	1	4
621.797	1	1
622.985	1	9
624.172	1	13
625.360	1	10
626.547	1	3
627.735	1	11
628.922	1	15
630.109	1	5
631.297	1	10
632.484	1	13
633.671	1	7
634.858	1	7
636.045	1	1
637.232	1	15
638.419	1	4
639.606	1	10
640.793	1	5
641.980	1	8
643.167	1	15
644.354	1	16
645.541	1	14
646.728	1	5
647.914	1	8
649.101	1	7
650.288	1	8
651.474	1	7
652.661	1	12
653.847	1	9
655.034	1	1
656.220	1	11
657.406	1	6
658.593	1	6
659.779	1	18
660.965	1	4
662.152	1	6
663.338	1	7
664.524	1	18
665.710	1	11
666.896	1	11
668.082	1	12
669.268	1	8
670.454	1	16
671.640	1	11
672.826	1	9
674.011	1	10
675.197	1	14
676.383	1	6
677.569	1	13
678.754	1	6
679.940	1	4
681.125	1	7
682.311	1	14
683.496	1	7
684.682	1	14
685.867	1	4
687.053	1	20
688.238	1	19
688.746	1	12