Folder: cryo-il_analysis/Data/GaN_170K_550ms (part 4)

File: GaN_sample D_spot 18_UVVIS_170 K_200um_550 ms 2x2mm1_58.txt
340.368	1	-3
341.565	1	2
342.763	1	6
343.960	1	-6
345.157	1	4
346.354	1	0
347.552	1	14
348.749	1	10
349.946	1	9
351.143	1	17
352.340	1	17
353.537	1	19
354.734	1	19
355.931	1	22
357.127	1	43
358.324	1	53
359.521	1	73
360.718	1	90
361.914	1	139
363.111	1	230
364.308	1	361
365.504	1	541
366.701	1	806
367.897	1	1000
369.093	1	1026
370.290	1	897
371.486	1	684
372.682	1	586
373.879	1	454
375.075	1	372
376.271	1	314
377.467	1	260
378.663	1	201
379.859	1	154
381.055	1	127
382.251	1	111
383.447	1	114
384.643	1	104
385.839	1	92
387.035	1	81
388.230	1	71
389.426	1	61
390.622	1	57
391.817	1	60
393.013	1	44
394.208	1	47
395.404	1	53
396.599	1	35
397.795	1	37
398.990	1	26
400.186	1	31
401.381	1	25
402.576	1	25
403.771	1	22
404.967	1	20
406.162	1	29
407.357	1	12
408.552	1	24
409.747	1	18
410.942	1	19
412.137	1	7
413.332	1	14
414.526	1	10
415.721	1	7
416.916	1	15
418.111	1	27
419.305	1	12
420.500	1	18
421.695	1	7
422.889	1	16
424.084	1	23
425.278	1	14
426.472	1	17
427.667	1	13
428.861	1	16
430.055	1	11
431.250	1	28
432.444	1	29
433.638	1	16
434.832	1	14
436.026	1	14
437.220	1	11
438.414	1	3
439.608	1	5
440.802	1	21
441.996	1	16
443.190	1	9
444.384	1	14
445.578	1	25
446.771	1	-5
447.965	1	9
449.159	1	10
450.352	1	8
451.546	1	-4
452.739	1	14
453.933	1	8
455.126	1	15
456.320	1	11
457.513	1	13
458.706	1	9
459.899	1	13
461.093	1	9
462.286	1	6
463.479	1	12
464.672	1	3
465.865	1	14
467.058	1	1
468.251	1	10
469.444	1	15
470.637	1	6
471.830	1	10
473.023	1	8
474.215	1	19
475.408	1	14
476.601	1	18
477.793	1	21
478.986	1	15
480.179	1	8
481.371	1	20
482.564	1	15
483.756	1	27
484.948	1	21
486.141	1	31
487.333	1	29
488.525	1	35
489.718	1	41
490.910	1	40
492.102	1	36
493.294	1	31
494.486	1	51
495.678	1	39
496.870	1	36
498.062	1	52
499.254	1	54
500.446	1	52
501.638	1	50
502.829	1	68
504.021	1	82
505.213	1	69
506.404	1	80
507.596	1	82
508.788	1	73
509.979	1	84
511.171	1	82
512.362	1	74
513.553	1	87
514.745	1	85
515.936	1	89
517.127	1	105
518.319	1	102
519.510	1	117
520.701	1	105
521.892	1	113
523.083	1	97
524.274	1	104
525.465	1	106
526.656	1	116
527.847	1	111
529.038	1	110
530.229	1	133
531.419	1	122
532.610	1	117
533.801	1	111
534.991	1	99
536.182	1	114
537.373	1	114
538.563	1	97
539.754	1	100
540.944	1	97
542.134	1	100
543.325	1	99
544.515	1	108
545.705	1	117
546.896	1	116
548.086	1	118
549.276	1	105
550.466	1	101
551.656	1	113
552.846	1	95
554.036	1	100
555.226	1	88
556.416	1	85
557.606	1	83
558.796	1	79
559.986	1	84
561.175	1	90
562.365	1	78
563.555	1	84
564.744	1	90
565.934	1	84
567.123	1	73
568.313	1	78
569.502	1	69
570.692	1	75
571.881	1	60
573.070	1	61
574.260	1	64
575.449	1	70
576.638	1	70
577.827	1	58
579.016	1	72
580.205	1	52
581.394	1	59
582.583	1	61
583.772	1	69
584.961	1	50
586.150	1	55
587.339	1	45
588.528	1	48
589.717	1	60
590.905	1	58
592.094	1	45
593.283	1	49
594.471	1	52
595.660	1	41
596.848	1	45
598.037	1	39
599.225	1	43
600.413	1	31
601.602	1	41
602.790	1	51
603.978	1	46
605.166	1	39
606.355	1	48
607.543	1	46
608.731	1	35
609.919	1	36
611.107	1	31
612.295	1	23
613.483	1	27
614.671	1	35
615.858	1	30
617.046	1	29
618.234	1	33
619.422	1	14
620.609	1	33
621.797	1	28
622.985	1	22
624.172	1	40
625.360	1	32
626.547	1	23
627.735	1	21
628.922	1	13
630.109	1	19
631.297	1	17
632.484	1	25
633.671	1	29
634.858	1	28
636.045	1	22
637.232	1	22
638.419	1	14
639.606	1	23
640.793	1	7
641.980	1	20
643.167	1	29
644.354	1	21
645.541	1	15
646.728	1	13
647.914	1	18
649.101	1	17
650.288	1	8
651.474	1	25
652.661	1	21
653.847	1	15
655.034	1	11
656.220	1	12
657.406	1	24
658.593	1	13
659.779	1	12
660.965	1	24
662.152	1	15
663.338	1	17
664.524	1	14
665.710	1	16
666.896	1	11
668.082	1	22
669.268	1	6
670.454	1	7
671.640	1	21
672.826	1	20
674.011	1	20
675.197	1	17
676.383	1	16
677.569	1	7
678.754	1	16
679.940	1	30
681.125	1	24
682.311	1	19
683.496	1	13
684.682	1	18
685.867	1	19
687.053	1	0
688.238	1	11
688.746	1	7

File: GaN_sample D_spot 18_UVVIS_170 K_200um_550 ms 2x2mm1_59.txt
340.368	1	-5
341.565	1	7
342.763	1	5
343.960	1	-1
345.157	1	-2
346.354	1	-1
347.552	1	18
348.749	1	9
349.946	1	10
351.143	1	7
352.340	1	15
353.537	1	17
354.734	1	18
355.931	1	14
357.127	1	30
358.324	1	42
359.521	1	67
360.718	1	92
361.914	1	125
363.111	1	208
364.308	1	311
365.504	1	499
366.701	1	713
367.897	1	859
369.093	1	888
370.290	1	794
371.486	1	613
372.682	1	490
373.879	1	415
375.075	1	331
376.271	1	269
377.467	1	225
378.663	1	173
379.859	1	146
381.055	1	128
382.251	1	104
383.447	1	105
384.643	1	93
385.839	1	84
387.035	1	62
388.230	1	60
389.426	1	64
390.622	1	53
391.817	1	43
393.013	1	41
394.208	1	38
395.404	1	45
396.599	1	31
397.795	1	31
398.990	1	24
400.186	1	24
401.381	1	27
402.576	1	14
403.771	1	13
404.967	1	23
406.162	1	27
407.357	1	21
408.552	1	18
409.747	1	15
410.942	1	13
412.137	1	10
413.332	1	8
414.526	1	15
415.721	1	8
416.916	1	7
418.111	1	12
419.305	1	10
420.500	1	15
421.695	1	10
422.889	1	4
424.084	1	25
425.278	1	13
426.472	1	7
427.667	1	14
428.861	1	18
430.055	1	10
431.250	1	15
432.444	1	10
433.638	1	20
434.832	1	12
436.026	1	9
437.220	1	6
438.414	1	6
439.608	1	9
440.802	1	22
441.996	1	8
443.190	1	15
444.384	1	16
445.578	1	17
446.771	1	-3
447.965	1	3
449.159	1	12
450.352	1	-6
451.546	1	10
452.739	1	12
453.933	1	11
455.126	1	17
456.320	1	5
457.513	1	23
458.706	1	11
459.899	1	9
461.093	1	9
462.286	1	5
463.479	1	3
464.672	1	16
465.865	1	14
467.058	1	15
468.251	1	8
469.444	1	19
470.637	1	10
471.830	1	7
473.023	1	11
474.215	1	12
475.408	1	15
476.601	1	9
477.793	1	11
478.986	1	8
480.179	1	8
481.371	1	14
482.564	1	12
483.756	1	24
484.948	1	22
486.141	1	33
487.333	1	15
488.525	1	31
489.718	1	35
490.910	1	46
492.102	1	35
493.294	1	35
494.486	1	48
495.678	1	47
496.870	1	42
498.062	1	50
499.254	1	54
500.446	1	49
501.638	1	45
502.829	1	59
504.021	1	60
505.213	1	57
506.404	1	73
507.596	1	67
508.788	1	71
509.979	1	68
511.171	1	74
512.362	1	58
513.553	1	75
514.745	1	69
515.936	1	91
517.127	1	88
518.319	1	94
519.510	1	93
520.701	1	88
521.892	1	90
523.083	1	88
524.274	1	94
525.465	1	90
526.656	1	96
527.847	1	103
529.038	1	95
530.229	1	131
531.419	1	115
532.610	1	113
533.801	1	111
534.991	1	89
536.182	1	98
537.373	1	81
538.563	1	85
539.754	1	94
540.944	1	81
542.134	1	90
543.325	1	93
544.515	1	85
545.705	1	94
546.896	1	102
548.086	1	93
549.276	1	88
550.466	1	94
551.656	1	95
552.846	1	84
554.036	1	84
555.226	1	73
556.416	1	69
557.606	1	82
558.796	1	68
559.986	1	80
561.175	1	73
562.365	1	68
563.555	1	70
564.744	1	65
565.934	1	61
567.123	1	62
568.313	1	56
569.502	1	64
570.692	1	74
571.881	1	57
573.070	1	53
574.260	1	58
575.449	1	50
576.638	1	56
577.827	1	52
579.016	1	51
580.205	1	42
581.394	1	62
582.583	1	53
583.772	1	45
584.961	1	48
586.150	1	33
587.339	1	50
588.528	1	41
589.717	1	46
590.905	1	45
592.094	1	44
593.283	1	41
594.471	1	38
595.660	1	31
596.848	1	39
598.037	1	29
599.225	1	42
600.413	1	28
601.602	1	40
602.790	1	46
603.978	1	39
605.166	1	41
606.355	1	37
607.543	1	46
608.731	1	36
609.919	1	29
611.107	1	32
612.295	1	25
613.483	1	30
614.671	1	41
615.858	1	27
617.046	1	17
618.234	1	21
619.422	1	12
620.609	1	17
621.797	1	24
622.985	1	15
624.172	1	26
625.360	1	19
626.547	1	11
627.735	1	5
628.922	1	13
630.109	1	12
631.297	1	28
632.484	1	14
633.671	1	22
634.858	1	25
636.045	1	29
637.232	1	23
638.419	1	16
639.606	1	11
640.793	1	17
641.980	1	13
643.167	1	15
644.354	1	20
645.541	1	22
646.728	1	19
647.914	1	22
649.101	1	21
650.288	1	17
651.474	1	18
652.661	1	16
653.847	1	12
655.034	1	22
656.220	1	15
657.406	1	15
658.593	1	17
659.779	1	17
660.965	1	28
662.152	1	10
663.338	1	16
664.524	1	16
665.710	1	6
666.896	1	15
668.082	1	28
669.268	1	16
670.454	1	1
671.640	1	15
672.826	1	14
674.011	1	17
675.197	1	12
676.383	1	24
677.569	1	9
678.754	1	20
679.940	1	18
681.125	1	25
682.311	1	24
683.496	1	12
684.682	1	21
685.867	1	19
687.053	1	7
688.238	1	11
688.746	1	12

File: GaN_sample D_spot 18_UVVIS_170 K_200um_550 ms 2x2mm1_60.txt
340.368	1	-3
341.565	1	8
342.763	1	12
343.960	1	-2
345.157	1	7
346.354	1	-4
347.552	1	25
348.749	1	9
349.946	1	9
351.143	1	14
352.340	1	3
353.537	1	19
354.734	1	26
355.931	1	25
357.127	1	35
358.324	1	41
359.521	1	65
360.718	1	93
361.914	1	118
363.111	1	188
364.308	1	282
365.504	1	439
366.701	1	613
367.897	1	732
369.093	1	753
370.290	1	652
371.486	1	521
372.682	1	418
373.879	1	345
375.075	1	283
376.271	1	223
377.467	1	201
378.663	1	155
379.859	1	130
381.055	1	115
382.251	1	102
383.447	1	94
384.643	1	79
385.839	1	73
387.035	1	61
388.230	1	53
389.426	1	44
390.622	1	38
391.817	1	44
393.013	1	34
394.208	1	32
395.404	1	44
396.599	1	24
397.795	1	32
398.990	1	15
400.186	1	4
401.381	1	25
402.576	1	15
403.771	1	13
404.967	1	19
406.162	1	21
407.357	1	13
408.552	1	6
409.747	1	20
410.942	1	16
412.137	1	13
413.332	1	7
414.526	1	13
415.721	1	12
416.916	1	3
418.111	1	19
419.305	1	14
420.500	1	4
421.695	1	-3
422.889	1	0
424.084	1	17
425.278	1	8
426.472	1	19
427.667	1	17
428.861	1	20
430.055	1	15
431.250	1	32
432.444	1	12
433.638	1	20
434.832	1	11
436.026	1	3
437.220	1	2
438.414	1	4
439.608	1	0
440.802	1	18
441.996	1	3
443.190	1	14
444.384	1	16
445.578	1	21
446.771	1	-1
447.965	1	10
449.159	1	4
450.352	1	6
451.546	1	7
452.739	1	8
453.933	1	11
455.126	1	28
456.320	1	11
457.513	1	18
458.706	1	11
459.899	1	3
461.093	1	16
462.286	1	1
463.479	1	7
464.672	1	0
465.865	1	5
467.058	1	15
468.251	1	10
469.444	1	19
470.637	1	11
471.830	1	9
473.023	1	11
474.215	1	15
475.408	1	13
476.601	1	15
477.793	1	20
478.986	1	19
480.179	1	14
481.371	1	15
482.564	1	15
483.756	1	14
484.948	1	19
486.141	1	31
487.333	1	15
488.525	1	33
489.718	1	42
490.910	1	28
492.102	1	27
493.294	1	34
494.486	1	44
495.678	1	32
496.870	1	37
498.062	1	39
499.254	1	57
500.446	1	46
501.638	1	43
502.829	1	49
504.021	1	58
505.213	1	46
506.404	1	61
507.596	1	69
508.788	1	60
509.979	1	61
511.171	1	64
512.362	1	68
513.553	1	71
514.745	1	73
515.936	1	72
517.127	1	82
518.319	1	78
519.510	1	87
520.701	1	79
521.892	1	82
523.083	1	81
524.274	1	76
525.465	1	90
526.656	1	100
527.847	1	89
529.038	1	78
530.229	1	105
531.419	1	98
532.610	1	99
533.801	1	84
534.991	1	86
536.182	1	89
537.373	1	71
538.563	1	74
539.754	1	76
540.944	1	63
542.134	1	79
543.325	1	73
544.515	1	77
545.705	1	88
546.896	1	82
548.086	1	73
549.276	1	89
550.466	1	87
551.656	1	83
552.846	1	73
554.036	1	68
555.226	1	64
556.416	1	66
557.606	1	71
558.796	1	50
559.986	1	59
561.175	1	49
562.365	1	54
563.555	1	61
564.744	1	53
565.934	1	64
567.123	1	62
568.313	1	50
569.502	1	50
570.692	1	49
571.881	1	46
573.070	1	45
574.260	1	42
575.449	1	54
576.638	1	55
577.827	1	43
579.016	1	47
580.205	1	43
581.394	1	50
582.583	1	42
583.772	1	42
584.961	1	44
586.150	1	35
587.339	1	35
588.528	1	30
589.717	1	36
590.905	1	33
592.094	1	41
593.283	1	40
594.471	1	33
595.660	1	33
596.848	1	26
598.037	1	28
599.225	1	38
600.413	1	24
601.602	1	31
602.790	1	38
603.978	1	29
605.166	1	28
606.355	1	33
607.543	1	31
608.731	1	28
609.919	1	14
611.107	1	20
612.295	1	30
613.483	1	23
614.671	1	33
615.858	1	13
617.046	1	6
618.234	1	19
619.422	1	15
620.609	1	15
621.797	1	22
622.985	1	24
624.172	1	13
625.360	1	24
626.547	1	3
627.735	1	3
628.922	1	8
630.109	1	9
631.297	1	7
632.484	1	16
633.671	1	17
634.858	1	13
636.045	1	19
637.232	1	11
638.419	1	8
639.606	1	12
640.793	1	14
641.980	1	10
643.167	1	8
644.354	1	18
645.541	1	13
646.728	1	17
647.914	1	9
649.101	1	12
650.288	1	16
651.474	1	18
652.661	1	18
653.847	1	8
655.034	1	20
656.220	1	7
657.406	1	10
658.593	1	7
659.779	1	12
660.965	1	21
662.152	1	13
663.338	1	20
664.524	1	19
665.710	1	20
666.896	1	10
668.082	1	16
669.268	1	3
670.454	1	7
671.640	1	13
672.826	1	17
674.011	1	12
675.197	1	16
676.383	1	15
677.569	1	9
678.754	1	13
679.940	1	18
681.125	1	14
682.311	1	6
683.496	1	18
684.682	1	13
685.867	1	13
687.053	1	7
688.238	1	12
688.746	1	1

File: GaN_sample D_spot 18_UVVIS_170 K_200um_550 ms 2x2mm1_61.txt
340.368	1	-4
341.565	1	12
342.763	1	7
343.960	1	8
345.157	1	7
346.354	1	-1
347.552	1	12
348.749	1	12
349.946	1	14
351.143	1	4
352.340	1	9
353.537	1	13
354.734	1	15
355.931	1	13
357.127	1	28
358.324	1	54
359.521	1	52
360.718	1	79
361.914	1	110
363.111	1	175
364.308	1	255
365.504	1	389
366.701	1	546
367.897	1	673
369.093	1	670
370.290	1	599
371.486	1	481
372.682	1	386
373.879	1	327
375.075	1	275
376.271	1	218
377.467	1	176
378.663	1	137
379.859	1	116
381.055	1	95
382.251	1	79
383.447	1	98
384.643	1	70
385.839	1	60
387.035	1	46
388.230	1	33
389.426	1	46
390.622	1	36
391.817	1	35
393.013	1	31
394.208	1	42
395.404	1	36
396.599	1	20
397.795	1	27
398.990	1	19
400.186	1	24
401.381	1	18
402.576	1	15
403.771	1	16
404.967	1	12
406.162	1	17
407.357	1	3
408.552	1	18
409.747	1	12
410.942	1	6
412.137	1	8
413.332	1	7
414.526	1	11
415.721	1	8
416.916	1	10
418.111	1	19
419.305	1	17
420.500	1	4
421.695	1	-1
422.889	1	6
424.084	1	15
425.278	1	4
426.472	1	5
427.667	1	4
428.861	1	13
430.055	1	2
431.250	1	14
432.444	1	6
433.638	1	11
434.832	1	6
436.026	1	7
437.220	1	3
438.414	1	-1
439.608	1	7
440.802	1	10
441.996	1	3
443.190	1	-1
444.384	1	9
445.578	1	20
446.771	1	-3
447.965	1	9
449.159	1	8
450.352	1	5
451.546	1	8
452.739	1	7
453.933	1	8
455.126	1	14
456.320	1	12
457.513	1	20
458.706	1	14
459.899	1	13
461.093	1	21
462.286	1	-1
463.479	1	12
464.672	1	2
465.865	1	9
467.058	1	12
468.251	1	10
469.444	1	6
470.637	1	11
471.830	1	6
473.023	1	7
474.215	1	3
475.408	1	4
476.601	1	19
477.793	1	19
478.986	1	9
480.179	1	9
481.371	1	16
482.564	1	-2
483.756	1	21
484.948	1	9
486.141	1	22
487.333	1	19
488.525	1	29
489.718	1	36
490.910	1	26
492.102	1	36
493.294	1	30
494.486	1	43
495.678	1	34
496.870	1	32
498.062	1	49
499.254	1	50
500.446	1	43
501.638	1	41
502.829	1	49
504.021	1	60
505.213	1	47
506.404	1	53
507.596	1	57
508.788	1	55
509.979	1	68
511.171	1	70
512.362	1	52
513.553	1	68
514.745	1	64
515.936	1	73
517.127	1	75
518.319	1	74
519.510	1	84
520.701	1	76
521.892	1	73
523.083	1	85
524.274	1	73
525.465	1	80
526.656	1	82
527.847	1	85
529.038	1	89
530.229	1	93
531.419	1	85
532.610	1	82
533.801	1	77
534.991	1	81
536.182	1	75
537.373	1	65
538.563	1	76
539.754	1	64
540.944	1	68
542.134	1	69
543.325	1	69
544.515	1	63
545.705	1	65
546.896	1	78
548.086	1	77
549.276	1	71
550.466	1	76
551.656	1	74
552.846	1	74
554.036	1	66
555.226	1	55
556.416	1	67
557.606	1	63
558.796	1	61
559.986	1	60
561.175	1	54
562.365	1	59
563.555	1	59
564.744	1	53
565.934	1	53
567.123	1	51
568.313	1	42
569.502	1	50
570.692	1	54
571.881	1	41
573.070	1	41
574.260	1	43
575.449	1	39
576.638	1	40
577.827	1	41
579.016	1	38
580.205	1	33
581.394	1	34
582.583	1	30
583.772	1	28
584.961	1	38
586.150	1	35
587.339	1	27
588.528	1	29
589.717	1	32
590.905	1	31
592.094	1	41
593.283	1	36
594.471	1	28
595.660	1	20
596.848	1	18
598.037	1	30
599.225	1	18
600.413	1	17
601.602	1	31
602.790	1	36
603.978	1	25
605.166	1	38
606.355	1	25
607.543	1	28
608.731	1	32
609.919	1	11
611.107	1	17
612.295	1	7
613.483	1	11
614.671	1	29
615.858	1	14
617.046	1	17
618.234	1	15
619.422	1	10
620.609	1	15
621.797	1	25
622.985	1	15
624.172	1	16
625.360	1	14
626.547	1	8
627.735	1	8
628.922	1	15
630.109	1	9
631.297	1	14
632.484	1	5
633.671	1	16
634.858	1	16
636.045	1	16
637.232	1	12
638.419	1	3
639.606	1	8
640.793	1	9
641.980	1	13
643.167	1	9
644.354	1	19
645.541	1	10
646.728	1	22
647.914	1	14
649.101	1	11
650.288	1	2
651.474	1	26
652.661	1	11
653.847	1	1
655.034	1	14
656.220	1	5
657.406	1	10
658.593	1	14
659.779	1	7
660.965	1	22
662.152	1	19
663.338	1	19
664.524	1	12
665.710	1	5
666.896	1	7
668.082	1	14
669.268	1	1
670.454	1	-4
671.640	1	14
672.826	1	11
674.011	1	21
675.197	1	19
676.383	1	7
677.569	1	4
678.754	1	15
679.940	1	18
681.125	1	18
682.311	1	8
683.496	1	15
684.682	1	12
685.867	1	12
687.053	1	3
688.238	1	7
688.746	1	6

File: GaN_sample D_spot 18_UVVIS_170 K_200um_550 ms 2x2mm1_62.txt
340.368	1	2
341.565	1	4
342.763	1	10
343.960	1	3
345.157	1	0
346.354	1	1
347.552	1	14
348.749	1	7
349.946	1	14
351.143	1	2
352.340	1	11
353.537	1	15
354.734	1	25
355.931	1	22
357.127	1	41
358.324	1	46
359.521	1	47
360.718	1	73
361.914	1	106
363.111	1	155
364.308	1	234
365.504	1	338
366.701	1	479
367.897	1	570
369.093	1	583
370.290	1	523
371.486	1	427
372.682	1	358
373.879	1	297
375.075	1	242
376.271	1	208
377.467	1	164
378.663	1	131
379.859	1	103
381.055	1	102
382.251	1	78
383.447	1	85
384.643	1	70
385.839	1	58
387.035	1	46
388.230	1	37
389.426	1	42
390.622	1	34
391.817	1	30
393.013	1	28
394.208	1	28
395.404	1	34
396.599	1	20
397.795	1	15
398.990	1	16
400.186	1	8
401.381	1	29
402.576	1	20
403.771	1	13
404.967	1	17
406.162	1	23
407.357	1	13
408.552	1	11
409.747	1	13
410.942	1	11
412.137	1	1
413.332	1	-1
414.526	1	15
415.721	1	5
416.916	1	-12
418.111	1	10
419.305	1	4
420.500	1	5
421.695	1	4
422.889	1	12
424.084	1	24
425.278	1	9
426.472	1	-1
427.667	1	15
428.861	1	7
430.055	1	10
431.250	1	19
432.444	1	9
433.638	1	11
434.832	1	6
436.026	1	8
437.220	1	7
438.414	1	4
439.608	1	6
440.802	1	12
441.996	1	9
443.190	1	7
444.384	1	7
445.578	1	11
446.771	1	-9
447.965	1	0
449.159	1	7
450.352	1	1
451.546	1	-8
452.739	1	13
453.933	1	13
455.126	1	10
456.320	1	7
457.513	1	19
458.706	1	7
459.899	1	10
461.093	1	18
462.286	1	4
463.479	1	5
464.672	1	6
465.865	1	4
467.058	1	14
468.251	1	10
469.444	1	7
470.637	1	10
471.830	1	8
473.023	1	12
474.215	1	12
475.408	1	-3
476.601	1	10
477.793	1	9
478.986	1	17
480.179	1	6
481.371	1	11
482.564	1	11
483.756	1	23
484.948	1	13
486.141	1	23
487.333	1	15
488.525	1	24
489.718	1	29
490.910	1	34
492.102	1	24
493.294	1	27
494.486	1	47
495.678	1	28
496.870	1	25
498.062	1	26
499.254	1	50
500.446	1	39
501.638	1	42
502.829	1	45
504.021	1	47
505.213	1	45
506.404	1	44
507.596	1	55
508.788	1	43
509.979	1	50
511.171	1	53
512.362	1	45
513.553	1	64
514.745	1	57
515.936	1	60
517.127	1	71
518.319	1	63
519.510	1	64
520.701	1	72
521.892	1	73
523.083	1	63
524.274	1	63
525.465	1	80
526.656	1	85
527.847	1	83
529.038	1	77
530.229	1	91
531.419	1	88
532.610	1	83
533.801	1	77
534.991	1	72
536.182	1	70
537.373	1	56
538.563	1	67
539.754	1	66
540.944	1	59
542.134	1	62
543.325	1	68
544.515	1	63
545.705	1	76
546.896	1	70
548.086	1	62
549.276	1	68
550.466	1	63
551.656	1	64
552.846	1	59
554.036	1	48
555.226	1	58
556.416	1	54
557.606	1	54
558.796	1	42
559.986	1	55
561.175	1	42
562.365	1	42
563.555	1	40
564.744	1	50
565.934	1	58
567.123	1	44
568.313	1	49
569.502	1	44
570.692	1	50
571.881	1	30
573.070	1	42
574.260	1	42
575.449	1	45
576.638	1	49
577.827	1	46
579.016	1	42
580.205	1	33
581.394	1	44
582.583	1	32
583.772	1	24
584.961	1	36
586.150	1	29
587.339	1	33
588.528	1	26
589.717	1	33
590.905	1	28
592.094	1	35
593.283	1	23
594.471	1	27
595.660	1	22
596.848	1	17
598.037	1	25
599.225	1	23
600.413	1	15
601.602	1	23
602.790	1	25
603.978	1	27
605.166	1	26
606.355	1	27
607.543	1	26
608.731	1	21
609.919	1	16
611.107	1	9
612.295	1	18
613.483	1	14
614.671	1	25
615.858	1	15
617.046	1	2
618.234	1	15
619.422	1	11
620.609	1	2
621.797	1	17
622.985	1	21
624.172	1	11
625.360	1	17
626.547	1	1
627.735	1	-3
628.922	1	2
630.109	1	1
631.297	1	11
632.484	1	1
633.671	1	20
634.858	1	17
636.045	1	15
637.232	1	12
638.419	1	6
639.606	1	7
640.793	1	5
641.980	1	4
643.167	1	8
644.354	1	11
645.541	1	18
646.728	1	15
647.914	1	12
649.101	1	10
650.288	1	0
651.474	1	20
652.661	1	1
653.847	1	15
655.034	1	4
656.220	1	14
657.406	1	9
658.593	1	2
659.779	1	8
660.965	1	25
662.152	1	4
663.338	1	16
664.524	1	11
665.710	1	13
666.896	1	9
668.082	1	15
669.268	1	7
670.454	1	-3
671.640	1	16
672.826	1	1
674.011	1	18
675.197	1	11
676.383	1	15
677.569	1	2
678.754	1	14
679.940	1	10
681.125	1	21
682.311	1	11
683.496	1	18
684.682	1	12
685.867	1	19
687.053	1	5
688.238	1	5
688.746	1	3

File: GaN_sample D_spot 18_UVVIS_170 K_200um_550 ms 2x2mm1_63.txt
340.368	1	3
341.565	1	7
342.763	1	4
343.960	1	1
345.157	1	4
346.354	1	-9
347.552	1	8
348.749	1	11
349.946	1	-1
351.143	1	5
352.340	1	8
353.537	1	9
354.734	1	17
355.931	1	22
357.127	1	32
358.324	1	37
359.521	1	60
360.718	1	69
361.914	1	92
363.111	1	159
364.308	1	226
365.504	1	320
366.701	1	448
367.897	1	560
369.093	1	547
370.290	1	497
371.486	1	401
372.682	1	340
373.879	1	289
375.075	1	226
376.271	1	179
377.467	1	164
378.663	1	132
379.859	1	98
381.055	1	84
382.251	1	73
383.447	1	66
384.643	1	56
385.839	1	47
387.035	1	49
388.230	1	45
389.426	1	41
390.622	1	28
391.817	1	33
393.013	1	34
394.208	1	36
395.404	1	28
396.599	1	34
397.795	1	10
398.990	1	10
400.186	1	17
401.381	1	28
402.576	1	11
403.771	1	14
404.967	1	6
406.162	1	11
407.357	1	14
408.552	1	20
409.747	1	1
410.942	1	11
412.137	1	5
413.332	1	-3
414.526	1	14
415.721	1	11
416.916	1	7
418.111	1	13
419.305	1	7
420.500	1	7
421.695	1	-5
422.889	1	2
424.084	1	18
425.278	1	3
426.472	1	2
427.667	1	6
428.861	1	14
430.055	1	2
431.250	1	15
432.444	1	3
433.638	1	14
434.832	1	15
436.026	1	7
437.220	1	2
438.414	1	4
439.608	1	2
440.802	1	13
441.996	1	0
443.190	1	3
444.384	1	5
445.578	1	7
446.771	1	-5
447.965	1	-5
449.159	1	1
450.352	1	2
451.546	1	-1
452.739	1	12
453.933	1	-5
455.126	1	14
456.320	1	5
457.513	1	19
458.706	1	16
459.899	1	4
461.093	1	18
462.286	1	-1
463.479	1	2
464.672	1	4
465.865	1	4
467.058	1	3
468.251	1	11
469.444	1	11
470.637	1	13
471.830	1	8
473.023	1	12
474.215	1	7
475.408	1	7
476.601	1	4
477.793	1	16
478.986	1	4
480.179	1	3
481.371	1	5
482.564	1	10
483.756	1	16
484.948	1	20
486.141	1	31
487.333	1	16
488.525	1	28
489.718	1	23
490.910	1	18
492.102	1	32
493.294	1	30
494.486	1	29
495.678	1	37
496.870	1	24
498.062	1	28
499.254	1	35
500.446	1	35
501.638	1	35
502.829	1	51
504.021	1	47
505.213	1	50
506.404	1	49
507.596	1	55
508.788	1	36
509.979	1	58
511.171	1	64
512.362	1	58
513.553	1	56
514.745	1	54
515.936	1	61
517.127	1	61
518.319	1	61
519.510	1	70
520.701	1	60
521.892	1	72
523.083	1	72
524.274	1	66
525.465	1	76
526.656	1	71
527.847	1	63
529.038	1	70
530.229	1	82
531.419	1	87
532.610	1	70
533.801	1	66
534.991	1	59
536.182	1	60
537.373	1	60
538.563	1	66
539.754	1	69
540.944	1	69
542.134	1	67
543.325	1	56
544.515	1	59
545.705	1	71
546.896	1	60
548.086	1	66
549.276	1	60
550.466	1	56
551.656	1	59
552.846	1	50
554.036	1	54
555.226	1	48
556.416	1	60
557.606	1	49
558.796	1	44
559.986	1	53
561.175	1	42
562.365	1	45
563.555	1	44
564.744	1	47
565.934	1	50
567.123	1	44
568.313	1	36
569.502	1	45
570.692	1	49
571.881	1	41
573.070	1	38
574.260	1	43
575.449	1	32
576.638	1	40
577.827	1	36
579.016	1	33
580.205	1	29
581.394	1	35
582.583	1	30
583.772	1	26
584.961	1	32
586.150	1	19
587.339	1	27
588.528	1	31
589.717	1	27
590.905	1	30
592.094	1	20
593.283	1	23
594.471	1	18
595.660	1	14
596.848	1	19
598.037	1	23
599.225	1	25
600.413	1	12
601.602	1	23
602.790	1	29
603.978	1	25
605.166	1	23
606.355	1	27
607.543	1	23
608.731	1	20
609.919	1	16
611.107	1	14
612.295	1	3
613.483	1	14
614.671	1	29
615.858	1	9
617.046	1	8
618.234	1	9
619.422	1	6
620.609	1	9
621.797	1	18
622.985	1	13
624.172	1	10
625.360	1	18
626.547	1	2
627.735	1	7
628.922	1	2
630.109	1	11
631.297	1	12
632.484	1	3
633.671	1	13
634.858	1	5
636.045	1	16
637.232	1	9
638.419	1	5
639.606	1	2
640.793	1	9
641.980	1	11
643.167	1	5
644.354	1	14
645.541	1	11
646.728	1	10
647.914	1	10
649.101	1	14
650.288	1	2
651.474	1	14
652.661	1	6
653.847	1	8
655.034	1	5
656.220	1	11
657.406	1	8
658.593	1	10
659.779	1	11
660.965	1	18
662.152	1	8
663.338	1	17
664.524	1	6
665.710	1	10
666.896	1	6
668.082	1	20
669.268	1	4
670.454	1	9
671.640	1	21
672.826	1	9
674.011	1	13
675.197	1	2
676.383	1	22
677.569	1	0
678.754	1	9
679.940	1	10
681.125	1	14
682.311	1	7
683.496	1	19
684.682	1	17
685.867	1	11
687.053	1	5
688.238	1	13
688.746	1	12