Folder: cryo-il_analysis/Data/GaN_200K_800ms (part 4)

File: GaN_sample F_spot 12_UVVIS_200 K_200um_800 ms 2x2mm1_33.txt
340.368	1	4
341.565	1	-3
342.763	1	13
343.960	1	4
345.157	1	2
346.354	1	-4
347.552	1	4
348.749	1	-8
349.946	1	0
351.143	1	-2
352.340	1	1
353.537	1	9
354.734	1	-2
355.931	1	1
357.127	1	2
358.324	1	2
359.521	1	4
360.718	1	0
361.914	1	6
363.111	1	8
364.308	1	-6
365.504	1	4
366.701	1	2
367.897	1	6
369.093	1	1
370.290	1	-3
371.486	1	15
372.682	1	2
373.879	1	-5
375.075	1	0
376.271	1	-3
377.467	1	5
378.663	1	-12
379.859	1	-3
381.055	1	12
382.251	1	-3
383.447	1	-3
384.643	1	4
385.839	1	-3
387.035	1	10
388.230	1	10
389.426	1	2
390.622	1	-5
391.817	1	6
393.013	1	0
394.208	1	5
395.404	1	2
396.599	1	-5
397.795	1	5
398.990	1	2
400.186	1	0
401.381	1	-1
402.576	1	-8
403.771	1	5
404.967	1	2
406.162	1	3
407.357	1	0
408.552	1	-11
409.747	1	7
410.942	1	12
412.137	1	9
413.332	1	-3
414.526	1	-2
415.721	1	4
416.916	1	0
418.111	1	5
419.305	1	1
420.500	1	0
421.695	1	2
422.889	1	-3
424.084	1	-3
425.278	1	12
426.472	1	-3
427.667	1	6
428.861	1	-3
430.055	1	1
431.250	1	-3
432.444	1	12
433.638	1	-7
434.832	1	1
436.026	1	5
437.220	1	4
438.414	1	-5
439.608	1	-14
440.802	1	0
441.996	1	14
443.190	1	6
444.384	1	5
445.578	1	-7
446.771	1	9
447.965	1	2
449.159	1	-6
450.352	1	-5
451.546	1	1
452.739	1	4
453.933	1	-7
455.126	1	-11
456.320	1	-5
457.513	1	0
458.706	1	-2
459.899	1	-2
461.093	1	7
462.286	1	0
463.479	1	-8
464.672	1	4
465.865	1	-2
467.058	1	-9
468.251	1	-5
469.444	1	-7
470.637	1	10
471.830	1	-2
473.023	1	4
474.215	1	4
475.408	1	6
476.601	1	-1
477.793	1	5
478.986	1	1
480.179	1	-5
481.371	1	6
482.564	1	4
483.756	1	9
484.948	1	-1
486.141	1	-5
487.333	1	1
488.525	1	4
489.718	1	-1
490.910	1	4
492.102	1	6
493.294	1	-5
494.486	1	2
495.678	1	6
496.870	1	4
498.062	1	8
499.254	1	3
500.446	1	-4
501.638	1	-6
502.829	1	3
504.021	1	0
505.213	1	10
506.404	1	4
507.596	1	6
508.788	1	13
509.979	1	-2
511.171	1	-8
512.362	1	-9
513.553	1	-15
514.745	1	-4
515.936	1	3
517.127	1	0
518.319	1	5
519.510	1	6
520.701	1	-2
521.892	1	-1
523.083	1	1
524.274	1	-5
525.465	1	2
526.656	1	-6
527.847	1	1
529.038	1	3
530.229	1	4
531.419	1	-1
532.610	1	1
533.801	1	7
534.991	1	-1
536.182	1	-1
537.373	1	1
538.563	1	3
539.754	1	8
540.944	1	2
542.134	1	9
543.325	1	4
544.515	1	-5
545.705	1	0
546.896	1	-9
548.086	1	-2
549.276	1	-8
550.466	1	0
551.656	1	3
552.846	1	-4
554.036	1	4
555.226	1	-5
556.416	1	0
557.606	1	5
558.796	1	-5
559.986	1	-4
561.175	1	7
562.365	1	-5
563.555	1	-1
564.744	1	1
565.934	1	5
567.123	1	8
568.313	1	16
569.502	1	0
570.692	1	1
571.881	1	4
573.070	1	-6
574.260	1	0
575.449	1	-10
576.638	1	-1
577.827	1	-3
579.016	1	10
580.205	1	-10
581.394	1	4
582.583	1	3
583.772	1	6
584.961	1	-3
586.150	1	3
587.339	1	-1
588.528	1	8
589.717	1	-3
590.905	1	5
592.094	1	6
593.283	1	3
594.471	1	7
595.660	1	0
596.848	1	2
598.037	1	6
599.225	1	-8
600.413	1	10
601.602	1	12
602.790	1	-4
603.978	1	0
605.166	1	3
606.355	1	3
607.543	1	-2
608.731	1	3
609.919	1	9
611.107	1	-3
612.295	1	7
613.483	1	5
614.671	1	4
615.858	1	1
617.046	1	7
618.234	1	-3
619.422	1	-5
620.609	1	4
621.797	1	1
622.985	1	7
624.172	1	9
625.360	1	4
626.547	1	6
627.735	1	3
628.922	1	1
630.109	1	-5
631.297	1	1
632.484	1	1
633.671	1	-3
634.858	1	-10
636.045	1	18
637.232	1	-1
638.419	1	-1
639.606	1	3
640.793	1	19
641.980	1	4
643.167	1	-8
644.354	1	2
645.541	1	3
646.728	1	1
647.914	1	5
649.101	1	-4
650.288	1	8
651.474	1	-3
652.661	1	-10
653.847	1	12
655.034	1	-1
656.220	1	-6
657.406	1	2
658.593	1	11
659.779	1	4
660.965	1	6
662.152	1	0
663.338	1	13
664.524	1	7
665.710	1	-1
666.896	1	-5
668.082	1	6
669.268	1	-8
670.454	1	0
671.640	1	3
672.826	1	-2
674.011	1	1
675.197	1	-8
676.383	1	-1
677.569	1	-5
678.754	1	-11
679.940	1	1
681.125	1	1
682.311	1	14
683.496	1	7
684.682	1	-4
685.867	1	-3
687.053	1	6
688.238	1	2
688.746	1	3

File: GaN_sample F_spot 12_UVVIS_200 K_200um_800 ms 2x2mm1_35.txt
340.368	1	18
341.565	1	-1
342.763	1	9
343.960	1	-6
345.157	1	4
346.354	1	2
347.552	1	-5
348.749	1	-7
349.946	1	-3
351.143	1	1
352.340	1	-1
353.537	1	4
354.734	1	1
355.931	1	3
357.127	1	1
358.324	1	1
359.521	1	9
360.718	1	10
361.914	1	2
363.111	1	0
364.308	1	-1
365.504	1	3
366.701	1	6
367.897	1	0
369.093	1	-3
370.290	1	2
371.486	1	2
372.682	1	0
373.879	1	1
375.075	1	6
376.271	1	16
377.467	1	-5
378.663	1	0
379.859	1	-2
381.055	1	10
382.251	1	-4
383.447	1	-10
384.643	1	10
385.839	1	5
387.035	1	-2
388.230	1	4
389.426	1	1
390.622	1	2
391.817	1	3
393.013	1	2
394.208	1	4
395.404	1	-10
396.599	1	0
397.795	1	4
398.990	1	3
400.186	1	5
401.381	1	1
402.576	1	4
403.771	1	1
404.967	1	2
406.162	1	8
407.357	1	6
408.552	1	-4
409.747	1	-4
410.942	1	4
412.137	1	7
413.332	1	4
414.526	1	5
415.721	1	5
416.916	1	0
418.111	1	2
419.305	1	1
420.500	1	0
421.695	1	-1
422.889	1	-8
424.084	1	3
425.278	1	11
426.472	1	0
427.667	1	0
428.861	1	10
430.055	1	2
431.250	1	-1
432.444	1	7
433.638	1	-3
434.832	1	3
436.026	1	11
437.220	1	2
438.414	1	-8
439.608	1	-4
440.802	1	-4
441.996	1	6
443.190	1	-1
444.384	1	-11
445.578	1	-2
446.771	1	12
447.965	1	-3
449.159	1	4
450.352	1	-7
451.546	1	2
452.739	1	7
453.933	1	0
455.126	1	-3
456.320	1	1
457.513	1	-1
458.706	1	6
459.899	1	-1
461.093	1	-1
462.286	1	-3
463.479	1	1
464.672	1	-1
465.865	1	12
467.058	1	-4
468.251	1	-2
469.444	1	4
470.637	1	4
471.830	1	3
473.023	1	10
474.215	1	8
475.408	1	6
476.601	1	-5
477.793	1	2
478.986	1	-5
480.179	1	9
481.371	1	4
482.564	1	-2
483.756	1	11
484.948	1	-6
486.141	1	-5
487.333	1	2
488.525	1	11
489.718	1	0
490.910	1	2
492.102	1	-1
493.294	1	2
494.486	1	1
495.678	1	0
496.870	1	4
498.062	1	3
499.254	1	0
500.446	1	-9
501.638	1	-8
502.829	1	-5
504.021	1	0
505.213	1	5
506.404	1	2
507.596	1	4
508.788	1	8
509.979	1	3
511.171	1	-3
512.362	1	0
513.553	1	-15
514.745	1	2
515.936	1	4
517.127	1	-6
518.319	1	5
519.510	1	3
520.701	1	1
521.892	1	3
523.083	1	-4
524.274	1	2
525.465	1	10
526.656	1	-9
527.847	1	-2
529.038	1	3
530.229	1	8
531.419	1	-5
532.610	1	-8
533.801	1	15
534.991	1	5
536.182	1	2
537.373	1	3
538.563	1	0
539.754	1	2
540.944	1	3
542.134	1	11
543.325	1	-4
544.515	1	1
545.705	1	-5
546.896	1	-5
548.086	1	3
549.276	1	-6
550.466	1	4
551.656	1	3
552.846	1	10
554.036	1	0
555.226	1	-15
556.416	1	-4
557.606	1	-4
558.796	1	0
559.986	1	-5
561.175	1	8
562.365	1	6
563.555	1	-6
564.744	1	2
565.934	1	5
567.123	1	8
568.313	1	13
569.502	1	-3
570.692	1	11
571.881	1	8
573.070	1	4
574.260	1	0
575.449	1	-2
576.638	1	-12
577.827	1	-4
579.016	1	6
580.205	1	-2
581.394	1	5
582.583	1	8
583.772	1	6
584.961	1	3
586.150	1	2
587.339	1	8
588.528	1	1
589.717	1	1
590.905	1	-1
592.094	1	-13
593.283	1	4
594.471	1	16
595.660	1	2
596.848	1	1
598.037	1	1
599.225	1	-6
600.413	1	6
601.602	1	12
602.790	1	4
603.978	1	3
605.166	1	7
606.355	1	-3
607.543	1	-1
608.731	1	0
609.919	1	5
611.107	1	1
612.295	1	-5
613.483	1	1
614.671	1	9
615.858	1	0
617.046	1	3
618.234	1	-11
619.422	1	1
620.609	1	-1
621.797	1	13
622.985	1	3
624.172	1	3
625.360	1	11
626.547	1	-9
627.735	1	6
628.922	1	1
630.109	1	-11
631.297	1	-4
632.484	1	5
633.671	1	-5
634.858	1	-3
636.045	1	14
637.232	1	-2
638.419	1	-4
639.606	1	2
640.793	1	16
641.980	1	4
643.167	1	-3
644.354	1	6
645.541	1	3
646.728	1	3
647.914	1	1
649.101	1	-4
650.288	1	4
651.474	1	-2
652.661	1	-3
653.847	1	12
655.034	1	5
656.220	1	-7
657.406	1	11
658.593	1	2
659.779	1	3
660.965	1	3
662.152	1	7
663.338	1	4
664.524	1	7
665.710	1	10
666.896	1	-5
668.082	1	0
669.268	1	2
670.454	1	1
671.640	1	-2
672.826	1	4
674.011	1	2
675.197	1	-2
676.383	1	8
677.569	1	-7
678.754	1	2
679.940	1	1
681.125	1	1
682.311	1	5
683.496	1	10
684.682	1	-3
685.867	1	-3
687.053	1	-4
688.238	1	6
688.746	1	-3

File: GaN_sample F_spot 12_UVVIS_200 K_200um_800 ms 2x2mm1_37.txt
340.368	1	5
341.565	1	-1
342.763	1	5
343.960	1	3
345.157	1	-4
346.354	1	1
347.552	1	-1
348.749	1	-4
349.946	1	-4
351.143	1	12
352.340	1	8
353.537	1	14
354.734	1	13
355.931	1	18
357.127	1	17
358.324	1	33
359.521	1	48
360.718	1	63
361.914	1	85
363.111	1	139
364.308	1	230
365.504	1	374
366.701	1	592
367.897	1	861
369.093	1	1075
370.290	1	1128
371.486	1	1017
372.682	1	780
373.879	1	636
375.075	1	501
376.271	1	421
377.467	1	331
378.663	1	259
379.859	1	203
381.055	1	180
382.251	1	134
383.447	1	125
384.643	1	136
385.839	1	117
387.035	1	117
388.230	1	101
389.426	1	78
390.622	1	72
391.817	1	66
393.013	1	47
394.208	1	48
395.404	1	42
396.599	1	47
397.795	1	48
398.990	1	46
400.186	1	38
401.381	1	35
402.576	1	32
403.771	1	32
404.967	1	38
406.162	1	27
407.357	1	30
408.552	1	20
409.747	1	32
410.942	1	26
412.137	1	27
413.332	1	14
414.526	1	12
415.721	1	16
416.916	1	12
418.111	1	18
419.305	1	12
420.500	1	29
421.695	1	8
422.889	1	10
424.084	1	21
425.278	1	30
426.472	1	17
427.667	1	23
428.861	1	19
430.055	1	19
431.250	1	10
432.444	1	26
433.638	1	16
434.832	1	10
436.026	1	8
437.220	1	18
438.414	1	0
439.608	1	3
440.802	1	4
441.996	1	13
443.190	1	8
444.384	1	11
445.578	1	-1
446.771	1	16
447.965	1	10
449.159	1	2
450.352	1	4
451.546	1	11
452.739	1	21
453.933	1	6
455.126	1	11
456.320	1	4
457.513	1	13
458.706	1	12
459.899	1	12
461.093	1	4
462.286	1	7
463.479	1	3
464.672	1	5
465.865	1	17
467.058	1	7
468.251	1	15
469.444	1	8
470.637	1	11
471.830	1	11
473.023	1	17
474.215	1	26
475.408	1	16
476.601	1	10
477.793	1	9
478.986	1	10
480.179	1	14
481.371	1	24
482.564	1	22
483.756	1	22
484.948	1	11
486.141	1	21
487.333	1	29
488.525	1	34
489.718	1	33
490.910	1	31
492.102	1	25
493.294	1	31
494.486	1	41
495.678	1	45
496.870	1	37
498.062	1	39
499.254	1	41
500.446	1	45
501.638	1	51
502.829	1	66
504.021	1	73
505.213	1	81
506.404	1	77
507.596	1	97
508.788	1	107
509.979	1	81
511.171	1	88
512.362	1	96
513.553	1	90
514.745	1	110
515.936	1	107
517.127	1	116
518.319	1	122
519.510	1	132
520.701	1	130
521.892	1	140
523.083	1	145
524.274	1	149
525.465	1	164
526.656	1	154
527.847	1	170
529.038	1	178
530.229	1	189
531.419	1	191
532.610	1	206
533.801	1	232
534.991	1	223
536.182	1	210
537.373	1	207
538.563	1	209
539.754	1	215
540.944	1	197
542.134	1	222
543.325	1	218
544.515	1	226
545.705	1	238
546.896	1	230
548.086	1	264
549.276	1	261
550.466	1	269
551.656	1	295
552.846	1	278
554.036	1	297
555.226	1	287
556.416	1	273
557.606	1	284
558.796	1	267
559.986	1	265
561.175	1	284
562.365	1	282
563.555	1	266
564.744	1	274
565.934	1	298
567.123	1	281
568.313	1	300
569.502	1	290
570.692	1	288
571.881	1	295
573.070	1	281
574.260	1	278
575.449	1	288
576.638	1	284
577.827	1	262
579.016	1	281
580.205	1	287
581.394	1	267
582.583	1	267
583.772	1	287
584.961	1	278
586.150	1	273
587.339	1	281
588.528	1	267
589.717	1	280
590.905	1	255
592.094	1	218
593.283	1	243
594.471	1	235
595.660	1	226
596.848	1	218
598.037	1	210
599.225	1	212
600.413	1	226
601.602	1	234
602.790	1	212
603.978	1	227
605.166	1	212
606.355	1	219
607.543	1	220
608.731	1	227
609.919	1	232
611.107	1	202
612.295	1	198
613.483	1	202
614.671	1	178
615.858	1	179
617.046	1	189
618.234	1	173
619.422	1	167
620.609	1	173
621.797	1	149
622.985	1	151
624.172	1	153
625.360	1	155
626.547	1	155
627.735	1	156
628.922	1	142
630.109	1	130
631.297	1	133
632.484	1	139
633.671	1	119
634.858	1	128
636.045	1	144
637.232	1	117
638.419	1	113
639.606	1	124
640.793	1	122
641.980	1	117
643.167	1	106
644.354	1	115
645.541	1	120
646.728	1	88
647.914	1	97
649.101	1	93
650.288	1	88
651.474	1	90
652.661	1	87
653.847	1	103
655.034	1	94
656.220	1	73
657.406	1	88
658.593	1	87
659.779	1	84
660.965	1	87
662.152	1	77
663.338	1	76
664.524	1	72
665.710	1	64
666.896	1	70
668.082	1	67
669.268	1	58
670.454	1	59
671.640	1	57
672.826	1	66
674.011	1	57
675.197	1	49
676.383	1	56
677.569	1	54
678.754	1	44
679.940	1	50
681.125	1	61
682.311	1	56
683.496	1	56
684.682	1	50
685.867	1	48
687.053	1	54
688.238	1	54
688.746	1	44

File: GaN_sample F_spot 12_UVVIS_200 K_200um_800 ms 2x2mm1_38.txt
340.368	1	4
341.565	1	0
342.763	1	15
343.960	1	12
345.157	1	5
346.354	1	10
347.552	1	18
348.749	1	17
349.946	1	13
351.143	1	19
352.340	1	27
353.537	1	23
354.734	1	45
355.931	1	57
357.127	1	60
358.324	1	81
359.521	1	110
360.718	1	154
361.914	1	244
363.111	1	371
364.308	1	595
365.504	1	987
366.701	1	1480
367.897	1	2140
369.093	1	2571
370.290	1	2661
371.486	1	2369
372.682	1	1828
373.879	1	1429
375.075	1	1222
376.271	1	995
377.467	1	787
378.663	1	632
379.859	1	496
381.055	1	402
382.251	1	332
383.447	1	294
384.643	1	297
385.839	1	252
387.035	1	217
388.230	1	197
389.426	1	149
390.622	1	133
391.817	1	137
393.013	1	115
394.208	1	110
395.404	1	79
396.599	1	88
397.795	1	94
398.990	1	78
400.186	1	74
401.381	1	66
402.576	1	58
403.771	1	49
404.967	1	51
406.162	1	57
407.357	1	47
408.552	1	42
409.747	1	44
410.942	1	46
412.137	1	41
413.332	1	35
414.526	1	26
415.721	1	30
416.916	1	32
418.111	1	40
419.305	1	28
420.500	1	29
421.695	1	24
422.889	1	16
424.084	1	20
425.278	1	32
426.472	1	32
427.667	1	25
428.861	1	15
430.055	1	25
431.250	1	26
432.444	1	18
433.638	1	15
434.832	1	25
436.026	1	25
437.220	1	31
438.414	1	7
439.608	1	8
440.802	1	13
441.996	1	8
443.190	1	16
444.384	1	3
445.578	1	4
446.771	1	31
447.965	1	23
449.159	1	14
450.352	1	10
451.546	1	14
452.739	1	18
453.933	1	6
455.126	1	2
456.320	1	23
457.513	1	28
458.706	1	12
459.899	1	17
461.093	1	25
462.286	1	13
463.479	1	21
464.672	1	15
465.865	1	17
467.058	1	20
468.251	1	18
469.444	1	13
470.637	1	26
471.830	1	19
473.023	1	22
474.215	1	23
475.408	1	30
476.601	1	14
477.793	1	33
478.986	1	14
480.179	1	32
481.371	1	33
482.564	1	34
483.756	1	34
484.948	1	17
486.141	1	36
487.333	1	47
488.525	1	42
489.718	1	49
490.910	1	54
492.102	1	61
493.294	1	57
494.486	1	68
495.678	1	57
496.870	1	77
498.062	1	72
499.254	1	75
500.446	1	78
501.638	1	87
502.829	1	92
504.021	1	109
505.213	1	127
506.404	1	122
507.596	1	128
508.788	1	140
509.979	1	123
511.171	1	133
512.362	1	133
513.553	1	130
514.745	1	161
515.936	1	157
517.127	1	180
518.319	1	194
519.510	1	198
520.701	1	199
521.892	1	210
523.083	1	197
524.274	1	205
525.465	1	222
526.656	1	214
527.847	1	250
529.038	1	241
530.229	1	263
531.419	1	285
532.610	1	285
533.801	1	310
534.991	1	290
536.182	1	307
537.373	1	293
538.563	1	292
539.754	1	301
540.944	1	293
542.134	1	299
543.325	1	283
544.515	1	313
545.705	1	314
546.896	1	330
548.086	1	344
549.276	1	363
550.466	1	375
551.656	1	385
552.846	1	391
554.036	1	383
555.226	1	358
556.416	1	390
557.606	1	371
558.796	1	370
559.986	1	354
561.175	1	371
562.365	1	379
563.555	1	364
564.744	1	351
565.934	1	368
567.123	1	370
568.313	1	380
569.502	1	369
570.692	1	391
571.881	1	391
573.070	1	346
574.260	1	365
575.449	1	355
576.638	1	346
577.827	1	355
579.016	1	352
580.205	1	347
581.394	1	348
582.583	1	366
583.772	1	363
584.961	1	358
586.150	1	348
587.339	1	349
588.528	1	344
589.717	1	341
590.905	1	333
592.094	1	311
593.283	1	311
594.471	1	316
595.660	1	293
596.848	1	288
598.037	1	273
599.225	1	266
600.413	1	272
601.602	1	300
602.790	1	263
603.978	1	282
605.166	1	299
606.355	1	292
607.543	1	301
608.731	1	281
609.919	1	269
611.107	1	274
612.295	1	250
613.483	1	265
614.671	1	242
615.858	1	234
617.046	1	232
618.234	1	222
619.422	1	208
620.609	1	226
621.797	1	198
622.985	1	212
624.172	1	194
625.360	1	200
626.547	1	188
627.735	1	202
628.922	1	201
630.109	1	169
631.297	1	186
632.484	1	181
633.671	1	160
634.858	1	171
636.045	1	167
637.232	1	150
638.419	1	161
639.606	1	161
640.793	1	155
641.980	1	145
643.167	1	140
644.354	1	150
645.541	1	140
646.728	1	134
647.914	1	127
649.101	1	121
650.288	1	132
651.474	1	113
652.661	1	116
653.847	1	127
655.034	1	121
656.220	1	107
657.406	1	99
658.593	1	112
659.779	1	99
660.965	1	98
662.152	1	94
663.338	1	100
664.524	1	81
665.710	1	93
666.896	1	77
668.082	1	79
669.268	1	82
670.454	1	77
671.640	1	80
672.826	1	73
674.011	1	85
675.197	1	77
676.383	1	81
677.569	1	73
678.754	1	76
679.940	1	66
681.125	1	75
682.311	1	82
683.496	1	77
684.682	1	60
685.867	1	68
687.053	1	69
688.238	1	75
688.746	1	67

File: GaN_sample F_spot 12_UVVIS_200 K_200um_800 ms 2x2mm1_39.txt
340.368	1	9
341.565	1	-6
342.763	1	3
343.960	1	6
345.157	1	11
346.354	1	12
347.552	1	13
348.749	1	12
349.946	1	5
351.143	1	14
352.340	1	28
353.537	1	13
354.734	1	29
355.931	1	39
357.127	1	56
358.324	1	71
359.521	1	101
360.718	1	129
361.914	1	217
363.111	1	313
364.308	1	482
365.504	1	771
366.701	1	1134
367.897	1	1575
369.093	1	1860
370.290	1	1953
371.486	1	1692
372.682	1	1370
373.879	1	1112
375.075	1	909
376.271	1	747
377.467	1	595
378.663	1	486
379.859	1	391
381.055	1	311
382.251	1	255
383.447	1	232
384.643	1	209
385.839	1	185
387.035	1	167
388.230	1	125
389.426	1	111
390.622	1	104
391.817	1	94
393.013	1	89
394.208	1	66
395.404	1	62
396.599	1	58
397.795	1	55
398.990	1	58
400.186	1	51
401.381	1	37
402.576	1	38
403.771	1	39
404.967	1	37
406.162	1	38
407.357	1	38
408.552	1	24
409.747	1	34
410.942	1	30
412.137	1	28
413.332	1	27
414.526	1	14
415.721	1	22
416.916	1	19
418.111	1	16
419.305	1	26
420.500	1	9
421.695	1	16
422.889	1	12
424.084	1	14
425.278	1	22
426.472	1	22
427.667	1	22
428.861	1	19
430.055	1	16
431.250	1	15
432.444	1	19
433.638	1	7
434.832	1	15
436.026	1	15
437.220	1	19
438.414	1	13
439.608	1	7
440.802	1	8
441.996	1	16
443.190	1	16
444.384	1	6
445.578	1	-2
446.771	1	15
447.965	1	14
449.159	1	7
450.352	1	10
451.546	1	7
452.739	1	8
453.933	1	16
455.126	1	7
456.320	1	17
457.513	1	23
458.706	1	13
459.899	1	9
461.093	1	18
462.286	1	16
463.479	1	11
464.672	1	5
465.865	1	10
467.058	1	9
468.251	1	15
469.444	1	3
470.637	1	16
471.830	1	8
473.023	1	19
474.215	1	13
475.408	1	22
476.601	1	13
477.793	1	14
478.986	1	14
480.179	1	26
481.371	1	18
482.564	1	24
483.756	1	21
484.948	1	19
486.141	1	22
487.333	1	33
488.525	1	28
489.718	1	37
490.910	1	36
492.102	1	38
493.294	1	27
494.486	1	38
495.678	1	39
496.870	1	45
498.062	1	50
499.254	1	58
500.446	1	42
501.638	1	52
502.829	1	55
504.021	1	62
505.213	1	70
506.404	1	75
507.596	1	77
508.788	1	78
509.979	1	84
511.171	1	86
512.362	1	88
513.553	1	82
514.745	1	78
515.936	1	96
517.127	1	98
518.319	1	107
519.510	1	114
520.701	1	117
521.892	1	114
523.083	1	127
524.274	1	117
525.465	1	129
526.656	1	123
527.847	1	135
529.038	1	148
530.229	1	148
531.419	1	150
532.610	1	155
533.801	1	174
534.991	1	157
536.182	1	163
537.373	1	150
538.563	1	167
539.754	1	156
540.944	1	164
542.134	1	167
543.325	1	158
544.515	1	157
545.705	1	167
546.896	1	170
548.086	1	190
549.276	1	185
550.466	1	214
551.656	1	207
552.846	1	204
554.036	1	202
555.226	1	179
556.416	1	171
557.606	1	172
558.796	1	193
559.986	1	196
561.175	1	190
562.365	1	199
563.555	1	185
564.744	1	181
565.934	1	175
567.123	1	196
568.313	1	193
569.502	1	189
570.692	1	192
571.881	1	191
573.070	1	180
574.260	1	185
575.449	1	183
576.638	1	182
577.827	1	192
579.016	1	185
580.205	1	184
581.394	1	169
582.583	1	190
583.772	1	193
584.961	1	174
586.150	1	176
587.339	1	174
588.528	1	175
589.717	1	166
590.905	1	147
592.094	1	154
593.283	1	147
594.471	1	160
595.660	1	142
596.848	1	148
598.037	1	129
599.225	1	132
600.413	1	146
601.602	1	146
602.790	1	135
603.978	1	134
605.166	1	155
606.355	1	140
607.543	1	151
608.731	1	143
609.919	1	148
611.107	1	132
612.295	1	118
613.483	1	126
614.671	1	129
615.858	1	123
617.046	1	117
618.234	1	111
619.422	1	97
620.609	1	108
621.797	1	97
622.985	1	103
624.172	1	102
625.360	1	101
626.547	1	93
627.735	1	98
628.922	1	100
630.109	1	89
631.297	1	91
632.484	1	86
633.671	1	84
634.858	1	88
636.045	1	92
637.232	1	80
638.419	1	87
639.606	1	71
640.793	1	81
641.980	1	89
643.167	1	62
644.354	1	79
645.541	1	76
646.728	1	74
647.914	1	66
649.101	1	67
650.288	1	72
651.474	1	52
652.661	1	56
653.847	1	66
655.034	1	58
656.220	1	47
657.406	1	65
658.593	1	62
659.779	1	54
660.965	1	65
662.152	1	57
663.338	1	51
664.524	1	46
665.710	1	41
666.896	1	47
668.082	1	50
669.268	1	42
670.454	1	47
671.640	1	40
672.826	1	45
674.011	1	41
675.197	1	38
676.383	1	45
677.569	1	36
678.754	1	39
679.940	1	43
681.125	1	42
682.311	1	48
683.496	1	45
684.682	1	36
685.867	1	38
687.053	1	38
688.238	1	40
688.746	1	29

File: GaN_sample F_spot 12_UVVIS_200 K_200um_800 ms 2x2mm1_40.txt
340.368	1	2
341.565	1	-8
342.763	1	11
343.960	1	10
345.157	1	10
346.354	1	10
347.552	1	4
348.749	1	4
349.946	1	6
351.143	1	19
352.340	1	25
353.537	1	22
354.734	1	34
355.931	1	43
357.127	1	47
358.324	1	65
359.521	1	92
360.718	1	132
361.914	1	184
363.111	1	273
364.308	1	421
365.504	1	645
366.701	1	934
367.897	1	1301
369.093	1	1513
370.290	1	1547
371.486	1	1372
372.682	1	1098
373.879	1	884
375.075	1	730
376.271	1	598
377.467	1	481
378.663	1	396
379.859	1	318
381.055	1	259
382.251	1	208
383.447	1	192
384.643	1	166
385.839	1	148
387.035	1	133
388.230	1	114
389.426	1	90
390.622	1	85
391.817	1	86
393.013	1	60
394.208	1	54
395.404	1	50
396.599	1	49
397.795	1	50
398.990	1	47
400.186	1	46
401.381	1	31
402.576	1	36
403.771	1	32
404.967	1	38
406.162	1	35
407.357	1	36
408.552	1	22
409.747	1	21
410.942	1	25
412.137	1	18
413.332	1	16
414.526	1	18
415.721	1	10
416.916	1	9
418.111	1	16
419.305	1	16
420.500	1	9
421.695	1	7
422.889	1	6
424.084	1	17
425.278	1	16
426.472	1	14
427.667	1	24
428.861	1	5
430.055	1	7
431.250	1	9
432.444	1	16
433.638	1	3
434.832	1	16
436.026	1	15
437.220	1	14
438.414	1	1
439.608	1	3
440.802	1	8
441.996	1	13
443.190	1	8
444.384	1	5
445.578	1	-4
446.771	1	17
447.965	1	6
449.159	1	3
450.352	1	14
451.546	1	5
452.739	1	6
453.933	1	7
455.126	1	7
456.320	1	15
457.513	1	19
458.706	1	2
459.899	1	20
461.093	1	9
462.286	1	12
463.479	1	7
464.672	1	13
465.865	1	11
467.058	1	6
468.251	1	7
469.444	1	0
470.637	1	14
471.830	1	6
473.023	1	23
474.215	1	19
475.408	1	7
476.601	1	18
477.793	1	11
478.986	1	8
480.179	1	12
481.371	1	20
482.564	1	20
483.756	1	23
484.948	1	8
486.141	1	9
487.333	1	27
488.525	1	18
489.718	1	18
490.910	1	32
492.102	1	29
493.294	1	31
494.486	1	34
495.678	1	32
496.870	1	41
498.062	1	38
499.254	1	41
500.446	1	38
501.638	1	40
502.829	1	44
504.021	1	56
505.213	1	55
506.404	1	52
507.596	1	58
508.788	1	80
509.979	1	60
511.171	1	69
512.362	1	60
513.553	1	52
514.745	1	67
515.936	1	71
517.127	1	70
518.319	1	81
519.510	1	74
520.701	1	83
521.892	1	90
523.083	1	80
524.274	1	93
525.465	1	105
526.656	1	85
527.847	1	97
529.038	1	112
530.229	1	104
531.419	1	103
532.610	1	112
533.801	1	127
534.991	1	117
536.182	1	109
537.373	1	113
538.563	1	111
539.754	1	112
540.944	1	108
542.134	1	119
543.325	1	112
544.515	1	110
545.705	1	120
546.896	1	123
548.086	1	120
549.276	1	130
550.466	1	141
551.656	1	139
552.846	1	150
554.036	1	135
555.226	1	134
556.416	1	128
557.606	1	135
558.796	1	140
559.986	1	131
561.175	1	129
562.365	1	137
563.555	1	127
564.744	1	130
565.934	1	138
567.123	1	146
568.313	1	146
569.502	1	122
570.692	1	133
571.881	1	142
573.070	1	137
574.260	1	134
575.449	1	134
576.638	1	122
577.827	1	123
579.016	1	132
580.205	1	133
581.394	1	129
582.583	1	136
583.772	1	134
584.961	1	124
586.150	1	114
587.339	1	128
588.528	1	121
589.717	1	110
590.905	1	119
592.094	1	105
593.283	1	103
594.471	1	110
595.660	1	97
596.848	1	103
598.037	1	102
599.225	1	94
600.413	1	100
601.602	1	104
602.790	1	103
603.978	1	104
605.166	1	104
606.355	1	105
607.543	1	95
608.731	1	97
609.919	1	106
611.107	1	94
612.295	1	83
613.483	1	91
614.671	1	86
615.858	1	87
617.046	1	89
618.234	1	83
619.422	1	71
620.609	1	72
621.797	1	71
622.985	1	73
624.172	1	73
625.360	1	64
626.547	1	69
627.735	1	73
628.922	1	80
630.109	1	56
631.297	1	69
632.484	1	62
633.671	1	61
634.858	1	49
636.045	1	68
637.232	1	59
638.419	1	59
639.606	1	62
640.793	1	59
641.980	1	62
643.167	1	45
644.354	1	49
645.541	1	55
646.728	1	44
647.914	1	48
649.101	1	48
650.288	1	53
651.474	1	45
652.661	1	49
653.847	1	56
655.034	1	47
656.220	1	38
657.406	1	39
658.593	1	46
659.779	1	39
660.965	1	42
662.152	1	45
663.338	1	38
664.524	1	33
665.710	1	39
666.896	1	18
668.082	1	40
669.268	1	25
670.454	1	39
671.640	1	44
672.826	1	27
674.011	1	29
675.197	1	33
676.383	1	36
677.569	1	31
678.754	1	31
679.940	1	29
681.125	1	33
682.311	1	36
683.496	1	32
684.682	1	30
685.867	1	35
687.053	1	39
688.238	1	34
688.746	1	33