Folder: cryo-il_analysis/Data/GaN_170K_550ms (part 16)

File: GaN_sample D_spot 18_UVVIS_170 K_200um_550 ms 2x2mm1_172.txt
340.368	1	-5
341.565	1	2
342.763	1	8
343.960	1	-6
345.157	1	-2
346.354	1	-7
347.552	1	8
348.749	1	14
349.946	1	11
351.143	1	5
352.340	1	5
353.537	1	10
354.734	1	3
355.931	1	6
357.127	1	9
358.324	1	8
359.521	1	5
360.718	1	5
361.914	1	7
363.111	1	14
364.308	1	22
365.504	1	23
366.701	1	27
367.897	1	27
369.093	1	20
370.290	1	11
371.486	1	17
372.682	1	25
373.879	1	16
375.075	1	19
376.271	1	15
377.467	1	16
378.663	1	10
379.859	1	13
381.055	1	7
382.251	1	11
383.447	1	7
384.643	1	2
385.839	1	2
387.035	1	4
388.230	1	4
389.426	1	13
390.622	1	3
391.817	1	5
393.013	1	4
394.208	1	14
395.404	1	6
396.599	1	-1
397.795	1	-3
398.990	1	-14
400.186	1	-7
401.381	1	14
402.576	1	-4
403.771	1	7
404.967	1	3
406.162	1	7
407.357	1	-6
408.552	1	6
409.747	1	-4
410.942	1	11
412.137	1	-5
413.332	1	-7
414.526	1	-1
415.721	1	-1
416.916	1	-4
418.111	1	4
419.305	1	-3
420.500	1	2
421.695	1	0
422.889	1	-7
424.084	1	10
425.278	1	-7
426.472	1	2
427.667	1	3
428.861	1	5
430.055	1	-7
431.250	1	12
432.444	1	7
433.638	1	3
434.832	1	11
436.026	1	1
437.220	1	6
438.414	1	-6
439.608	1	-3
440.802	1	13
441.996	1	8
443.190	1	-1
444.384	1	1
445.578	1	5
446.771	1	-13
447.965	1	3
449.159	1	3
450.352	1	-2
451.546	1	-12
452.739	1	-1
453.933	1	8
455.126	1	1
456.320	1	4
457.513	1	9
458.706	1	8
459.899	1	4
461.093	1	7
462.286	1	-3
463.479	1	-3
464.672	1	-3
465.865	1	6
467.058	1	5
468.251	1	0
469.444	1	-1
470.637	1	8
471.830	1	6
473.023	1	-4
474.215	1	-1
475.408	1	-11
476.601	1	-2
477.793	1	9
478.986	1	-3
480.179	1	4
481.371	1	-3
482.564	1	3
483.756	1	10
484.948	1	3
486.141	1	9
487.333	1	-5
488.525	1	13
489.718	1	1
490.910	1	0
492.102	1	2
493.294	1	-4
494.486	1	8
495.678	1	12
496.870	1	3
498.062	1	2
499.254	1	11
500.446	1	2
501.638	1	1
502.829	1	6
504.021	1	4
505.213	1	2
506.404	1	-2
507.596	1	12
508.788	1	5
509.979	1	7
511.171	1	7
512.362	1	-1
513.553	1	5
514.745	1	-3
515.936	1	5
517.127	1	2
518.319	1	8
519.510	1	3
520.701	1	12
521.892	1	6
523.083	1	0
524.274	1	5
525.465	1	1
526.656	1	13
527.847	1	3
529.038	1	5
530.229	1	8
531.419	1	9
532.610	1	7
533.801	1	13
534.991	1	1
536.182	1	-2
537.373	1	-2
538.563	1	6
539.754	1	5
540.944	1	0
542.134	1	4
543.325	1	11
544.515	1	6
545.705	1	4
546.896	1	12
548.086	1	-3
549.276	1	3
550.466	1	5
551.656	1	13
552.846	1	8
554.036	1	7
555.226	1	1
556.416	1	3
557.606	1	13
558.796	1	4
559.986	1	9
561.175	1	-13
562.365	1	-3
563.555	1	-4
564.744	1	-1
565.934	1	1
567.123	1	3
568.313	1	8
569.502	1	1
570.692	1	4
571.881	1	-2
573.070	1	7
574.260	1	6
575.449	1	-3
576.638	1	8
577.827	1	-18
579.016	1	-1
580.205	1	-4
581.394	1	7
582.583	1	2
583.772	1	6
584.961	1	-2
586.150	1	2
587.339	1	2
588.528	1	1
589.717	1	1
590.905	1	16
592.094	1	-2
593.283	1	-1
594.471	1	7
595.660	1	2
596.848	1	7
598.037	1	1
599.225	1	4
600.413	1	-13
601.602	1	2
602.790	1	8
603.978	1	3
605.166	1	13
606.355	1	14
607.543	1	8
608.731	1	2
609.919	1	-8
611.107	1	-3
612.295	1	0
613.483	1	-1
614.671	1	2
615.858	1	6
617.046	1	-8
618.234	1	8
619.422	1	1
620.609	1	7
621.797	1	3
622.985	1	10
624.172	1	0
625.360	1	-3
626.547	1	-12
627.735	1	-6
628.922	1	0
630.109	1	2
631.297	1	-6
632.484	1	0
633.671	1	5
634.858	1	6
636.045	1	2
637.232	1	9
638.419	1	-9
639.606	1	2
640.793	1	1
641.980	1	-10
643.167	1	2
644.354	1	9
645.541	1	3
646.728	1	1
647.914	1	1
649.101	1	4
650.288	1	-4
651.474	1	5
652.661	1	3
653.847	1	4
655.034	1	5
656.220	1	0
657.406	1	2
658.593	1	1
659.779	1	-2
660.965	1	2
662.152	1	2
663.338	1	-1
664.524	1	1
665.710	1	9
666.896	1	1
668.082	1	4
669.268	1	-5
670.454	1	-1
671.640	1	11
672.826	1	-5
674.011	1	2
675.197	1	8
676.383	1	-2
677.569	1	-6
678.754	1	5
679.940	1	16
681.125	1	8
682.311	1	4
683.496	1	6
684.682	1	10
685.867	1	10
687.053	1	-13
688.238	1	-5
688.746	1	-5

File: GaN_sample D_spot 18_UVVIS_170 K_200um_550 ms 2x2mm1_175.txt
340.368	1	7
341.565	1	2
342.763	1	11
343.960	1	-1
345.157	1	0
346.354	1	0
347.552	1	7
348.749	1	14
349.946	1	11
351.143	1	-2
352.340	1	6
353.537	1	-1
354.734	1	8
355.931	1	9
357.127	1	6
358.324	1	8
359.521	1	11
360.718	1	4
361.914	1	3
363.111	1	19
364.308	1	19
365.504	1	14
366.701	1	29
367.897	1	24
369.093	1	24
370.290	1	17
371.486	1	13
372.682	1	24
373.879	1	15
375.075	1	11
376.271	1	13
377.467	1	13
378.663	1	9
379.859	1	10
381.055	1	11
382.251	1	8
383.447	1	7
384.643	1	4
385.839	1	-7
387.035	1	2
388.230	1	-4
389.426	1	8
390.622	1	1
391.817	1	5
393.013	1	-3
394.208	1	14
395.404	1	6
396.599	1	-2
397.795	1	3
398.990	1	-6
400.186	1	-3
401.381	1	17
402.576	1	-1
403.771	1	-2
404.967	1	2
406.162	1	10
407.357	1	5
408.552	1	2
409.747	1	6
410.942	1	4
412.137	1	-5
413.332	1	-9
414.526	1	9
415.721	1	-3
416.916	1	-3
418.111	1	11
419.305	1	2
420.500	1	2
421.695	1	-5
422.889	1	1
424.084	1	17
425.278	1	-1
426.472	1	4
427.667	1	6
428.861	1	-1
430.055	1	1
431.250	1	4
432.444	1	3
433.638	1	7
434.832	1	9
436.026	1	4
437.220	1	0
438.414	1	-7
439.608	1	-8
440.802	1	4
441.996	1	2
443.190	1	8
444.384	1	6
445.578	1	9
446.771	1	-1
447.965	1	1
449.159	1	3
450.352	1	-3
451.546	1	-2
452.739	1	4
453.933	1	3
455.126	1	9
456.320	1	-6
457.513	1	15
458.706	1	-2
459.899	1	-9
461.093	1	11
462.286	1	-11
463.479	1	1
464.672	1	0
465.865	1	10
467.058	1	0
468.251	1	3
469.444	1	-6
470.637	1	-3
471.830	1	1
473.023	1	1
474.215	1	-7
475.408	1	-8
476.601	1	8
477.793	1	5
478.986	1	-7
480.179	1	4
481.371	1	-2
482.564	1	3
483.756	1	7
484.948	1	-3
486.141	1	3
487.333	1	0
488.525	1	1
489.718	1	2
490.910	1	-1
492.102	1	8
493.294	1	0
494.486	1	14
495.678	1	-1
496.870	1	-6
498.062	1	3
499.254	1	-1
500.446	1	-1
501.638	1	-1
502.829	1	4
504.021	1	10
505.213	1	-5
506.404	1	-3
507.596	1	15
508.788	1	-7
509.979	1	13
511.171	1	7
512.362	1	2
513.553	1	-8
514.745	1	0
515.936	1	5
517.127	1	12
518.319	1	5
519.510	1	0
520.701	1	6
521.892	1	7
523.083	1	6
524.274	1	7
525.465	1	3
526.656	1	13
527.847	1	10
529.038	1	9
530.229	1	16
531.419	1	11
532.610	1	7
533.801	1	6
534.991	1	2
536.182	1	2
537.373	1	8
538.563	1	2
539.754	1	7
540.944	1	7
542.134	1	1
543.325	1	9
544.515	1	3
545.705	1	12
546.896	1	3
548.086	1	12
549.276	1	-3
550.466	1	1
551.656	1	-4
552.846	1	8
554.036	1	1
555.226	1	-5
556.416	1	2
557.606	1	9
558.796	1	0
559.986	1	10
561.175	1	0
562.365	1	3
563.555	1	5
564.744	1	1
565.934	1	11
567.123	1	2
568.313	1	9
569.502	1	7
570.692	1	8
571.881	1	-10
573.070	1	3
574.260	1	4
575.449	1	3
576.638	1	12
577.827	1	1
579.016	1	1
580.205	1	0
581.394	1	-2
582.583	1	0
583.772	1	-2
584.961	1	9
586.150	1	-7
587.339	1	-1
588.528	1	-2
589.717	1	8
590.905	1	7
592.094	1	12
593.283	1	7
594.471	1	8
595.660	1	10
596.848	1	-5
598.037	1	3
599.225	1	2
600.413	1	-8
601.602	1	-3
602.790	1	5
603.978	1	11
605.166	1	11
606.355	1	1
607.543	1	11
608.731	1	3
609.919	1	-2
611.107	1	8
612.295	1	-3
613.483	1	3
614.671	1	5
615.858	1	-3
617.046	1	0
618.234	1	2
619.422	1	-4
620.609	1	0
621.797	1	-1
622.985	1	7
624.172	1	-9
625.360	1	9
626.547	1	-6
627.735	1	-3
628.922	1	-10
630.109	1	-4
631.297	1	-4
632.484	1	-3
633.671	1	10
634.858	1	4
636.045	1	5
637.232	1	1
638.419	1	0
639.606	1	-8
640.793	1	-5
641.980	1	5
643.167	1	1
644.354	1	6
645.541	1	2
646.728	1	2
647.914	1	2
649.101	1	3
650.288	1	3
651.474	1	11
652.661	1	3
653.847	1	1
655.034	1	8
656.220	1	3
657.406	1	0
658.593	1	6
659.779	1	5
660.965	1	14
662.152	1	2
663.338	1	6
664.524	1	6
665.710	1	1
666.896	1	1
668.082	1	11
669.268	1	-5
670.454	1	-13
671.640	1	-2
672.826	1	0
674.011	1	13
675.197	1	6
676.383	1	4
677.569	1	-1
678.754	1	3
679.940	1	10
681.125	1	7
682.311	1	3
683.496	1	10
684.682	1	4
685.867	1	10
687.053	1	-6
688.238	1	-3
688.746	1	-4

File: GaN_sample D_spot 18_UVVIS_170 K_200um_550 ms 2x2mm1_179.txt
340.368	1	0
341.565	1	1
342.763	1	9
343.960	1	3
345.157	1	-1
346.354	1	-2
347.552	1	12
348.749	1	0
349.946	1	11
351.143	1	6
352.340	1	11
353.537	1	3
354.734	1	-1
355.931	1	-9
357.127	1	4
358.324	1	21
359.521	1	9
360.718	1	11
361.914	1	15
363.111	1	14
364.308	1	21
365.504	1	12
366.701	1	17
367.897	1	27
369.093	1	9
370.290	1	9
371.486	1	14
372.682	1	24
373.879	1	21
375.075	1	19
376.271	1	22
377.467	1	11
378.663	1	13
379.859	1	11
381.055	1	7
382.251	1	11
383.447	1	14
384.643	1	10
385.839	1	0
387.035	1	4
388.230	1	5
389.426	1	4
390.622	1	4
391.817	1	4
393.013	1	9
394.208	1	4
395.404	1	14
396.599	1	2
397.795	1	2
398.990	1	-14
400.186	1	0
401.381	1	6
402.576	1	7
403.771	1	-2
404.967	1	3
406.162	1	1
407.357	1	-1
408.552	1	1
409.747	1	-5
410.942	1	9
412.137	1	-13
413.332	1	-4
414.526	1	5
415.721	1	3
416.916	1	-7
418.111	1	10
419.305	1	4
420.500	1	4
421.695	1	-5
422.889	1	-8
424.084	1	10
425.278	1	-9
426.472	1	-2
427.667	1	1
428.861	1	2
430.055	1	6
431.250	1	14
432.444	1	1
433.638	1	5
434.832	1	8
436.026	1	4
437.220	1	-2
438.414	1	-6
439.608	1	-1
440.802	1	1
441.996	1	4
443.190	1	7
444.384	1	-6
445.578	1	11
446.771	1	-13
447.965	1	-3
449.159	1	-2
450.352	1	0
451.546	1	-6
452.739	1	-3
453.933	1	4
455.126	1	11
456.320	1	7
457.513	1	8
458.706	1	9
459.899	1	7
461.093	1	11
462.286	1	-2
463.479	1	10
464.672	1	-7
465.865	1	6
467.058	1	3
468.251	1	2
469.444	1	0
470.637	1	3
471.830	1	-3
473.023	1	2
474.215	1	7
475.408	1	-4
476.601	1	1
477.793	1	12
478.986	1	0
480.179	1	-4
481.371	1	-3
482.564	1	-3
483.756	1	7
484.948	1	5
486.141	1	6
487.333	1	-3
488.525	1	4
489.718	1	8
490.910	1	-6
492.102	1	9
493.294	1	-7
494.486	1	5
495.678	1	14
496.870	1	4
498.062	1	-3
499.254	1	13
500.446	1	2
501.638	1	3
502.829	1	0
504.021	1	7
505.213	1	-4
506.404	1	-5
507.596	1	7
508.788	1	-6
509.979	1	7
511.171	1	6
512.362	1	-10
513.553	1	7
514.745	1	5
515.936	1	0
517.127	1	5
518.319	1	12
519.510	1	-1
520.701	1	13
521.892	1	0
523.083	1	2
524.274	1	0
525.465	1	3
526.656	1	15
527.847	1	4
529.038	1	2
530.229	1	22
531.419	1	10
532.610	1	14
533.801	1	10
534.991	1	-7
536.182	1	9
537.373	1	-9
538.563	1	0
539.754	1	-2
540.944	1	-4
542.134	1	6
543.325	1	7
544.515	1	8
545.705	1	3
546.896	1	3
548.086	1	4
549.276	1	5
550.466	1	2
551.656	1	0
552.846	1	-2
554.036	1	1
555.226	1	-8
556.416	1	3
557.606	1	2
558.796	1	4
559.986	1	2
561.175	1	-3
562.365	1	3
563.555	1	5
564.744	1	3
565.934	1	4
567.123	1	2
568.313	1	-7
569.502	1	7
570.692	1	5
571.881	1	-6
573.070	1	-1
574.260	1	6
575.449	1	-1
576.638	1	12
577.827	1	-4
579.016	1	5
580.205	1	-2
581.394	1	3
582.583	1	-3
583.772	1	-1
584.961	1	5
586.150	1	-3
587.339	1	0
588.528	1	8
589.717	1	3
590.905	1	12
592.094	1	9
593.283	1	8
594.471	1	4
595.660	1	1
596.848	1	-4
598.037	1	6
599.225	1	2
600.413	1	-12
601.602	1	3
602.790	1	6
603.978	1	9
605.166	1	5
606.355	1	-4
607.543	1	4
608.731	1	2
609.919	1	-4
611.107	1	3
612.295	1	-4
613.483	1	-1
614.671	1	11
615.858	1	3
617.046	1	5
618.234	1	-2
619.422	1	-3
620.609	1	5
621.797	1	-3
622.985	1	-2
624.172	1	2
625.360	1	-2
626.547	1	-6
627.735	1	-7
628.922	1	-3
630.109	1	-1
631.297	1	4
632.484	1	-2
633.671	1	13
634.858	1	-2
636.045	1	9
637.232	1	5
638.419	1	-5
639.606	1	-8
640.793	1	-7
641.980	1	-3
643.167	1	-7
644.354	1	1
645.541	1	8
646.728	1	3
647.914	1	-1
649.101	1	4
650.288	1	5
651.474	1	8
652.661	1	6
653.847	1	-3
655.034	1	-3
656.220	1	2
657.406	1	9
658.593	1	1
659.779	1	9
660.965	1	12
662.152	1	5
663.338	1	10
664.524	1	-5
665.710	1	3
666.896	1	-4
668.082	1	1
669.268	1	3
670.454	1	-5
671.640	1	1
672.826	1	-3
674.011	1	8
675.197	1	5
676.383	1	0
677.569	1	3
678.754	1	4
679.940	1	5
681.125	1	5
682.311	1	-2
683.496	1	8
684.682	1	4
685.867	1	8
687.053	1	-6
688.238	1	-2
688.746	1	-9

File: GaN_sample D_spot 18_UVVIS_170 K_200um_550 ms 2x2mm1_181.txt
340.368	1	1
341.565	1	2
342.763	1	7
343.960	1	1
345.157	1	4
346.354	1	0
347.552	1	6
348.749	1	5
349.946	1	10
351.143	1	1
352.340	1	6
353.537	1	11
354.734	1	-5
355.931	1	5
357.127	1	0
358.324	1	4
359.521	1	8
360.718	1	11
361.914	1	7
363.111	1	13
364.308	1	20
365.504	1	15
366.701	1	21
367.897	1	21
369.093	1	15
370.290	1	25
371.486	1	11
372.682	1	16
373.879	1	25
375.075	1	16
376.271	1	16
377.467	1	17
378.663	1	17
379.859	1	6
381.055	1	3
382.251	1	5
383.447	1	1
384.643	1	6
385.839	1	-2
387.035	1	8
388.230	1	-1
389.426	1	-2
390.622	1	9
391.817	1	2
393.013	1	-2
394.208	1	12
395.404	1	6
396.599	1	0
397.795	1	3
398.990	1	-1
400.186	1	-2
401.381	1	9
402.576	1	3
403.771	1	-4
404.967	1	13
406.162	1	15
407.357	1	1
408.552	1	5
409.747	1	-1
410.942	1	2
412.137	1	-5
413.332	1	-3
414.526	1	6
415.721	1	-3
416.916	1	-1
418.111	1	9
419.305	1	4
420.500	1	-3
421.695	1	-6
422.889	1	-7
424.084	1	9
425.278	1	-4
426.472	1	1
427.667	1	-1
428.861	1	-4
430.055	1	-10
431.250	1	16
432.444	1	-2
433.638	1	1
434.832	1	9
436.026	1	4
437.220	1	-2
438.414	1	-4
439.608	1	1
440.802	1	13
441.996	1	-4
443.190	1	0
444.384	1	-1
445.578	1	8
446.771	1	-8
447.965	1	-4
449.159	1	-4
450.352	1	-4
451.546	1	-5
452.739	1	6
453.933	1	-1
455.126	1	7
456.320	1	8
457.513	1	2
458.706	1	9
459.899	1	0
461.093	1	-1
462.286	1	-7
463.479	1	-5
464.672	1	-3
465.865	1	3
467.058	1	1
468.251	1	-5
469.444	1	1
470.637	1	1
471.830	1	-8
473.023	1	4
474.215	1	9
475.408	1	-4
476.601	1	-6
477.793	1	10
478.986	1	7
480.179	1	-5
481.371	1	3
482.564	1	2
483.756	1	7
484.948	1	7
486.141	1	9
487.333	1	3
488.525	1	5
489.718	1	3
490.910	1	-2
492.102	1	8
493.294	1	4
494.486	1	6
495.678	1	5
496.870	1	6
498.062	1	-6
499.254	1	9
500.446	1	3
501.638	1	-6
502.829	1	7
504.021	1	4
505.213	1	8
506.404	1	9
507.596	1	1
508.788	1	3
509.979	1	3
511.171	1	3
512.362	1	5
513.553	1	12
514.745	1	5
515.936	1	-2
517.127	1	-2
518.319	1	7
519.510	1	5
520.701	1	1
521.892	1	2
523.083	1	-2
524.274	1	3
525.465	1	0
526.656	1	13
527.847	1	-1
529.038	1	1
530.229	1	12
531.419	1	10
532.610	1	1
533.801	1	6
534.991	1	5
536.182	1	0
537.373	1	1
538.563	1	8
539.754	1	0
540.944	1	-7
542.134	1	-3
543.325	1	7
544.515	1	3
545.705	1	13
546.896	1	4
548.086	1	13
549.276	1	6
550.466	1	11
551.656	1	18
552.846	1	-5
554.036	1	-1
555.226	1	0
556.416	1	3
557.606	1	9
558.796	1	-5
559.986	1	8
561.175	1	-6
562.365	1	4
563.555	1	0
564.744	1	0
565.934	1	11
567.123	1	6
568.313	1	0
569.502	1	3
570.692	1	4
571.881	1	2
573.070	1	0
574.260	1	4
575.449	1	8
576.638	1	11
577.827	1	-4
579.016	1	7
580.205	1	-5
581.394	1	8
582.583	1	6
583.772	1	-6
584.961	1	-2
586.150	1	-1
587.339	1	-1
588.528	1	-1
589.717	1	11
590.905	1	8
592.094	1	10
593.283	1	2
594.471	1	11
595.660	1	8
596.848	1	4
598.037	1	8
599.225	1	4
600.413	1	1
601.602	1	8
602.790	1	8
603.978	1	16
605.166	1	2
606.355	1	3
607.543	1	5
608.731	1	1
609.919	1	0
611.107	1	-1
612.295	1	-3
613.483	1	-1
614.671	1	14
615.858	1	8
617.046	1	-8
618.234	1	4
619.422	1	1
620.609	1	8
621.797	1	-5
622.985	1	1
624.172	1	11
625.360	1	6
626.547	1	-10
627.735	1	-6
628.922	1	-6
630.109	1	10
631.297	1	-3
632.484	1	5
633.671	1	7
634.858	1	3
636.045	1	5
637.232	1	2
638.419	1	-6
639.606	1	-2
640.793	1	-6
641.980	1	-5
643.167	1	-2
644.354	1	7
645.541	1	6
646.728	1	6
647.914	1	-4
649.101	1	-2
650.288	1	11
651.474	1	6
652.661	1	3
653.847	1	9
655.034	1	2
656.220	1	-2
657.406	1	-1
658.593	1	-6
659.779	1	3
660.965	1	10
662.152	1	-3
663.338	1	9
664.524	1	-5
665.710	1	2
666.896	1	5
668.082	1	2
669.268	1	0
670.454	1	-11
671.640	1	8
672.826	1	2
674.011	1	0
675.197	1	4
676.383	1	3
677.569	1	-1
678.754	1	0
679.940	1	4
681.125	1	7
682.311	1	4
683.496	1	8
684.682	1	3
685.867	1	4
687.053	1	-3
688.238	1	-1
688.746	1	-1

File: GaN_sample D_spot 18_UVVIS_170 K_200um_550 ms 2x2mm1_182.txt
340.368	1	-13
341.565	1	0
342.763	1	3
343.960	1	-4
345.157	1	3
346.354	1	3
347.552	1	14
348.749	1	10
349.946	1	-2
351.143	1	3
352.340	1	1
353.537	1	4
354.734	1	4
355.931	1	-1
357.127	1	3
358.324	1	1
359.521	1	8
360.718	1	11
361.914	1	14
363.111	1	19
364.308	1	20
365.504	1	17
366.701	1	23
367.897	1	16
369.093	1	15
370.290	1	18
371.486	1	15
372.682	1	17
373.879	1	18
375.075	1	11
376.271	1	11
377.467	1	10
378.663	1	14
379.859	1	6
381.055	1	7
382.251	1	10
383.447	1	3
384.643	1	7
385.839	1	0
387.035	1	3
388.230	1	1
389.426	1	14
390.622	1	8
391.817	1	1
393.013	1	4
394.208	1	12
395.404	1	2
396.599	1	1
397.795	1	0
398.990	1	-7
400.186	1	0
401.381	1	13
402.576	1	-2
403.771	1	7
404.967	1	-4
406.162	1	8
407.357	1	2
408.552	1	2
409.747	1	10
410.942	1	3
412.137	1	-7
413.332	1	3
414.526	1	5
415.721	1	4
416.916	1	-2
418.111	1	1
419.305	1	-2
420.500	1	5
421.695	1	-8
422.889	1	0
424.084	1	16
425.278	1	2
426.472	1	-10
427.667	1	1
428.861	1	6
430.055	1	2
431.250	1	21
432.444	1	11
433.638	1	10
434.832	1	7
436.026	1	5
437.220	1	5
438.414	1	-9
439.608	1	6
440.802	1	2
441.996	1	8
443.190	1	-2
444.384	1	1
445.578	1	11
446.771	1	-3
447.965	1	-1
449.159	1	2
450.352	1	-3
451.546	1	-7
452.739	1	6
453.933	1	4
455.126	1	14
456.320	1	0
457.513	1	4
458.706	1	2
459.899	1	3
461.093	1	8
462.286	1	1
463.479	1	-9
464.672	1	-4
465.865	1	5
467.058	1	3
468.251	1	-4
469.444	1	4
470.637	1	5
471.830	1	-4
473.023	1	3
474.215	1	3
475.408	1	-4
476.601	1	1
477.793	1	8
478.986	1	-3
480.179	1	-7
481.371	1	0
482.564	1	-5
483.756	1	6
484.948	1	8
486.141	1	-1
487.333	1	-1
488.525	1	8
489.718	1	15
490.910	1	-9
492.102	1	-4
493.294	1	3
494.486	1	12
495.678	1	2
496.870	1	5
498.062	1	3
499.254	1	7
500.446	1	4
501.638	1	-6
502.829	1	2
504.021	1	2
505.213	1	-14
506.404	1	3
507.596	1	12
508.788	1	0
509.979	1	0
511.171	1	18
512.362	1	6
513.553	1	3
514.745	1	-3
515.936	1	4
517.127	1	5
518.319	1	16
519.510	1	11
520.701	1	2
521.892	1	8
523.083	1	1
524.274	1	7
525.465	1	8
526.656	1	9
527.847	1	4
529.038	1	1
530.229	1	10
531.419	1	13
532.610	1	11
533.801	1	1
534.991	1	-1
536.182	1	1
537.373	1	-5
538.563	1	3
539.754	1	6
540.944	1	7
542.134	1	3
543.325	1	4
544.515	1	3
545.705	1	8
546.896	1	6
548.086	1	11
549.276	1	6
550.466	1	0
551.656	1	14
552.846	1	7
554.036	1	5
555.226	1	-8
556.416	1	5
557.606	1	0
558.796	1	3
559.986	1	8
561.175	1	0
562.365	1	5
563.555	1	5
564.744	1	2
565.934	1	-1
567.123	1	2
568.313	1	-1
569.502	1	-5
570.692	1	9
571.881	1	-6
573.070	1	-2
574.260	1	13
575.449	1	5
576.638	1	4
577.827	1	1
579.016	1	2
580.205	1	-8
581.394	1	4
582.583	1	1
583.772	1	5
584.961	1	2
586.150	1	-3
587.339	1	6
588.528	1	-3
589.717	1	0
590.905	1	9
592.094	1	7
593.283	1	2
594.471	1	15
595.660	1	2
596.848	1	10
598.037	1	-2
599.225	1	6
600.413	1	-2
601.602	1	3
602.790	1	6
603.978	1	1
605.166	1	3
606.355	1	3
607.543	1	11
608.731	1	0
609.919	1	7
611.107	1	-8
612.295	1	3
613.483	1	2
614.671	1	10
615.858	1	-3
617.046	1	-3
618.234	1	2
619.422	1	-2
620.609	1	1
621.797	1	1
622.985	1	-3
624.172	1	4
625.360	1	3
626.547	1	-4
627.735	1	-6
628.922	1	-7
630.109	1	5
631.297	1	-4
632.484	1	-1
633.671	1	7
634.858	1	9
636.045	1	8
637.232	1	6
638.419	1	-13
639.606	1	-5
640.793	1	-4
641.980	1	-1
643.167	1	-10
644.354	1	-1
645.541	1	3
646.728	1	9
647.914	1	3
649.101	1	-2
650.288	1	3
651.474	1	13
652.661	1	8
653.847	1	0
655.034	1	-3
656.220	1	-10
657.406	1	-3
658.593	1	8
659.779	1	6
660.965	1	13
662.152	1	3
663.338	1	0
664.524	1	6
665.710	1	-5
666.896	1	-1
668.082	1	12
669.268	1	-2
670.454	1	-9
671.640	1	4
672.826	1	4
674.011	1	10
675.197	1	11
676.383	1	2
677.569	1	-9
678.754	1	7
679.940	1	2
681.125	1	1
682.311	1	-8
683.496	1	8
684.682	1	5
685.867	1	16
687.053	1	-3
688.238	1	-4
688.746	1	-1

File: GaN_sample D_spot 18_UVVIS_170 K_200um_550 ms 2x2mm1_185.txt
340.368	1	5
341.565	1	3
342.763	1	5
343.960	1	0
345.157	1	-2
346.354	1	-8
347.552	1	11
348.749	1	8
349.946	1	11
351.143	1	2
352.340	1	8
353.537	1	4
354.734	1	8
355.931	1	-1
357.127	1	-4
358.324	1	16
359.521	1	6
360.718	1	8
361.914	1	1
363.111	1	21
364.308	1	23
365.504	1	17
366.701	1	8
367.897	1	18
369.093	1	9
370.290	1	10
371.486	1	8
372.682	1	16
373.879	1	16
375.075	1	12
376.271	1	10
377.467	1	17
378.663	1	14
379.859	1	6
381.055	1	4
382.251	1	3
383.447	1	6
384.643	1	8
385.839	1	-8
387.035	1	7
388.230	1	3
389.426	1	6
390.622	1	6
391.817	1	5
393.013	1	0
394.208	1	10
395.404	1	8
396.599	1	-7
397.795	1	0
398.990	1	-3
400.186	1	2
401.381	1	8
402.576	1	1
403.771	1	3
404.967	1	3
406.162	1	10
407.357	1	3
408.552	1	-1
409.747	1	7
410.942	1	3
412.137	1	-9
413.332	1	-8
414.526	1	8
415.721	1	-3
416.916	1	-3
418.111	1	12
419.305	1	3
420.500	1	-1
421.695	1	-1
422.889	1	-6
424.084	1	17
425.278	1	-5
426.472	1	1
427.667	1	0
428.861	1	-2
430.055	1	2
431.250	1	13
432.444	1	9
433.638	1	6
434.832	1	12
436.026	1	-8
437.220	1	6
438.414	1	-3
439.608	1	-1
440.802	1	9
441.996	1	-4
443.190	1	1
444.384	1	-1
445.578	1	7
446.771	1	-15
447.965	1	5
449.159	1	2
450.352	1	4
451.546	1	-3
452.739	1	5
453.933	1	-4
455.126	1	15
456.320	1	-6
457.513	1	6
458.706	1	18
459.899	1	3
461.093	1	5
462.286	1	3
463.479	1	0
464.672	1	7
465.865	1	3
467.058	1	1
468.251	1	2
469.444	1	-3
470.637	1	-1
471.830	1	3
473.023	1	1
474.215	1	1
475.408	1	-6
476.601	1	5
477.793	1	0
478.986	1	-6
480.179	1	-6
481.371	1	0
482.564	1	-7
483.756	1	5
484.948	1	-3
486.141	1	5
487.333	1	-8
488.525	1	3
489.718	1	6
490.910	1	-2
492.102	1	4
493.294	1	-6
494.486	1	11
495.678	1	8
496.870	1	1
498.062	1	0
499.254	1	9
500.446	1	-1
501.638	1	2
502.829	1	6
504.021	1	6
505.213	1	-4
506.404	1	3
507.596	1	5
508.788	1	0
509.979	1	9
511.171	1	2
512.362	1	2
513.553	1	4
514.745	1	-4
515.936	1	0
517.127	1	4
518.319	1	7
519.510	1	5
520.701	1	11
521.892	1	6
523.083	1	3
524.274	1	1
525.465	1	1
526.656	1	15
527.847	1	7
529.038	1	5
530.229	1	18
531.419	1	9
532.610	1	10
533.801	1	8
534.991	1	7
536.182	1	5
537.373	1	-3
538.563	1	0
539.754	1	8
540.944	1	-7
542.134	1	8
543.325	1	13
544.515	1	1
545.705	1	4
546.896	1	8
548.086	1	3
549.276	1	0
550.466	1	11
551.656	1	7
552.846	1	-3
554.036	1	5
555.226	1	-11
556.416	1	3
557.606	1	10
558.796	1	-7
559.986	1	6
561.175	1	2
562.365	1	10
563.555	1	1
564.744	1	1
565.934	1	13
567.123	1	0
568.313	1	-3
569.502	1	3
570.692	1	4
571.881	1	-4
573.070	1	3
574.260	1	11
575.449	1	7
576.638	1	9
577.827	1	3
579.016	1	6
580.205	1	-1
581.394	1	9
582.583	1	1
583.772	1	-2
584.961	1	-4
586.150	1	-7
587.339	1	1
588.528	1	1
589.717	1	4
590.905	1	5
592.094	1	6
593.283	1	8
594.471	1	9
595.660	1	4
596.848	1	-5
598.037	1	-6
599.225	1	5
600.413	1	-3
601.602	1	4
602.790	1	9
603.978	1	4
605.166	1	6
606.355	1	7
607.543	1	-5
608.731	1	-2
609.919	1	-6
611.107	1	-3
612.295	1	3
613.483	1	1
614.671	1	14
615.858	1	-5
617.046	1	-2
618.234	1	-2
619.422	1	-12
620.609	1	4
621.797	1	3
622.985	1	10
624.172	1	-1
625.360	1	1
626.547	1	-12
627.735	1	-7
628.922	1	2
630.109	1	-2
631.297	1	2
632.484	1	-3
633.671	1	5
634.858	1	2
636.045	1	2
637.232	1	0
638.419	1	-2
639.606	1	-2
640.793	1	-6
641.980	1	0
643.167	1	3
644.354	1	4
645.541	1	2
646.728	1	2
647.914	1	3
649.101	1	0
650.288	1	7
651.474	1	8
652.661	1	0
653.847	1	3
655.034	1	2
656.220	1	4
657.406	1	7
658.593	1	0
659.779	1	1
660.965	1	13
662.152	1	-3
663.338	1	8
664.524	1	1
665.710	1	7
666.896	1	3
668.082	1	9
669.268	1	1
670.454	1	-1
671.640	1	4
672.826	1	-2
674.011	1	3
675.197	1	6
676.383	1	5
677.569	1	-16
678.754	1	3
679.940	1	7
681.125	1	5
682.311	1	0
683.496	1	7
684.682	1	2
685.867	1	2
687.053	1	3
688.238	1	-4
688.746	1	-3