Folder: cryo-il_analysis/Data/GaN_170K_550ms (part 27)

File: GaN_sample D_spot 18_UVVIS_170 K_200um_550 ms 2x2mm1_325.txt
340.368	1	10
341.565	1	2
342.763	1	-4
343.960	1	7
345.157	1	0
346.354	1	4
347.552	1	1
348.749	1	6
349.946	1	9
351.143	1	-7
352.340	1	4
353.537	1	8
354.734	1	5
355.931	1	3
357.127	1	2
358.324	1	7
359.521	1	7
360.718	1	1
361.914	1	9
363.111	1	4
364.308	1	10
365.504	1	1
366.701	1	-2
367.897	1	10
369.093	1	-9
370.290	1	1
371.486	1	-2
372.682	1	11
373.879	1	6
375.075	1	1
376.271	1	11
377.467	1	3
378.663	1	1
379.859	1	-2
381.055	1	2
382.251	1	-3
383.447	1	3
384.643	1	-5
385.839	1	-4
387.035	1	1
388.230	1	3
389.426	1	3
390.622	1	0
391.817	1	7
393.013	1	-4
394.208	1	2
395.404	1	9
396.599	1	-7
397.795	1	-6
398.990	1	-4
400.186	1	-5
401.381	1	9
402.576	1	-6
403.771	1	-2
404.967	1	-4
406.162	1	2
407.357	1	0
408.552	1	-3
409.747	1	-1
410.942	1	0
412.137	1	-10
413.332	1	-3
414.526	1	5
415.721	1	-8
416.916	1	-3
418.111	1	5
419.305	1	-4
420.500	1	3
421.695	1	-8
422.889	1	-6
424.084	1	16
425.278	1	1
426.472	1	-4
427.667	1	2
428.861	1	6
430.055	1	1
431.250	1	10
432.444	1	7
433.638	1	5
434.832	1	-2
436.026	1	-8
437.220	1	-1
438.414	1	-6
439.608	1	-5
440.802	1	5
441.996	1	-2
443.190	1	0
444.384	1	-3
445.578	1	8
446.771	1	-17
447.965	1	0
449.159	1	7
450.352	1	-5
451.546	1	-4
452.739	1	5
453.933	1	-2
455.126	1	7
456.320	1	2
457.513	1	6
458.706	1	6
459.899	1	4
461.093	1	5
462.286	1	-7
463.479	1	-4
464.672	1	-6
465.865	1	4
467.058	1	0
468.251	1	4
469.444	1	-7
470.637	1	2
471.830	1	-7
473.023	1	9
474.215	1	-1
475.408	1	1
476.601	1	-4
477.793	1	1
478.986	1	4
480.179	1	-2
481.371	1	-4
482.564	1	-4
483.756	1	0
484.948	1	-7
486.141	1	9
487.333	1	-5
488.525	1	2
489.718	1	10
490.910	1	-8
492.102	1	2
493.294	1	-5
494.486	1	6
495.678	1	10
496.870	1	-5
498.062	1	3
499.254	1	8
500.446	1	-4
501.638	1	-12
502.829	1	0
504.021	1	6
505.213	1	6
506.404	1	6
507.596	1	-4
508.788	1	-13
509.979	1	2
511.171	1	1
512.362	1	1
513.553	1	-3
514.745	1	-7
515.936	1	2
517.127	1	4
518.319	1	3
519.510	1	6
520.701	1	-1
521.892	1	7
523.083	1	-3
524.274	1	3
525.465	1	4
526.656	1	4
527.847	1	-5
529.038	1	5
530.229	1	11
531.419	1	9
532.610	1	2
533.801	1	-2
534.991	1	-3
536.182	1	4
537.373	1	-5
538.563	1	-5
539.754	1	-1
540.944	1	1
542.134	1	-7
543.325	1	8
544.515	1	0
545.705	1	8
546.896	1	3
548.086	1	-2
549.276	1	8
550.466	1	1
551.656	1	2
552.846	1	4
554.036	1	-4
555.226	1	-6
556.416	1	-3
557.606	1	2
558.796	1	-2
559.986	1	6
561.175	1	-9
562.365	1	4
563.555	1	-4
564.744	1	-3
565.934	1	2
567.123	1	3
568.313	1	3
569.502	1	1
570.692	1	13
571.881	1	-16
573.070	1	0
574.260	1	12
575.449	1	7
576.638	1	9
577.827	1	-1
579.016	1	7
580.205	1	-11
581.394	1	4
582.583	1	-2
583.772	1	-1
584.961	1	-4
586.150	1	-7
587.339	1	2
588.528	1	2
589.717	1	4
590.905	1	4
592.094	1	3
593.283	1	2
594.471	1	12
595.660	1	2
596.848	1	-3
598.037	1	8
599.225	1	3
600.413	1	-14
601.602	1	8
602.790	1	3
603.978	1	7
605.166	1	5
606.355	1	5
607.543	1	7
608.731	1	7
609.919	1	-6
611.107	1	-5
612.295	1	-6
613.483	1	-10
614.671	1	6
615.858	1	4
617.046	1	-9
618.234	1	2
619.422	1	-7
620.609	1	-1
621.797	1	4
622.985	1	2
624.172	1	2
625.360	1	-8
626.547	1	1
627.735	1	-15
628.922	1	-8
630.109	1	2
631.297	1	-7
632.484	1	-6
633.671	1	7
634.858	1	0
636.045	1	5
637.232	1	0
638.419	1	-5
639.606	1	-2
640.793	1	-4
641.980	1	-3
643.167	1	-1
644.354	1	-2
645.541	1	-1
646.728	1	2
647.914	1	3
649.101	1	-1
650.288	1	-1
651.474	1	16
652.661	1	1
653.847	1	-2
655.034	1	-2
656.220	1	4
657.406	1	1
658.593	1	-1
659.779	1	1
660.965	1	7
662.152	1	3
663.338	1	5
664.524	1	1
665.710	1	0
666.896	1	1
668.082	1	5
669.268	1	-3
670.454	1	-6
671.640	1	5
672.826	1	3
674.011	1	10
675.197	1	5
676.383	1	0
677.569	1	-5
678.754	1	-1
679.940	1	15
681.125	1	4
682.311	1	-2
683.496	1	1
684.682	1	1
685.867	1	1
687.053	1	-7
688.238	1	-4
688.746	1	-3

File: GaN_sample D_spot 18_UVVIS_170 K_200um_550 ms 2x2mm1_327.txt
340.368	1	-3
341.565	1	9
342.763	1	3
343.960	1	-2
345.157	1	-1
346.354	1	-4
347.552	1	14
348.749	1	9
349.946	1	12
351.143	1	0
352.340	1	9
353.537	1	-9
354.734	1	0
355.931	1	-2
357.127	1	-10
358.324	1	6
359.521	1	4
360.718	1	5
361.914	1	5
363.111	1	9
364.308	1	2
365.504	1	4
366.701	1	1
367.897	1	4
369.093	1	1
370.290	1	9
371.486	1	-1
372.682	1	16
373.879	1	8
375.075	1	2
376.271	1	1
377.467	1	0
378.663	1	-2
379.859	1	12
381.055	1	7
382.251	1	1
383.447	1	2
384.643	1	0
385.839	1	-5
387.035	1	3
388.230	1	5
389.426	1	8
390.622	1	0
391.817	1	-2
393.013	1	4
394.208	1	9
395.404	1	6
396.599	1	-9
397.795	1	0
398.990	1	-2
400.186	1	3
401.381	1	6
402.576	1	9
403.771	1	1
404.967	1	-7
406.162	1	6
407.357	1	8
408.552	1	3
409.747	1	-1
410.942	1	5
412.137	1	-9
413.332	1	-6
414.526	1	-2
415.721	1	-4
416.916	1	1
418.111	1	2
419.305	1	1
420.500	1	-8
421.695	1	-6
422.889	1	0
424.084	1	11
425.278	1	1
426.472	1	2
427.667	1	1
428.861	1	-1
430.055	1	9
431.250	1	13
432.444	1	9
433.638	1	9
434.832	1	-2
436.026	1	0
437.220	1	4
438.414	1	-5
439.608	1	-11
440.802	1	-1
441.996	1	1
443.190	1	0
444.384	1	1
445.578	1	10
446.771	1	-9
447.965	1	-1
449.159	1	-1
450.352	1	-2
451.546	1	-7
452.739	1	-3
453.933	1	-1
455.126	1	8
456.320	1	1
457.513	1	7
458.706	1	5
459.899	1	1
461.093	1	0
462.286	1	1
463.479	1	-8
464.672	1	-5
465.865	1	7
467.058	1	2
468.251	1	6
469.444	1	-4
470.637	1	-2
471.830	1	-3
473.023	1	1
474.215	1	3
475.408	1	-5
476.601	1	-1
477.793	1	-2
478.986	1	-3
480.179	1	-2
481.371	1	1
482.564	1	-12
483.756	1	4
484.948	1	-9
486.141	1	6
487.333	1	-4
488.525	1	7
489.718	1	5
490.910	1	5
492.102	1	-2
493.294	1	2
494.486	1	7
495.678	1	7
496.870	1	-2
498.062	1	1
499.254	1	7
500.446	1	4
501.638	1	-15
502.829	1	-4
504.021	1	6
505.213	1	1
506.404	1	4
507.596	1	4
508.788	1	-4
509.979	1	5
511.171	1	4
512.362	1	-9
513.553	1	-3
514.745	1	-5
515.936	1	-3
517.127	1	3
518.319	1	2
519.510	1	5
520.701	1	6
521.892	1	3
523.083	1	2
524.274	1	-3
525.465	1	4
526.656	1	3
527.847	1	-2
529.038	1	-2
530.229	1	9
531.419	1	2
532.610	1	1
533.801	1	7
534.991	1	-3
536.182	1	3
537.373	1	-1
538.563	1	6
539.754	1	1
540.944	1	-3
542.134	1	1
543.325	1	4
544.515	1	-5
545.705	1	-3
546.896	1	4
548.086	1	-1
549.276	1	6
550.466	1	-3
551.656	1	0
552.846	1	-7
554.036	1	5
555.226	1	-1
556.416	1	3
557.606	1	-2
558.796	1	-3
559.986	1	2
561.175	1	-9
562.365	1	2
563.555	1	-3
564.744	1	6
565.934	1	5
567.123	1	-1
568.313	1	0
569.502	1	2
570.692	1	10
571.881	1	1
573.070	1	-2
574.260	1	2
575.449	1	0
576.638	1	8
577.827	1	1
579.016	1	7
580.205	1	0
581.394	1	9
582.583	1	6
583.772	1	-6
584.961	1	1
586.150	1	-7
587.339	1	2
588.528	1	-3
589.717	1	10
590.905	1	4
592.094	1	1
593.283	1	3
594.471	1	1
595.660	1	-3
596.848	1	-2
598.037	1	-4
599.225	1	-9
600.413	1	-1
601.602	1	16
602.790	1	7
603.978	1	5
605.166	1	11
606.355	1	3
607.543	1	9
608.731	1	4
609.919	1	-5
611.107	1	-7
612.295	1	-1
613.483	1	-11
614.671	1	11
615.858	1	0
617.046	1	-6
618.234	1	6
619.422	1	-6
620.609	1	4
621.797	1	8
622.985	1	1
624.172	1	0
625.360	1	-1
626.547	1	-7
627.735	1	-4
628.922	1	-10
630.109	1	-3
631.297	1	-6
632.484	1	-2
633.671	1	5
634.858	1	-2
636.045	1	-1
637.232	1	1
638.419	1	-7
639.606	1	-4
640.793	1	-4
641.980	1	-1
643.167	1	1
644.354	1	7
645.541	1	0
646.728	1	6
647.914	1	-3
649.101	1	2
650.288	1	-1
651.474	1	8
652.661	1	5
653.847	1	-3
655.034	1	4
656.220	1	-5
657.406	1	-3
658.593	1	-3
659.779	1	-5
660.965	1	16
662.152	1	-6
663.338	1	10
664.524	1	-1
665.710	1	8
666.896	1	-1
668.082	1	8
669.268	1	2
670.454	1	-4
671.640	1	6
672.826	1	-5
674.011	1	3
675.197	1	-2
676.383	1	-3
677.569	1	-1
678.754	1	2
679.940	1	3
681.125	1	3
682.311	1	5
683.496	1	10
684.682	1	8
685.867	1	6
687.053	1	-5
688.238	1	-5
688.746	1	-7

File: GaN_sample D_spot 18_UVVIS_170 K_200um_550 ms 2x2mm1_332.txt
340.368	1	2
341.565	1	2
342.763	1	-10
343.960	1	1
345.157	1	-3
346.354	1	-11
347.552	1	2
348.749	1	7
349.946	1	4
351.143	1	-1
352.340	1	5
353.537	1	3
354.734	1	5
355.931	1	-7
357.127	1	-6
358.324	1	9
359.521	1	3
360.718	1	-1
361.914	1	4
363.111	1	12
364.308	1	7
365.504	1	1
366.701	1	5
367.897	1	4
369.093	1	-5
370.290	1	7
371.486	1	-3
372.682	1	4
373.879	1	5
375.075	1	3
376.271	1	10
377.467	1	-4
378.663	1	1
379.859	1	9
381.055	1	-3
382.251	1	-1
383.447	1	20
384.643	1	-1
385.839	1	1
387.035	1	5
388.230	1	-6
389.426	1	6
390.622	1	2
391.817	1	5
393.013	1	-1
394.208	1	9
395.404	1	5
396.599	1	-4
397.795	1	-3
398.990	1	-11
400.186	1	-9
401.381	1	16
402.576	1	0
403.771	1	4
404.967	1	1
406.162	1	7
407.357	1	2
408.552	1	-5
409.747	1	0
410.942	1	-3
412.137	1	2
413.332	1	-8
414.526	1	8
415.721	1	3
416.916	1	-1
418.111	1	4
419.305	1	5
420.500	1	1
421.695	1	-5
422.889	1	-5
424.084	1	15
425.278	1	2
426.472	1	6
427.667	1	7
428.861	1	13
430.055	1	-2
431.250	1	5
432.444	1	-2
433.638	1	11
434.832	1	7
436.026	1	-3
437.220	1	5
438.414	1	-5
439.608	1	-4
440.802	1	9
441.996	1	4
443.190	1	0
444.384	1	-5
445.578	1	2
446.771	1	-8
447.965	1	-5
449.159	1	2
450.352	1	1
451.546	1	-4
452.739	1	6
453.933	1	4
455.126	1	3
456.320	1	1
457.513	1	1
458.706	1	3
459.899	1	-6
461.093	1	9
462.286	1	-4
463.479	1	-4
464.672	1	-9
465.865	1	7
467.058	1	6
468.251	1	4
469.444	1	3
470.637	1	-4
471.830	1	-9
473.023	1	5
474.215	1	-1
475.408	1	-5
476.601	1	2
477.793	1	6
478.986	1	-1
480.179	1	-2
481.371	1	4
482.564	1	-7
483.756	1	5
484.948	1	1
486.141	1	18
487.333	1	2
488.525	1	1
489.718	1	-3
490.910	1	-3
492.102	1	7
493.294	1	-7
494.486	1	0
495.678	1	2
496.870	1	3
498.062	1	0
499.254	1	4
500.446	1	-1
501.638	1	0
502.829	1	4
504.021	1	2
505.213	1	-6
506.404	1	-1
507.596	1	13
508.788	1	-9
509.979	1	-3
511.171	1	8
512.362	1	-14
513.553	1	-6
514.745	1	-6
515.936	1	3
517.127	1	4
518.319	1	2
519.510	1	8
520.701	1	6
521.892	1	-3
523.083	1	2
524.274	1	-2
525.465	1	-8
526.656	1	10
527.847	1	-8
529.038	1	-1
530.229	1	2
531.419	1	2
532.610	1	0
533.801	1	7
534.991	1	-4
536.182	1	5
537.373	1	-9
538.563	1	8
539.754	1	2
540.944	1	2
542.134	1	-4
543.325	1	-7
544.515	1	-2
545.705	1	6
546.896	1	1
548.086	1	8
549.276	1	1
550.466	1	2
551.656	1	-3
552.846	1	5
554.036	1	-1
555.226	1	-6
556.416	1	-1
557.606	1	13
558.796	1	0
559.986	1	7
561.175	1	-3
562.365	1	1
563.555	1	-1
564.744	1	6
565.934	1	7
567.123	1	-1
568.313	1	3
569.502	1	4
570.692	1	19
571.881	1	0
573.070	1	-2
574.260	1	-6
575.449	1	7
576.638	1	2
577.827	1	-3
579.016	1	6
580.205	1	6
581.394	1	4
582.583	1	-6
583.772	1	1
584.961	1	2
586.150	1	-1
587.339	1	-1
588.528	1	-2
589.717	1	2
590.905	1	11
592.094	1	6
593.283	1	-8
594.471	1	8
595.660	1	0
596.848	1	3
598.037	1	8
599.225	1	3
600.413	1	-4
601.602	1	-3
602.790	1	10
603.978	1	0
605.166	1	10
606.355	1	7
607.543	1	1
608.731	1	6
609.919	1	1
611.107	1	-2
612.295	1	3
613.483	1	-2
614.671	1	6
615.858	1	-4
617.046	1	-9
618.234	1	-5
619.422	1	0
620.609	1	-1
621.797	1	1
622.985	1	6
624.172	1	-4
625.360	1	1
626.547	1	-8
627.735	1	-10
628.922	1	-6
630.109	1	2
631.297	1	-4
632.484	1	-9
633.671	1	14
634.858	1	-4
636.045	1	3
637.232	1	8
638.419	1	-1
639.606	1	-8
640.793	1	0
641.980	1	4
643.167	1	-6
644.354	1	5
645.541	1	9
646.728	1	7
647.914	1	-2
649.101	1	0
650.288	1	3
651.474	1	1
652.661	1	4
653.847	1	3
655.034	1	-3
656.220	1	0
657.406	1	-1
658.593	1	0
659.779	1	-3
660.965	1	4
662.152	1	6
663.338	1	1
664.524	1	10
665.710	1	3
666.896	1	-1
668.082	1	3
669.268	1	1
670.454	1	-7
671.640	1	2
672.826	1	-2
674.011	1	17
675.197	1	6
676.383	1	-7
677.569	1	-5
678.754	1	3
679.940	1	6
681.125	1	4
682.311	1	0
683.496	1	5
684.682	1	-5
685.867	1	9
687.053	1	-4
688.238	1	-6
688.746	1	-4

File: GaN_sample D_spot 18_UVVIS_170 K_200um_550 ms 2x2mm1_335.txt
340.368	1	-3
341.565	1	1
342.763	1	4
343.960	1	2
345.157	1	5
346.354	1	-7
347.552	1	9
348.749	1	2
349.946	1	4
351.143	1	2
352.340	1	8
353.537	1	4
354.734	1	3
355.931	1	-5
357.127	1	3
358.324	1	1
359.521	1	5
360.718	1	14
361.914	1	6
363.111	1	1
364.308	1	11
365.504	1	-3
366.701	1	6
367.897	1	-1
369.093	1	-8
370.290	1	5
371.486	1	3
372.682	1	4
373.879	1	8
375.075	1	4
376.271	1	15
377.467	1	8
378.663	1	4
379.859	1	4
381.055	1	-1
382.251	1	4
383.447	1	7
384.643	1	-7
385.839	1	-2
387.035	1	-1
388.230	1	-2
389.426	1	7
390.622	1	1
391.817	1	-2
393.013	1	-3
394.208	1	7
395.404	1	3
396.599	1	-9
397.795	1	-2
398.990	1	-13
400.186	1	-13
401.381	1	7
402.576	1	-4
403.771	1	4
404.967	1	1
406.162	1	6
407.357	1	-2
408.552	1	3
409.747	1	2
410.942	1	8
412.137	1	-7
413.332	1	-6
414.526	1	8
415.721	1	-3
416.916	1	-7
418.111	1	8
419.305	1	2
420.500	1	1
421.695	1	-14
422.889	1	5
424.084	1	10
425.278	1	0
426.472	1	-2
427.667	1	-4
428.861	1	0
430.055	1	0
431.250	1	9
432.444	1	3
433.638	1	1
434.832	1	3
436.026	1	-5
437.220	1	0
438.414	1	-13
439.608	1	-4
440.802	1	10
441.996	1	-9
443.190	1	4
444.384	1	-1
445.578	1	10
446.771	1	-14
447.965	1	0
449.159	1	0
450.352	1	-6
451.546	1	-4
452.739	1	2
453.933	1	-3
455.126	1	10
456.320	1	1
457.513	1	5
458.706	1	8
459.899	1	1
461.093	1	0
462.286	1	-4
463.479	1	0
464.672	1	2
465.865	1	0
467.058	1	1
468.251	1	0
469.444	1	2
470.637	1	3
471.830	1	-5
473.023	1	0
474.215	1	10
475.408	1	-2
476.601	1	1
477.793	1	2
478.986	1	-5
480.179	1	-3
481.371	1	0
482.564	1	-5
483.756	1	4
484.948	1	-1
486.141	1	4
487.333	1	-13
488.525	1	5
489.718	1	3
490.910	1	0
492.102	1	3
493.294	1	-4
494.486	1	9
495.678	1	-2
496.870	1	8
498.062	1	-10
499.254	1	4
500.446	1	-3
501.638	1	-6
502.829	1	-2
504.021	1	4
505.213	1	6
506.404	1	0
507.596	1	7
508.788	1	-6
509.979	1	6
511.171	1	-3
512.362	1	-8
513.553	1	3
514.745	1	5
515.936	1	4
517.127	1	6
518.319	1	5
519.510	1	2
520.701	1	-1
521.892	1	-3
523.083	1	-4
524.274	1	-12
525.465	1	4
526.656	1	4
527.847	1	1
529.038	1	0
530.229	1	16
531.419	1	11
532.610	1	8
533.801	1	3
534.991	1	-3
536.182	1	-4
537.373	1	-5
538.563	1	-2
539.754	1	8
540.944	1	5
542.134	1	5
543.325	1	-4
544.515	1	2
545.705	1	3
546.896	1	-3
548.086	1	5
549.276	1	3
550.466	1	-4
551.656	1	5
552.846	1	0
554.036	1	3
555.226	1	-7
556.416	1	-4
557.606	1	5
558.796	1	-5
559.986	1	9
561.175	1	-13
562.365	1	-4
563.555	1	2
564.744	1	-1
565.934	1	-1
567.123	1	2
568.313	1	0
569.502	1	-6
570.692	1	4
571.881	1	0
573.070	1	-5
574.260	1	0
575.449	1	4
576.638	1	-1
577.827	1	-9
579.016	1	4
580.205	1	0
581.394	1	-2
582.583	1	0
583.772	1	-3
584.961	1	8
586.150	1	-6
587.339	1	-1
588.528	1	-4
589.717	1	-3
590.905	1	6
592.094	1	4
593.283	1	2
594.471	1	6
595.660	1	6
596.848	1	5
598.037	1	0
599.225	1	0
600.413	1	-9
601.602	1	2
602.790	1	10
603.978	1	-2
605.166	1	9
606.355	1	1
607.543	1	0
608.731	1	-6
609.919	1	-6
611.107	1	-3
612.295	1	6
613.483	1	-2
614.671	1	11
615.858	1	1
617.046	1	-3
618.234	1	2
619.422	1	-10
620.609	1	1
621.797	1	3
622.985	1	4
624.172	1	-3
625.360	1	4
626.547	1	1
627.735	1	-13
628.922	1	-9
630.109	1	5
631.297	1	0
632.484	1	-1
633.671	1	3
634.858	1	3
636.045	1	9
637.232	1	5
638.419	1	-4
639.606	1	-7
640.793	1	-1
641.980	1	-5
643.167	1	-8
644.354	1	0
645.541	1	4
646.728	1	-5
647.914	1	-4
649.101	1	-2
650.288	1	-1
651.474	1	2
652.661	1	-2
653.847	1	-4
655.034	1	-5
656.220	1	2
657.406	1	1
658.593	1	3
659.779	1	0
660.965	1	15
662.152	1	10
663.338	1	2
664.524	1	6
665.710	1	6
666.896	1	1
668.082	1	7
669.268	1	4
670.454	1	-4
671.640	1	5
672.826	1	-2
674.011	1	-1
675.197	1	-1
676.383	1	7
677.569	1	-7
678.754	1	0
679.940	1	5
681.125	1	4
682.311	1	2
683.496	1	-5
684.682	1	1
685.867	1	4
687.053	1	-8
688.238	1	-2
688.746	1	-14

File: GaN_sample D_spot 18_UVVIS_170 K_200um_550 ms 2x2mm1_344.txt
340.368	1	4
341.565	1	8
342.763	1	4
343.960	1	5
345.157	1	-6
346.354	1	-11
347.552	1	16
348.749	1	11
349.946	1	8
351.143	1	-6
352.340	1	-2
353.537	1	0
354.734	1	6
355.931	1	-2
357.127	1	2
358.324	1	2
359.521	1	4
360.718	1	6
361.914	1	1
363.111	1	3
364.308	1	9
365.504	1	2
366.701	1	5
367.897	1	7
369.093	1	-10
370.290	1	1
371.486	1	0
372.682	1	12
373.879	1	-1
375.075	1	7
376.271	1	7
377.467	1	3
378.663	1	-3
379.859	1	5
381.055	1	8
382.251	1	0
383.447	1	-1
384.643	1	-4
385.839	1	-12
387.035	1	18
388.230	1	10
389.426	1	3
390.622	1	-3
391.817	1	0
393.013	1	3
394.208	1	1
395.404	1	11
396.599	1	-8
397.795	1	-1
398.990	1	-10
400.186	1	-13
401.381	1	11
402.576	1	-1
403.771	1	5
404.967	1	6
406.162	1	6
407.357	1	1
408.552	1	1
409.747	1	-6
410.942	1	-2
412.137	1	-9
413.332	1	-5
414.526	1	-6
415.721	1	2
416.916	1	-8
418.111	1	5
419.305	1	2
420.500	1	-3
421.695	1	-4
422.889	1	-1
424.084	1	8
425.278	1	4
426.472	1	4
427.667	1	4
428.861	1	9
430.055	1	-5
431.250	1	7
432.444	1	0
433.638	1	-3
434.832	1	9
436.026	1	-7
437.220	1	2
438.414	1	-9
439.608	1	0
440.802	1	7
441.996	1	0
443.190	1	-2
444.384	1	3
445.578	1	5
446.771	1	-5
447.965	1	-1
449.159	1	-4
450.352	1	-3
451.546	1	-4
452.739	1	-4
453.933	1	-6
455.126	1	10
456.320	1	1
457.513	1	7
458.706	1	-4
459.899	1	2
461.093	1	6
462.286	1	-10
463.479	1	2
464.672	1	-1
465.865	1	3
467.058	1	2
468.251	1	-4
469.444	1	4
470.637	1	0
471.830	1	5
473.023	1	-3
474.215	1	0
475.408	1	-1
476.601	1	-1
477.793	1	9
478.986	1	-3
480.179	1	-4
481.371	1	-1
482.564	1	-6
483.756	1	5
484.948	1	1
486.141	1	10
487.333	1	-8
488.525	1	-3
489.718	1	2
490.910	1	8
492.102	1	-1
493.294	1	-5
494.486	1	12
495.678	1	2
496.870	1	4
498.062	1	2
499.254	1	2
500.446	1	1
501.638	1	-8
502.829	1	-5
504.021	1	5
505.213	1	-2
506.404	1	-1
507.596	1	-7
508.788	1	-7
509.979	1	-3
511.171	1	8
512.362	1	3
513.553	1	0
514.745	1	2
515.936	1	0
517.127	1	-3
518.319	1	9
519.510	1	2
520.701	1	0
521.892	1	2
523.083	1	5
524.274	1	-2
525.465	1	3
526.656	1	2
527.847	1	2
529.038	1	3
530.229	1	9
531.419	1	1
532.610	1	3
533.801	1	-1
534.991	1	-5
536.182	1	1
537.373	1	-1
538.563	1	-1
539.754	1	-7
540.944	1	-10
542.134	1	3
543.325	1	3
544.515	1	-4
545.705	1	2
546.896	1	8
548.086	1	0
549.276	1	8
550.466	1	1
551.656	1	5
552.846	1	11
554.036	1	-8
555.226	1	-8
556.416	1	2
557.606	1	-2
558.796	1	3
559.986	1	1
561.175	1	-1
562.365	1	-4
563.555	1	4
564.744	1	-4
565.934	1	6
567.123	1	0
568.313	1	-2
569.502	1	0
570.692	1	6
571.881	1	-9
573.070	1	3
574.260	1	3
575.449	1	4
576.638	1	14
577.827	1	-2
579.016	1	0
580.205	1	-4
581.394	1	3
582.583	1	-4
583.772	1	5
584.961	1	3
586.150	1	-8
587.339	1	7
588.528	1	-2
589.717	1	8
590.905	1	6
592.094	1	10
593.283	1	7
594.471	1	8
595.660	1	4
596.848	1	0
598.037	1	-6
599.225	1	9
600.413	1	-11
601.602	1	2
602.790	1	7
603.978	1	6
605.166	1	-4
606.355	1	8
607.543	1	2
608.731	1	-1
609.919	1	-3
611.107	1	-2
612.295	1	6
613.483	1	-2
614.671	1	10
615.858	1	-4
617.046	1	-4
618.234	1	6
619.422	1	-10
620.609	1	-1
621.797	1	1
622.985	1	-3
624.172	1	3
625.360	1	2
626.547	1	-6
627.735	1	-6
628.922	1	-11
630.109	1	0
631.297	1	-6
632.484	1	-5
633.671	1	3
634.858	1	6
636.045	1	8
637.232	1	-6
638.419	1	-8
639.606	1	-1
640.793	1	-3
641.980	1	-2
643.167	1	-1
644.354	1	-2
645.541	1	6
646.728	1	-1
647.914	1	5
649.101	1	-7
650.288	1	-4
651.474	1	12
652.661	1	2
653.847	1	0
655.034	1	3
656.220	1	-1
657.406	1	-4
658.593	1	6
659.779	1	-2
660.965	1	14
662.152	1	-5
663.338	1	6
664.524	1	10
665.710	1	1
666.896	1	-3
668.082	1	7
669.268	1	0
670.454	1	-10
671.640	1	3
672.826	1	8
674.011	1	4
675.197	1	-4
676.383	1	5
677.569	1	-7
678.754	1	1
679.940	1	10
681.125	1	7
682.311	1	9
683.496	1	2
684.682	1	2
685.867	1	1
687.053	1	-8
688.238	1	-8
688.746	1	-5

File: GaN_sample D_spot 18_UVVIS_170 K_200um_550 ms 2x2mm1_345.txt
340.368	1	-5
341.565	1	-1
342.763	1	0
343.960	1	-5
345.157	1	-1
346.354	1	-11
347.552	1	1
348.749	1	3
349.946	1	13
351.143	1	0
352.340	1	-3
353.537	1	3
354.734	1	-8
355.931	1	4
357.127	1	0
358.324	1	-3
359.521	1	11
360.718	1	3
361.914	1	-2
363.111	1	8
364.308	1	5
365.504	1	1
366.701	1	6
367.897	1	0
369.093	1	0
370.290	1	7
371.486	1	-4
372.682	1	4
373.879	1	18
375.075	1	4
376.271	1	12
377.467	1	5
378.663	1	-2
379.859	1	2
381.055	1	5
382.251	1	-3
383.447	1	4
384.643	1	6
385.839	1	-2
387.035	1	-6
388.230	1	-3
389.426	1	1
390.622	1	-4
391.817	1	-4
393.013	1	7
394.208	1	8
395.404	1	4
396.599	1	0
397.795	1	-7
398.990	1	-2
400.186	1	-8
401.381	1	2
402.576	1	-1
403.771	1	1
404.967	1	8
406.162	1	6
407.357	1	-3
408.552	1	-4
409.747	1	-9
410.942	1	10
412.137	1	-9
413.332	1	-10
414.526	1	6
415.721	1	-2
416.916	1	-13
418.111	1	5
419.305	1	6
420.500	1	3
421.695	1	-14
422.889	1	-6
424.084	1	6
425.278	1	0
426.472	1	-11
427.667	1	4
428.861	1	5
430.055	1	-6
431.250	1	6
432.444	1	2
433.638	1	4
434.832	1	12
436.026	1	-1
437.220	1	2
438.414	1	-11
439.608	1	-11
440.802	1	10
441.996	1	-2
443.190	1	3
444.384	1	-4
445.578	1	9
446.771	1	-9
447.965	1	-9
449.159	1	-1
450.352	1	-1
451.546	1	-10
452.739	1	4
453.933	1	-1
455.126	1	6
456.320	1	-2
457.513	1	12
458.706	1	1
459.899	1	4
461.093	1	6
462.286	1	-7
463.479	1	4
464.672	1	0
465.865	1	-8
467.058	1	6
468.251	1	3
469.444	1	-7
470.637	1	-6
471.830	1	-7
473.023	1	5
474.215	1	0
475.408	1	3
476.601	1	-4
477.793	1	8
478.986	1	2
480.179	1	-7
481.371	1	5
482.564	1	2
483.756	1	6
484.948	1	0
486.141	1	4
487.333	1	-4
488.525	1	3
489.718	1	8
490.910	1	-3
492.102	1	-3
493.294	1	2
494.486	1	1
495.678	1	5
496.870	1	-1
498.062	1	1
499.254	1	7
500.446	1	6
501.638	1	-8
502.829	1	2
504.021	1	-1
505.213	1	-9
506.404	1	6
507.596	1	2
508.788	1	-3
509.979	1	4
511.171	1	5
512.362	1	-6
513.553	1	5
514.745	1	-4
515.936	1	-3
517.127	1	7
518.319	1	4
519.510	1	9
520.701	1	1
521.892	1	1
523.083	1	2
524.274	1	-2
525.465	1	-2
526.656	1	9
527.847	1	1
529.038	1	2
530.229	1	10
531.419	1	3
532.610	1	2
533.801	1	7
534.991	1	-1
536.182	1	-5
537.373	1	-2
538.563	1	5
539.754	1	-2
540.944	1	-7
542.134	1	-7
543.325	1	5
544.515	1	-3
545.705	1	7
546.896	1	5
548.086	1	12
549.276	1	-1
550.466	1	-5
551.656	1	-2
552.846	1	3
554.036	1	-1
555.226	1	-18
556.416	1	0
557.606	1	2
558.796	1	1
559.986	1	1
561.175	1	-16
562.365	1	3
563.555	1	-1
564.744	1	0
565.934	1	5
567.123	1	-1
568.313	1	-4
569.502	1	4
570.692	1	14
571.881	1	-1
573.070	1	6
574.260	1	3
575.449	1	6
576.638	1	5
577.827	1	-4
579.016	1	6
580.205	1	-3
581.394	1	-1
582.583	1	-8
583.772	1	-4
584.961	1	-2
586.150	1	-3
587.339	1	-2
588.528	1	1
589.717	1	3
590.905	1	1
592.094	1	-1
593.283	1	-3
594.471	1	7
595.660	1	-1
596.848	1	7
598.037	1	-1
599.225	1	3
600.413	1	-9
601.602	1	4
602.790	1	1
603.978	1	3
605.166	1	9
606.355	1	9
607.543	1	8
608.731	1	1
609.919	1	0
611.107	1	0
612.295	1	-2
613.483	1	2
614.671	1	-2
615.858	1	-6
617.046	1	-2
618.234	1	4
619.422	1	-10
620.609	1	8
621.797	1	4
622.985	1	10
624.172	1	4
625.360	1	4
626.547	1	-5
627.735	1	-11
628.922	1	-10
630.109	1	0
631.297	1	-6
632.484	1	6
633.671	1	1
634.858	1	1
636.045	1	10
637.232	1	5
638.419	1	-9
639.606	1	-9
640.793	1	-9
641.980	1	-12
643.167	1	-7
644.354	1	0
645.541	1	4
646.728	1	3
647.914	1	-6
649.101	1	1
650.288	1	7
651.474	1	4
652.661	1	0
653.847	1	-1
655.034	1	1
656.220	1	-3
657.406	1	0
658.593	1	-6
659.779	1	5
660.965	1	0
662.152	1	-1
663.338	1	4
664.524	1	-1
665.710	1	-2
666.896	1	11
668.082	1	6
669.268	1	-6
670.454	1	-6
671.640	1	0
672.826	1	-2
674.011	1	5
675.197	1	8
676.383	1	4
677.569	1	-3
678.754	1	-3
679.940	1	5
681.125	1	13
682.311	1	7
683.496	1	-2
684.682	1	-3
685.867	1	5
687.053	1	0
688.238	1	-8
688.746	1	-1