Folder: cryo-il_analysis/Data/GaN_170K_550ms

File: GaN_sample D_spot 18_UVVIS_170 K_200um_550 ms 2x2mm1_5.txt
340.368	1	-6
341.565	1	3
342.763	1	1
343.960	1	-6
345.157	1	-6
346.354	1	-7
347.552	1	10
348.749	1	3
349.946	1	5
351.143	1	-4
352.340	1	1
353.537	1	3
354.734	1	0
355.931	1	-6
357.127	1	-6
358.324	1	4
359.521	1	8
360.718	1	1
361.914	1	-3
363.111	1	7
364.308	1	0
365.504	1	-4
366.701	1	1
367.897	1	-9
369.093	1	-2
370.290	1	-2
371.486	1	-7
372.682	1	1
373.879	1	4
375.075	1	2
376.271	1	-3
377.467	1	12
378.663	1	-3
379.859	1	3
381.055	1	5
382.251	1	3
383.447	1	3
384.643	1	-6
385.839	1	-3
387.035	1	1
388.230	1	-1
389.426	1	-6
390.622	1	-1
391.817	1	-7
393.013	1	2
394.208	1	7
395.404	1	7
396.599	1	-5
397.795	1	-3
398.990	1	-7
400.186	1	-8
401.381	1	11
402.576	1	-1
403.771	1	2
404.967	1	0
406.162	1	9
407.357	1	-9
408.552	1	-1
409.747	1	-4
410.942	1	-2
412.137	1	-8
413.332	1	1
414.526	1	3
415.721	1	-9
416.916	1	-9
418.111	1	5
419.305	1	-2
420.500	1	4
421.695	1	5
422.889	1	2
424.084	1	12
425.278	1	1
426.472	1	3
427.667	1	6
428.861	1	5
430.055	1	-2
431.250	1	13
432.444	1	9
433.638	1	8
434.832	1	2
436.026	1	-3
437.220	1	6
438.414	1	-11
439.608	1	-8
440.802	1	8
441.996	1	-4
443.190	1	1
444.384	1	-5
445.578	1	2
446.771	1	-22
447.965	1	-1
449.159	1	-2
450.352	1	-5
451.546	1	-6
452.739	1	0
453.933	1	-3
455.126	1	8
456.320	1	9
457.513	1	11
458.706	1	11
459.899	1	2
461.093	1	9
462.286	1	-12
463.479	1	-7
464.672	1	3
465.865	1	-1
467.058	1	-2
468.251	1	-2
469.444	1	3
470.637	1	9
471.830	1	3
473.023	1	4
474.215	1	3
475.408	1	-1
476.601	1	-5
477.793	1	3
478.986	1	-1
480.179	1	-6
481.371	1	-6
482.564	1	-2
483.756	1	8
484.948	1	-4
486.141	1	3
487.333	1	-11
488.525	1	5
489.718	1	5
490.910	1	-1
492.102	1	3
493.294	1	1
494.486	1	-2
495.678	1	2
496.870	1	3
498.062	1	2
499.254	1	0
500.446	1	-3
501.638	1	-3
502.829	1	3
504.021	1	5
505.213	1	-5
506.404	1	8
507.596	1	3
508.788	1	-11
509.979	1	-1
511.171	1	6
512.362	1	-8
513.553	1	2
514.745	1	-4
515.936	1	1
517.127	1	1
518.319	1	1
519.510	1	-3
520.701	1	3
521.892	1	0
523.083	1	2
524.274	1	-1
525.465	1	0
526.656	1	-2
527.847	1	-6
529.038	1	-1
530.229	1	11
531.419	1	5
532.610	1	-4
533.801	1	4
534.991	1	-2
536.182	1	1
537.373	1	-6
538.563	1	3
539.754	1	-4
540.944	1	-4
542.134	1	4
543.325	1	2
544.515	1	0
545.705	1	3
546.896	1	1
548.086	1	-2
549.276	1	0
550.466	1	-6
551.656	1	7
552.846	1	-6
554.036	1	0
555.226	1	-5
556.416	1	1
557.606	1	0
558.796	1	7
559.986	1	5
561.175	1	-5
562.365	1	4
563.555	1	-4
564.744	1	1
565.934	1	2
567.123	1	9
568.313	1	-6
569.502	1	0
570.692	1	4
571.881	1	-1
573.070	1	-4
574.260	1	8
575.449	1	0
576.638	1	6
577.827	1	-3
579.016	1	7
580.205	1	-7
581.394	1	1
582.583	1	0
583.772	1	0
584.961	1	-5
586.150	1	-1
587.339	1	-2
588.528	1	-4
589.717	1	7
590.905	1	7
592.094	1	3
593.283	1	2
594.471	1	7
595.660	1	6
596.848	1	-1
598.037	1	1
599.225	1	-3
600.413	1	-13
601.602	1	6
602.790	1	16
603.978	1	4
605.166	1	-3
606.355	1	2
607.543	1	8
608.731	1	4
609.919	1	5
611.107	1	-7
612.295	1	1
613.483	1	-8
614.671	1	11
615.858	1	-6
617.046	1	6
618.234	1	-7
619.422	1	-7
620.609	1	-1
621.797	1	0
622.985	1	6
624.172	1	-1
625.360	1	-4
626.547	1	-10
627.735	1	-13
628.922	1	-9
630.109	1	-4
631.297	1	-6
632.484	1	-9
633.671	1	2
634.858	1	-3
636.045	1	4
637.232	1	6
638.419	1	-1
639.606	1	-8
640.793	1	-1
641.980	1	-6
643.167	1	-2
644.354	1	2
645.541	1	-3
646.728	1	1
647.914	1	-1
649.101	1	-1
650.288	1	-5
651.474	1	5
652.661	1	-5
653.847	1	-4
655.034	1	-4
656.220	1	10
657.406	1	-4
658.593	1	5
659.779	1	7
660.965	1	12
662.152	1	2
663.338	1	5
664.524	1	-6
665.710	1	-5
666.896	1	7
668.082	1	10
669.268	1	-7
670.454	1	-3
671.640	1	5
672.826	1	-13
674.011	1	-3
675.197	1	4
676.383	1	-3
677.569	1	-13
678.754	1	0
679.940	1	4
681.125	1	6
682.311	1	-6
683.496	1	5
684.682	1	6
685.867	1	-5
687.053	1	-7
688.238	1	0
688.746	1	-8

File: GaN_sample D_spot 18_UVVIS_170 K_200um_550 ms 2x2mm1_8.txt
340.368	1	-5
341.565	1	0
342.763	1	9
343.960	1	1
345.157	1	-3
346.354	1	-3
347.552	1	6
348.749	1	11
349.946	1	4
351.143	1	0
352.340	1	2
353.537	1	4
354.734	1	-3
355.931	1	-5
357.127	1	1
358.324	1	17
359.521	1	3
360.718	1	-3
361.914	1	-7
363.111	1	7
364.308	1	-4
365.504	1	-5
366.701	1	6
367.897	1	-2
369.093	1	-9
370.290	1	1
371.486	1	-7
372.682	1	5
373.879	1	10
375.075	1	-4
376.271	1	-5
377.467	1	-2
378.663	1	3
379.859	1	0
381.055	1	3
382.251	1	3
383.447	1	19
384.643	1	4
385.839	1	-10
387.035	1	-2
388.230	1	2
389.426	1	-1
390.622	1	0
391.817	1	-4
393.013	1	0
394.208	1	7
395.404	1	6
396.599	1	-13
397.795	1	2
398.990	1	-2
400.186	1	-7
401.381	1	16
402.576	1	3
403.771	1	-1
404.967	1	4
406.162	1	-1
407.357	1	-3
408.552	1	5
409.747	1	-2
410.942	1	0
412.137	1	-3
413.332	1	-1
414.526	1	-1
415.721	1	-11
416.916	1	-12
418.111	1	3
419.305	1	2
420.500	1	1
421.695	1	-3
422.889	1	1
424.084	1	16
425.278	1	1
426.472	1	3
427.667	1	0
428.861	1	3
430.055	1	-3
431.250	1	6
432.444	1	14
433.638	1	1
434.832	1	8
436.026	1	-7
437.220	1	3
438.414	1	-3
439.608	1	-1
440.802	1	6
441.996	1	-8
443.190	1	-1
444.384	1	-11
445.578	1	6
446.771	1	-8
447.965	1	-2
449.159	1	0
450.352	1	-7
451.546	1	-7
452.739	1	0
453.933	1	-1
455.126	1	10
456.320	1	5
457.513	1	8
458.706	1	5
459.899	1	7
461.093	1	9
462.286	1	1
463.479	1	-6
464.672	1	1
465.865	1	-4
467.058	1	5
468.251	1	0
469.444	1	4
470.637	1	0
471.830	1	0
473.023	1	-3
474.215	1	2
475.408	1	-3
476.601	1	7
477.793	1	0
478.986	1	0
480.179	1	4
481.371	1	4
482.564	1	-4
483.756	1	-6
484.948	1	-4
486.141	1	6
487.333	1	-3
488.525	1	3
489.718	1	3
490.910	1	0
492.102	1	6
493.294	1	0
494.486	1	9
495.678	1	4
496.870	1	-3
498.062	1	-4
499.254	1	1
500.446	1	-3
501.638	1	-7
502.829	1	-1
504.021	1	4
505.213	1	-2
506.404	1	0
507.596	1	15
508.788	1	-8
509.979	1	1
511.171	1	-3
512.362	1	6
513.553	1	1
514.745	1	-6
515.936	1	0
517.127	1	1
518.319	1	9
519.510	1	4
520.701	1	0
521.892	1	1
523.083	1	3
524.274	1	0
525.465	1	3
526.656	1	4
527.847	1	-4
529.038	1	-5
530.229	1	9
531.419	1	10
532.610	1	-9
533.801	1	8
534.991	1	-3
536.182	1	-4
537.373	1	-8
538.563	1	0
539.754	1	-2
540.944	1	-7
542.134	1	-1
543.325	1	2
544.515	1	-10
545.705	1	0
546.896	1	2
548.086	1	-8
549.276	1	-1
550.466	1	5
551.656	1	-1
552.846	1	-7
554.036	1	3
555.226	1	-7
556.416	1	0
557.606	1	-1
558.796	1	3
559.986	1	6
561.175	1	-7
562.365	1	4
563.555	1	3
564.744	1	0
565.934	1	7
567.123	1	-5
568.313	1	1
569.502	1	1
570.692	1	10
571.881	1	-8
573.070	1	-4
574.260	1	5
575.449	1	7
576.638	1	4
577.827	1	-7
579.016	1	-1
580.205	1	-14
581.394	1	3
582.583	1	-3
583.772	1	1
584.961	1	-5
586.150	1	-2
587.339	1	-1
588.528	1	3
589.717	1	4
590.905	1	2
592.094	1	6
593.283	1	8
594.471	1	4
595.660	1	2
596.848	1	-1
598.037	1	4
599.225	1	-2
600.413	1	-5
601.602	1	0
602.790	1	6
603.978	1	4
605.166	1	12
606.355	1	4
607.543	1	2
608.731	1	6
609.919	1	1
611.107	1	-6
612.295	1	-2
613.483	1	-5
614.671	1	5
615.858	1	-2
617.046	1	-1
618.234	1	1
619.422	1	2
620.609	1	9
621.797	1	-1
622.985	1	2
624.172	1	3
625.360	1	-7
626.547	1	-7
627.735	1	-6
628.922	1	-12
630.109	1	4
631.297	1	0
632.484	1	0
633.671	1	8
634.858	1	-1
636.045	1	0
637.232	1	2
638.419	1	-1
639.606	1	-3
640.793	1	-8
641.980	1	-5
643.167	1	-5
644.354	1	5
645.541	1	-1
646.728	1	-1
647.914	1	-2
649.101	1	5
650.288	1	5
651.474	1	8
652.661	1	-5
653.847	1	1
655.034	1	0
656.220	1	-3
657.406	1	7
658.593	1	4
659.779	1	6
660.965	1	7
662.152	1	-1
663.338	1	-2
664.524	1	1
665.710	1	-1
666.896	1	1
668.082	1	7
669.268	1	-2
670.454	1	-1
671.640	1	9
672.826	1	0
674.011	1	6
675.197	1	-1
676.383	1	6
677.569	1	-3
678.754	1	7
679.940	1	6
681.125	1	9
682.311	1	-7
683.496	1	11
684.682	1	9
685.867	1	0
687.053	1	-4
688.238	1	-6
688.746	1	-10

File: GaN_sample D_spot 18_UVVIS_170 K_200um_550 ms 2x2mm1_9.txt
340.368	1	-10
341.565	1	3
342.763	1	3
343.960	1	2
345.157	1	5
346.354	1	-10
347.552	1	6
348.749	1	5
349.946	1	6
351.143	1	-5
352.340	1	-1
353.537	1	5
354.734	1	6
355.931	1	0
357.127	1	1
358.324	1	1
359.521	1	2
360.718	1	-1
361.914	1	2
363.111	1	6
364.308	1	6
365.504	1	5
366.701	1	-2
367.897	1	-1
369.093	1	-7
370.290	1	8
371.486	1	-11
372.682	1	6
373.879	1	4
375.075	1	-4
376.271	1	10
377.467	1	5
378.663	1	-3
379.859	1	7
381.055	1	0
382.251	1	4
383.447	1	7
384.643	1	1
385.839	1	-9
387.035	1	11
388.230	1	-9
389.426	1	8
390.622	1	-5
391.817	1	-6
393.013	1	6
394.208	1	12
395.404	1	6
396.599	1	-8
397.795	1	-4
398.990	1	-12
400.186	1	-1
401.381	1	6
402.576	1	-3
403.771	1	7
404.967	1	4
406.162	1	4
407.357	1	-4
408.552	1	-2
409.747	1	-3
410.942	1	-2
412.137	1	-2
413.332	1	2
414.526	1	1
415.721	1	-1
416.916	1	-9
418.111	1	9
419.305	1	0
420.500	1	3
421.695	1	-14
422.889	1	2
424.084	1	6
425.278	1	1
426.472	1	-1
427.667	1	10
428.861	1	-5
430.055	1	-6
431.250	1	9
432.444	1	-2
433.638	1	8
434.832	1	1
436.026	1	-7
437.220	1	-5
438.414	1	0
439.608	1	5
440.802	1	2
441.996	1	-3
443.190	1	0
444.384	1	-3
445.578	1	4
446.771	1	-4
447.965	1	2
449.159	1	-5
450.352	1	-6
451.546	1	-10
452.739	1	0
453.933	1	-1
455.126	1	4
456.320	1	5
457.513	1	13
458.706	1	-3
459.899	1	-2
461.093	1	8
462.286	1	-5
463.479	1	-4
464.672	1	-4
465.865	1	-2
467.058	1	7
468.251	1	-6
469.444	1	-1
470.637	1	5
471.830	1	-2
473.023	1	2
474.215	1	-7
475.408	1	-6
476.601	1	0
477.793	1	1
478.986	1	-3
480.179	1	-6
481.371	1	2
482.564	1	1
483.756	1	-3
484.948	1	2
486.141	1	4
487.333	1	-3
488.525	1	7
489.718	1	2
490.910	1	1
492.102	1	-6
493.294	1	-5
494.486	1	9
495.678	1	-2
496.870	1	6
498.062	1	-4
499.254	1	0
500.446	1	-5
501.638	1	-15
502.829	1	1
504.021	1	3
505.213	1	-1
506.404	1	2
507.596	1	7
508.788	1	-4
509.979	1	11
511.171	1	8
512.362	1	-6
513.553	1	1
514.745	1	0
515.936	1	-6
517.127	1	7
518.319	1	-1
519.510	1	5
520.701	1	4
521.892	1	1
523.083	1	1
524.274	1	-7
525.465	1	3
526.656	1	13
527.847	1	8
529.038	1	-1
530.229	1	6
531.419	1	12
532.610	1	1
533.801	1	5
534.991	1	-3
536.182	1	-6
537.373	1	-7
538.563	1	-2
539.754	1	-1
540.944	1	-6
542.134	1	-5
543.325	1	-1
544.515	1	10
545.705	1	2
546.896	1	-1
548.086	1	7
549.276	1	2
550.466	1	-1
551.656	1	6
552.846	1	-1
554.036	1	0
555.226	1	-15
556.416	1	-8
557.606	1	9
558.796	1	-5
559.986	1	1
561.175	1	-7
562.365	1	1
563.555	1	-7
564.744	1	-1
565.934	1	-3
567.123	1	6
568.313	1	-5
569.502	1	-5
570.692	1	5
571.881	1	1
573.070	1	4
574.260	1	7
575.449	1	4
576.638	1	3
577.827	1	-4
579.016	1	0
580.205	1	-6
581.394	1	10
582.583	1	4
583.772	1	-5
584.961	1	0
586.150	1	-7
587.339	1	-4
588.528	1	-9
589.717	1	-4
590.905	1	10
592.094	1	6
593.283	1	6
594.471	1	1
595.660	1	-4
596.848	1	6
598.037	1	-3
599.225	1	3
600.413	1	-10
601.602	1	11
602.790	1	15
603.978	1	4
605.166	1	12
606.355	1	2
607.543	1	5
608.731	1	-6
609.919	1	-2
611.107	1	-2
612.295	1	0
613.483	1	-6
614.671	1	12
615.858	1	5
617.046	1	-2
618.234	1	0
619.422	1	-7
620.609	1	2
621.797	1	10
622.985	1	1
624.172	1	-6
625.360	1	4
626.547	1	-2
627.735	1	-4
628.922	1	-4
630.109	1	1
631.297	1	-2
632.484	1	0
633.671	1	5
634.858	1	-1
636.045	1	2
637.232	1	-2
638.419	1	-2
639.606	1	5
640.793	1	0
641.980	1	-4
643.167	1	-7
644.354	1	8
645.541	1	7
646.728	1	2
647.914	1	0
649.101	1	0
650.288	1	-2
651.474	1	1
652.661	1	10
653.847	1	3
655.034	1	-4
656.220	1	-6
657.406	1	6
658.593	1	-6
659.779	1	0
660.965	1	7
662.152	1	-3
663.338	1	3
664.524	1	1
665.710	1	1
666.896	1	-4
668.082	1	5
669.268	1	2
670.454	1	-10
671.640	1	4
672.826	1	-1
674.011	1	4
675.197	1	2
676.383	1	0
677.569	1	-7
678.754	1	2
679.940	1	5
681.125	1	6
682.311	1	-3
683.496	1	5
684.682	1	-6
685.867	1	9
687.053	1	-16
688.238	1	1
688.746	1	-5

File: GaN_sample D_spot 18_UVVIS_170 K_200um_550 ms 2x2mm1_14.txt
340.368	1	2
341.565	1	3
342.763	1	5
343.960	1	2
345.157	1	-2
346.354	1	-10
347.552	1	4
348.749	1	1
349.946	1	1
351.143	1	1
352.340	1	2
353.537	1	-4
354.734	1	4
355.931	1	3
357.127	1	-2
358.324	1	8
359.521	1	-1
360.718	1	5
361.914	1	2
363.111	1	9
364.308	1	1
365.504	1	-2
366.701	1	-1
367.897	1	-3
369.093	1	-7
370.290	1	-8
371.486	1	-13
372.682	1	-1
373.879	1	5
375.075	1	1
376.271	1	9
377.467	1	5
378.663	1	7
379.859	1	1
381.055	1	3
382.251	1	-2
383.447	1	6
384.643	1	7
385.839	1	-5
387.035	1	5
388.230	1	0
389.426	1	6
390.622	1	0
391.817	1	-1
393.013	1	-1
394.208	1	2
395.404	1	15
396.599	1	-9
397.795	1	7
398.990	1	-6
400.186	1	-7
401.381	1	11
402.576	1	-11
403.771	1	2
404.967	1	-2
406.162	1	6
407.357	1	3
408.552	1	2
409.747	1	2
410.942	1	1
412.137	1	-5
413.332	1	3
414.526	1	1
415.721	1	3
416.916	1	-2
418.111	1	9
419.305	1	1
420.500	1	-3
421.695	1	-14
422.889	1	3
424.084	1	17
425.278	1	-6
426.472	1	6
427.667	1	11
428.861	1	1
430.055	1	0
431.250	1	7
432.444	1	2
433.638	1	16
434.832	1	10
436.026	1	0
437.220	1	2
438.414	1	-8
439.608	1	1
440.802	1	4
441.996	1	0
443.190	1	1
444.384	1	-3
445.578	1	2
446.771	1	-10
447.965	1	2
449.159	1	3
450.352	1	-5
451.546	1	-9
452.739	1	4
453.933	1	3
455.126	1	10
456.320	1	-4
457.513	1	11
458.706	1	5
459.899	1	2
461.093	1	3
462.286	1	-3
463.479	1	-4
464.672	1	4
465.865	1	-4
467.058	1	-2
468.251	1	-1
469.444	1	11
470.637	1	3
471.830	1	1
473.023	1	4
474.215	1	4
475.408	1	1
476.601	1	-3
477.793	1	13
478.986	1	-4
480.179	1	-4
481.371	1	-4
482.564	1	4
483.756	1	4
484.948	1	-2
486.141	1	9
487.333	1	-3
488.525	1	-2
489.718	1	3
490.910	1	2
492.102	1	0
493.294	1	-2
494.486	1	9
495.678	1	3
496.870	1	-1
498.062	1	-10
499.254	1	4
500.446	1	-6
501.638	1	5
502.829	1	1
504.021	1	5
505.213	1	2
506.404	1	9
507.596	1	-2
508.788	1	-9
509.979	1	13
511.171	1	5
512.362	1	0
513.553	1	-3
514.745	1	4
515.936	1	8
517.127	1	0
518.319	1	9
519.510	1	-2
520.701	1	2
521.892	1	5
523.083	1	3
524.274	1	-3
525.465	1	7
526.656	1	7
527.847	1	3
529.038	1	-10
530.229	1	12
531.419	1	2
532.610	1	2
533.801	1	11
534.991	1	-1
536.182	1	-3
537.373	1	-2
538.563	1	5
539.754	1	-8
540.944	1	1
542.134	1	1
543.325	1	9
544.515	1	6
545.705	1	5
546.896	1	8
548.086	1	10
549.276	1	4
550.466	1	-1
551.656	1	13
552.846	1	9
554.036	1	2
555.226	1	-5
556.416	1	2
557.606	1	-1
558.796	1	-3
559.986	1	0
561.175	1	-6
562.365	1	6
563.555	1	4
564.744	1	-5
565.934	1	6
567.123	1	-3
568.313	1	-2
569.502	1	4
570.692	1	8
571.881	1	4
573.070	1	-3
574.260	1	7
575.449	1	1
576.638	1	8
577.827	1	-9
579.016	1	2
580.205	1	3
581.394	1	-9
582.583	1	-2
583.772	1	1
584.961	1	2
586.150	1	-2
587.339	1	-1
588.528	1	-10
589.717	1	3
590.905	1	9
592.094	1	7
593.283	1	3
594.471	1	10
595.660	1	-3
596.848	1	6
598.037	1	-1
599.225	1	9
600.413	1	-4
601.602	1	2
602.790	1	8
603.978	1	4
605.166	1	13
606.355	1	5
607.543	1	8
608.731	1	2
609.919	1	-2
611.107	1	1
612.295	1	1
613.483	1	-3
614.671	1	6
615.858	1	1
617.046	1	-4
618.234	1	5
619.422	1	-15
620.609	1	8
621.797	1	-1
622.985	1	1
624.172	1	0
625.360	1	5
626.547	1	-7
627.735	1	-3
628.922	1	-8
630.109	1	-5
631.297	1	-2
632.484	1	-2
633.671	1	12
634.858	1	3
636.045	1	7
637.232	1	-2
638.419	1	-9
639.606	1	-6
640.793	1	1
641.980	1	-2
643.167	1	-4
644.354	1	5
645.541	1	15
646.728	1	-6
647.914	1	4
649.101	1	-5
650.288	1	3
651.474	1	6
652.661	1	2
653.847	1	-7
655.034	1	-1
656.220	1	-1
657.406	1	0
658.593	1	3
659.779	1	-2
660.965	1	6
662.152	1	6
663.338	1	9
664.524	1	8
665.710	1	5
666.896	1	0
668.082	1	7
669.268	1	-10
670.454	1	-9
671.640	1	0
672.826	1	-6
674.011	1	-2
675.197	1	3
676.383	1	3
677.569	1	-7
678.754	1	-7
679.940	1	4
681.125	1	7
682.311	1	-12
683.496	1	1
684.682	1	-1
685.867	1	5
687.053	1	-8
688.238	1	-8
688.746	1	-5

File: GaN_sample D_spot 18_UVVIS_170 K_200um_550 ms 2x2mm1_17.txt
340.368	1	-8
341.565	1	8
342.763	1	4
343.960	1	-2
345.157	1	2
346.354	1	-6
347.552	1	10
348.749	1	11
349.946	1	9
351.143	1	-2
352.340	1	12
353.537	1	-1
354.734	1	7
355.931	1	1
357.127	1	-2
358.324	1	4
359.521	1	2
360.718	1	4
361.914	1	-2
363.111	1	6
364.308	1	3
365.504	1	-6
366.701	1	5
367.897	1	3
369.093	1	-11
370.290	1	4
371.486	1	-9
372.682	1	-3
373.879	1	1
375.075	1	2
376.271	1	10
377.467	1	5
378.663	1	-1
379.859	1	2
381.055	1	1
382.251	1	4
383.447	1	9
384.643	1	-4
385.839	1	-15
387.035	1	1
388.230	1	-6
389.426	1	6
390.622	1	4
391.817	1	5
393.013	1	-3
394.208	1	15
395.404	1	6
396.599	1	-4
397.795	1	-2
398.990	1	-2
400.186	1	1
401.381	1	17
402.576	1	-3
403.771	1	13
404.967	1	3
406.162	1	1
407.357	1	-2
408.552	1	1
409.747	1	1
410.942	1	5
412.137	1	-3
413.332	1	-3
414.526	1	5
415.721	1	-1
416.916	1	-3
418.111	1	6
419.305	1	1
420.500	1	0
421.695	1	-6
422.889	1	-1
424.084	1	12
425.278	1	-5
426.472	1	-3
427.667	1	1
428.861	1	4
430.055	1	2
431.250	1	5
432.444	1	1
433.638	1	5
434.832	1	8
436.026	1	-1
437.220	1	-4
438.414	1	-3
439.608	1	0
440.802	1	2
441.996	1	6
443.190	1	-4
444.384	1	-3
445.578	1	9
446.771	1	-6
447.965	1	-1
449.159	1	-4
450.352	1	-1
451.546	1	-9
452.739	1	2
453.933	1	0
455.126	1	16
456.320	1	5
457.513	1	10
458.706	1	3
459.899	1	-2
461.093	1	9
462.286	1	0
463.479	1	4
464.672	1	-9
465.865	1	-7
467.058	1	7
468.251	1	-1
469.444	1	0
470.637	1	-1
471.830	1	7
473.023	1	1
474.215	1	7
475.408	1	-6
476.601	1	5
477.793	1	4
478.986	1	4
480.179	1	-6
481.371	1	-1
482.564	1	0
483.756	1	0
484.948	1	1
486.141	1	1
487.333	1	-9
488.525	1	4
489.718	1	1
490.910	1	6
492.102	1	4
493.294	1	-3
494.486	1	6
495.678	1	7
496.870	1	3
498.062	1	-1
499.254	1	8
500.446	1	6
501.638	1	-2
502.829	1	7
504.021	1	3
505.213	1	-8
506.404	1	-8
507.596	1	10
508.788	1	-4
509.979	1	6
511.171	1	1
512.362	1	-10
513.553	1	7
514.745	1	0
515.936	1	-1
517.127	1	3
518.319	1	10
519.510	1	-1
520.701	1	5
521.892	1	-1
523.083	1	1
524.274	1	0
525.465	1	3
526.656	1	8
527.847	1	5
529.038	1	3
530.229	1	9
531.419	1	14
532.610	1	-7
533.801	1	8
534.991	1	-1
536.182	1	3
537.373	1	-12
538.563	1	-6
539.754	1	0
540.944	1	-2
542.134	1	-1
543.325	1	3
544.515	1	11
545.705	1	-1
546.896	1	1
548.086	1	-1
549.276	1	-8
550.466	1	-4
551.656	1	1
552.846	1	-11
554.036	1	3
555.226	1	-8
556.416	1	2
557.606	1	-3
558.796	1	-4
559.986	1	4
561.175	1	-5
562.365	1	3
563.555	1	0
564.744	1	9
565.934	1	2
567.123	1	8
568.313	1	1
569.502	1	-1
570.692	1	3
571.881	1	0
573.070	1	-3
574.260	1	9
575.449	1	4
576.638	1	10
577.827	1	-1
579.016	1	-2
580.205	1	1
581.394	1	8
582.583	1	1
583.772	1	1
584.961	1	-2
586.150	1	-14
587.339	1	1
588.528	1	-4
589.717	1	-5
590.905	1	-1
592.094	1	12
593.283	1	6
594.471	1	6
595.660	1	3
596.848	1	-3
598.037	1	-4
599.225	1	2
600.413	1	-8
601.602	1	1
602.790	1	10
603.978	1	8
605.166	1	9
606.355	1	1
607.543	1	9
608.731	1	1
609.919	1	1
611.107	1	4
612.295	1	0
613.483	1	-2
614.671	1	7
615.858	1	-5
617.046	1	-7
618.234	1	4
619.422	1	-2
620.609	1	7
621.797	1	7
622.985	1	0
624.172	1	-3
625.360	1	-4
626.547	1	2
627.735	1	-10
628.922	1	-9
630.109	1	-5
631.297	1	-2
632.484	1	-11
633.671	1	2
634.858	1	3
636.045	1	6
637.232	1	7
638.419	1	3
639.606	1	-4
640.793	1	-4
641.980	1	-8
643.167	1	-5
644.354	1	3
645.541	1	-1
646.728	1	5
647.914	1	6
649.101	1	-1
650.288	1	2
651.474	1	9
652.661	1	4
653.847	1	9
655.034	1	3
656.220	1	1
657.406	1	4
658.593	1	-1
659.779	1	1
660.965	1	11
662.152	1	-4
663.338	1	5
664.524	1	1
665.710	1	2
666.896	1	3
668.082	1	10
669.268	1	3
670.454	1	-10
671.640	1	9
672.826	1	-5
674.011	1	7
675.197	1	-1
676.383	1	-1
677.569	1	-3
678.754	1	-3
679.940	1	8
681.125	1	-3
682.311	1	9
683.496	1	5
684.682	1	6
685.867	1	4
687.053	1	0
688.238	1	-6
688.746	1	-8

File: GaN_sample D_spot 18_UVVIS_170 K_200um_550 ms 2x2mm1_18.txt
340.368	1	12
341.565	1	4
342.763	1	9
343.960	1	7
345.157	1	5
346.354	1	-10
347.552	1	6
348.749	1	4
349.946	1	11
351.143	1	4
352.340	1	6
353.537	1	0
354.734	1	3
355.931	1	3
357.127	1	-5
358.324	1	10
359.521	1	1
360.718	1	-3
361.914	1	3
363.111	1	0
364.308	1	2
365.504	1	4
366.701	1	5
367.897	1	-2
369.093	1	-6
370.290	1	2
371.486	1	-13
372.682	1	1
373.879	1	7
375.075	1	7
376.271	1	10
377.467	1	3
378.663	1	3
379.859	1	3
381.055	1	4
382.251	1	6
383.447	1	13
384.643	1	-4
385.839	1	-8
387.035	1	-5
388.230	1	6
389.426	1	-3
390.622	1	1
391.817	1	2
393.013	1	-3
394.208	1	2
395.404	1	2
396.599	1	-7
397.795	1	-5
398.990	1	-5
400.186	1	-3
401.381	1	14
402.576	1	-1
403.771	1	1
404.967	1	4
406.162	1	-3
407.357	1	-3
408.552	1	3
409.747	1	-1
410.942	1	3
412.137	1	-8
413.332	1	6
414.526	1	-4
415.721	1	6
416.916	1	-9
418.111	1	6
419.305	1	6
420.500	1	-3
421.695	1	-8
422.889	1	-4
424.084	1	13
425.278	1	3
426.472	1	-3
427.667	1	-1
428.861	1	-1
430.055	1	-3
431.250	1	11
432.444	1	0
433.638	1	3
434.832	1	6
436.026	1	-3
437.220	1	2
438.414	1	-4
439.608	1	-3
440.802	1	10
441.996	1	1
443.190	1	3
444.384	1	2
445.578	1	8
446.771	1	-10
447.965	1	-5
449.159	1	-1
450.352	1	0
451.546	1	-14
452.739	1	10
453.933	1	-2
455.126	1	6
456.320	1	6
457.513	1	7
458.706	1	9
459.899	1	8
461.093	1	3
462.286	1	-7
463.479	1	-3
464.672	1	-3
465.865	1	0
467.058	1	0
468.251	1	0
469.444	1	3
470.637	1	6
471.830	1	-9
473.023	1	6
474.215	1	2
475.408	1	-7
476.601	1	1
477.793	1	0
478.986	1	0
480.179	1	-10
481.371	1	5
482.564	1	-3
483.756	1	-3
484.948	1	-2
486.141	1	13
487.333	1	-6
488.525	1	-2
489.718	1	8
490.910	1	-4
492.102	1	0
493.294	1	-5
494.486	1	8
495.678	1	4
496.870	1	1
498.062	1	5
499.254	1	7
500.446	1	-4
501.638	1	-2
502.829	1	2
504.021	1	-3
505.213	1	0
506.404	1	2
507.596	1	12
508.788	1	-13
509.979	1	2
511.171	1	4
512.362	1	-3
513.553	1	-5
514.745	1	0
515.936	1	0
517.127	1	19
518.319	1	2
519.510	1	10
520.701	1	6
521.892	1	3
523.083	1	7
524.274	1	-4
525.465	1	10
526.656	1	16
527.847	1	-4
529.038	1	-1
530.229	1	16
531.419	1	9
532.610	1	-1
533.801	1	2
534.991	1	-5
536.182	1	5
537.373	1	-3
538.563	1	4
539.754	1	1
540.944	1	-11
542.134	1	5
543.325	1	1
544.515	1	-5
545.705	1	7
546.896	1	3
548.086	1	6
549.276	1	-2
550.466	1	3
551.656	1	3
552.846	1	5
554.036	1	-2
555.226	1	-1
556.416	1	-4
557.606	1	3
558.796	1	0
559.986	1	2
561.175	1	-3
562.365	1	5
563.555	1	4
564.744	1	0
565.934	1	6
567.123	1	-8
568.313	1	5
569.502	1	2
570.692	1	8
571.881	1	-3
573.070	1	4
574.260	1	6
575.449	1	-2
576.638	1	13
577.827	1	0
579.016	1	9
580.205	1	-8
581.394	1	-3
582.583	1	-6
583.772	1	-2
584.961	1	-10
586.150	1	0
587.339	1	2
588.528	1	2
589.717	1	7
590.905	1	12
592.094	1	6
593.283	1	8
594.471	1	2
595.660	1	-3
596.848	1	10
598.037	1	6
599.225	1	5
600.413	1	-7
601.602	1	4
602.790	1	9
603.978	1	-5
605.166	1	7
606.355	1	1
607.543	1	3
608.731	1	4
609.919	1	-5
611.107	1	-4
612.295	1	7
613.483	1	-6
614.671	1	14
615.858	1	2
617.046	1	-4
618.234	1	-2
619.422	1	-4
620.609	1	9
621.797	1	5
622.985	1	6
624.172	1	5
625.360	1	0
626.547	1	-4
627.735	1	-13
628.922	1	-7
630.109	1	-2
631.297	1	-2
632.484	1	-4
633.671	1	1
634.858	1	1
636.045	1	4
637.232	1	2
638.419	1	-6
639.606	1	-3
640.793	1	-5
641.980	1	-6
643.167	1	2
644.354	1	-1
645.541	1	5
646.728	1	4
647.914	1	0
649.101	1	4
650.288	1	-5
651.474	1	16
652.661	1	-2
653.847	1	1
655.034	1	3
656.220	1	2
657.406	1	2
658.593	1	1
659.779	1	12
660.965	1	17
662.152	1	3
663.338	1	3
664.524	1	12
665.710	1	-1
666.896	1	-6
668.082	1	7
669.268	1	-2
670.454	1	-6
671.640	1	2
672.826	1	3
674.011	1	15
675.197	1	8
676.383	1	-2
677.569	1	-1
678.754	1	2
679.940	1	1
681.125	1	2
682.311	1	-7
683.496	1	2
684.682	1	3
685.867	1	11
687.053	1	-7
688.238	1	-2
688.746	1	-5