Folder: cryo-il_analysis/Data/GaN_170K_550ms (part 24)

File: GaN_sample D_spot 18_UVVIS_170 K_200um_550 ms 2x2mm1_294.txt
340.368	1	6
341.565	1	8
342.763	1	0
343.960	1	-7
345.157	1	2
346.354	1	-3
347.552	1	11
348.749	1	4
349.946	1	5
351.143	1	-2
352.340	1	1
353.537	1	4
354.734	1	-2
355.931	1	8
357.127	1	3
358.324	1	8
359.521	1	9
360.718	1	1
361.914	1	16
363.111	1	11
364.308	1	7
365.504	1	11
366.701	1	16
367.897	1	10
369.093	1	-2
370.290	1	6
371.486	1	-4
372.682	1	8
373.879	1	8
375.075	1	9
376.271	1	6
377.467	1	6
378.663	1	0
379.859	1	4
381.055	1	4
382.251	1	2
383.447	1	13
384.643	1	-2
385.839	1	-5
387.035	1	0
388.230	1	-1
389.426	1	10
390.622	1	-9
391.817	1	8
393.013	1	-4
394.208	1	4
395.404	1	6
396.599	1	-13
397.795	1	-6
398.990	1	-4
400.186	1	1
401.381	1	9
402.576	1	7
403.771	1	9
404.967	1	5
406.162	1	5
407.357	1	-6
408.552	1	8
409.747	1	-2
410.942	1	4
412.137	1	1
413.332	1	-4
414.526	1	7
415.721	1	5
416.916	1	-8
418.111	1	10
419.305	1	6
420.500	1	1
421.695	1	-10
422.889	1	4
424.084	1	19
425.278	1	-3
426.472	1	2
427.667	1	0
428.861	1	-2
430.055	1	4
431.250	1	15
432.444	1	-1
433.638	1	7
434.832	1	2
436.026	1	4
437.220	1	-3
438.414	1	-3
439.608	1	-6
440.802	1	10
441.996	1	-8
443.190	1	-9
444.384	1	-4
445.578	1	13
446.771	1	-5
447.965	1	6
449.159	1	0
450.352	1	7
451.546	1	-4
452.739	1	-2
453.933	1	-1
455.126	1	8
456.320	1	-2
457.513	1	10
458.706	1	3
459.899	1	2
461.093	1	3
462.286	1	-3
463.479	1	-8
464.672	1	-1
465.865	1	-4
467.058	1	1
468.251	1	7
469.444	1	8
470.637	1	11
471.830	1	-3
473.023	1	-7
474.215	1	5
475.408	1	-3
476.601	1	4
477.793	1	5
478.986	1	-6
480.179	1	-11
481.371	1	-6
482.564	1	1
483.756	1	5
484.948	1	3
486.141	1	6
487.333	1	-3
488.525	1	17
489.718	1	4
490.910	1	1
492.102	1	-2
493.294	1	-3
494.486	1	3
495.678	1	8
496.870	1	3
498.062	1	-3
499.254	1	3
500.446	1	2
501.638	1	-8
502.829	1	1
504.021	1	0
505.213	1	5
506.404	1	2
507.596	1	10
508.788	1	-13
509.979	1	4
511.171	1	3
512.362	1	8
513.553	1	-3
514.745	1	5
515.936	1	-5
517.127	1	2
518.319	1	-1
519.510	1	-3
520.701	1	-5
521.892	1	0
523.083	1	-3
524.274	1	5
525.465	1	3
526.656	1	12
527.847	1	-7
529.038	1	3
530.229	1	13
531.419	1	15
532.610	1	-4
533.801	1	2
534.991	1	2
536.182	1	-7
537.373	1	4
538.563	1	2
539.754	1	-4
540.944	1	-7
542.134	1	-2
543.325	1	4
544.515	1	-1
545.705	1	10
546.896	1	9
548.086	1	-5
549.276	1	10
550.466	1	-3
551.656	1	1
552.846	1	3
554.036	1	7
555.226	1	-12
556.416	1	0
557.606	1	6
558.796	1	-4
559.986	1	7
561.175	1	-7
562.365	1	1
563.555	1	-2
564.744	1	6
565.934	1	-5
567.123	1	-2
568.313	1	0
569.502	1	4
570.692	1	2
571.881	1	-6
573.070	1	4
574.260	1	8
575.449	1	-2
576.638	1	8
577.827	1	-2
579.016	1	8
580.205	1	1
581.394	1	1
582.583	1	4
583.772	1	-5
584.961	1	9
586.150	1	-3
587.339	1	-5
588.528	1	0
589.717	1	9
590.905	1	8
592.094	1	9
593.283	1	6
594.471	1	3
595.660	1	3
596.848	1	0
598.037	1	-3
599.225	1	4
600.413	1	-4
601.602	1	10
602.790	1	15
603.978	1	11
605.166	1	12
606.355	1	13
607.543	1	8
608.731	1	5
609.919	1	-4
611.107	1	-5
612.295	1	-8
613.483	1	-3
614.671	1	11
615.858	1	-4
617.046	1	-1
618.234	1	1
619.422	1	-1
620.609	1	0
621.797	1	-4
622.985	1	-2
624.172	1	-2
625.360	1	-4
626.547	1	-6
627.735	1	-8
628.922	1	-6
630.109	1	-7
631.297	1	-4
632.484	1	2
633.671	1	0
634.858	1	-4
636.045	1	-3
637.232	1	-2
638.419	1	-8
639.606	1	-4
640.793	1	-4
641.980	1	-12
643.167	1	-3
644.354	1	0
645.541	1	0
646.728	1	2
647.914	1	-3
649.101	1	0
650.288	1	-11
651.474	1	6
652.661	1	7
653.847	1	-1
655.034	1	-2
656.220	1	0
657.406	1	2
658.593	1	2
659.779	1	-3
660.965	1	9
662.152	1	-10
663.338	1	-6
664.524	1	6
665.710	1	0
666.896	1	8
668.082	1	10
669.268	1	-6
670.454	1	-6
671.640	1	13
672.826	1	4
674.011	1	9
675.197	1	9
676.383	1	0
677.569	1	-9
678.754	1	7
679.940	1	1
681.125	1	12
682.311	1	3
683.496	1	3
684.682	1	5
685.867	1	3
687.053	1	-3
688.238	1	3
688.746	1	-2

File: GaN_sample D_spot 18_UVVIS_170 K_200um_550 ms 2x2mm1_295.txt
340.368	1	-7
341.565	1	1
342.763	1	8
343.960	1	4
345.157	1	3
346.354	1	-7
347.552	1	9
348.749	1	9
349.946	1	8
351.143	1	-5
352.340	1	3
353.537	1	2
354.734	1	1
355.931	1	10
357.127	1	-5
358.324	1	11
359.521	1	5
360.718	1	4
361.914	1	2
363.111	1	10
364.308	1	13
365.504	1	-1
366.701	1	9
367.897	1	12
369.093	1	4
370.290	1	5
371.486	1	1
372.682	1	10
373.879	1	10
375.075	1	5
376.271	1	7
377.467	1	5
378.663	1	4
379.859	1	3
381.055	1	3
382.251	1	3
383.447	1	4
384.643	1	-9
385.839	1	1
387.035	1	0
388.230	1	-4
389.426	1	10
390.622	1	-4
391.817	1	5
393.013	1	-6
394.208	1	14
395.404	1	1
396.599	1	-11
397.795	1	-2
398.990	1	-11
400.186	1	2
401.381	1	9
402.576	1	-2
403.771	1	-4
404.967	1	3
406.162	1	13
407.357	1	1
408.552	1	5
409.747	1	-5
410.942	1	0
412.137	1	-6
413.332	1	-3
414.526	1	3
415.721	1	-3
416.916	1	-6
418.111	1	4
419.305	1	1
420.500	1	-4
421.695	1	-11
422.889	1	3
424.084	1	24
425.278	1	7
426.472	1	-1
427.667	1	4
428.861	1	4
430.055	1	-1
431.250	1	14
432.444	1	7
433.638	1	4
434.832	1	2
436.026	1	-6
437.220	1	-1
438.414	1	-10
439.608	1	-5
440.802	1	5
441.996	1	-1
443.190	1	-4
444.384	1	-2
445.578	1	10
446.771	1	-3
447.965	1	4
449.159	1	2
450.352	1	3
451.546	1	-8
452.739	1	3
453.933	1	0
455.126	1	10
456.320	1	-3
457.513	1	5
458.706	1	7
459.899	1	-4
461.093	1	0
462.286	1	-7
463.479	1	3
464.672	1	-13
465.865	1	11
467.058	1	13
468.251	1	-2
469.444	1	-3
470.637	1	4
471.830	1	3
473.023	1	-4
474.215	1	9
475.408	1	-14
476.601	1	-1
477.793	1	7
478.986	1	-1
480.179	1	-5
481.371	1	1
482.564	1	-2
483.756	1	0
484.948	1	1
486.141	1	11
487.333	1	-5
488.525	1	8
489.718	1	5
490.910	1	1
492.102	1	3
493.294	1	1
494.486	1	16
495.678	1	-2
496.870	1	-5
498.062	1	4
499.254	1	8
500.446	1	6
501.638	1	-6
502.829	1	8
504.021	1	7
505.213	1	-2
506.404	1	2
507.596	1	8
508.788	1	-10
509.979	1	2
511.171	1	6
512.362	1	5
513.553	1	-3
514.745	1	0
515.936	1	0
517.127	1	5
518.319	1	4
519.510	1	4
520.701	1	7
521.892	1	3
523.083	1	2
524.274	1	-4
525.465	1	0
526.656	1	12
527.847	1	6
529.038	1	-5
530.229	1	5
531.419	1	10
532.610	1	6
533.801	1	5
534.991	1	-1
536.182	1	4
537.373	1	-7
538.563	1	-1
539.754	1	5
540.944	1	2
542.134	1	-8
543.325	1	-3
544.515	1	7
545.705	1	4
546.896	1	5
548.086	1	2
549.276	1	-1
550.466	1	1
551.656	1	5
552.846	1	3
554.036	1	0
555.226	1	-5
556.416	1	1
557.606	1	7
558.796	1	2
559.986	1	4
561.175	1	-10
562.365	1	-3
563.555	1	1
564.744	1	-1
565.934	1	13
567.123	1	4
568.313	1	-7
569.502	1	-1
570.692	1	11
571.881	1	-1
573.070	1	6
574.260	1	10
575.449	1	5
576.638	1	-4
577.827	1	-4
579.016	1	6
580.205	1	2
581.394	1	-1
582.583	1	6
583.772	1	-5
584.961	1	5
586.150	1	-5
587.339	1	4
588.528	1	-2
589.717	1	10
590.905	1	11
592.094	1	9
593.283	1	-1
594.471	1	9
595.660	1	-3
596.848	1	0
598.037	1	5
599.225	1	7
600.413	1	-7
601.602	1	1
602.790	1	13
603.978	1	4
605.166	1	9
606.355	1	6
607.543	1	7
608.731	1	-4
609.919	1	-5
611.107	1	-10
612.295	1	-1
613.483	1	0
614.671	1	12
615.858	1	2
617.046	1	3
618.234	1	-4
619.422	1	-5
620.609	1	2
621.797	1	4
622.985	1	1
624.172	1	-8
625.360	1	5
626.547	1	-2
627.735	1	-9
628.922	1	-6
630.109	1	-1
631.297	1	-3
632.484	1	-2
633.671	1	-1
634.858	1	1
636.045	1	14
637.232	1	6
638.419	1	-1
639.606	1	-5
640.793	1	3
641.980	1	4
643.167	1	-14
644.354	1	-4
645.541	1	4
646.728	1	-6
647.914	1	-3
649.101	1	3
650.288	1	4
651.474	1	0
652.661	1	0
653.847	1	-1
655.034	1	-8
656.220	1	0
657.406	1	3
658.593	1	-1
659.779	1	-1
660.965	1	11
662.152	1	1
663.338	1	4
664.524	1	1
665.710	1	3
666.896	1	1
668.082	1	4
669.268	1	0
670.454	1	-10
671.640	1	11
672.826	1	2
674.011	1	15
675.197	1	1
676.383	1	1
677.569	1	-2
678.754	1	0
679.940	1	7
681.125	1	9
682.311	1	7
683.496	1	4
684.682	1	-1
685.867	1	5
687.053	1	-4
688.238	1	4
688.746	1	-2

File: GaN_sample D_spot 18_UVVIS_170 K_200um_550 ms 2x2mm1_297.txt
340.368	1	-1
341.565	1	4
342.763	1	5
343.960	1	-3
345.157	1	3
346.354	1	-3
347.552	1	5
348.749	1	-1
349.946	1	8
351.143	1	-6
352.340	1	3
353.537	1	3
354.734	1	6
355.931	1	6
357.127	1	-7
358.324	1	1
359.521	1	8
360.718	1	1
361.914	1	6
363.111	1	15
364.308	1	15
365.504	1	3
366.701	1	9
367.897	1	8
369.093	1	-8
370.290	1	6
371.486	1	6
372.682	1	10
373.879	1	7
375.075	1	5
376.271	1	10
377.467	1	9
378.663	1	8
379.859	1	4
381.055	1	7
382.251	1	0
383.447	1	9
384.643	1	-4
385.839	1	-2
387.035	1	0
388.230	1	-13
389.426	1	11
390.622	1	-6
391.817	1	4
393.013	1	6
394.208	1	11
395.404	1	15
396.599	1	-10
397.795	1	1
398.990	1	-9
400.186	1	2
401.381	1	3
402.576	1	-11
403.771	1	0
404.967	1	4
406.162	1	4
407.357	1	-4
408.552	1	-4
409.747	1	-9
410.942	1	8
412.137	1	-7
413.332	1	-9
414.526	1	6
415.721	1	4
416.916	1	-6
418.111	1	4
419.305	1	-6
420.500	1	-3
421.695	1	-8
422.889	1	-1
424.084	1	16
425.278	1	-2
426.472	1	8
427.667	1	3
428.861	1	0
430.055	1	5
431.250	1	12
432.444	1	7
433.638	1	11
434.832	1	7
436.026	1	0
437.220	1	-6
438.414	1	-7
439.608	1	1
440.802	1	13
441.996	1	0
443.190	1	-5
444.384	1	4
445.578	1	9
446.771	1	-11
447.965	1	-6
449.159	1	3
450.352	1	-4
451.546	1	-11
452.739	1	1
453.933	1	4
455.126	1	10
456.320	1	8
457.513	1	8
458.706	1	6
459.899	1	-5
461.093	1	6
462.286	1	-3
463.479	1	3
464.672	1	-8
465.865	1	2
467.058	1	-4
468.251	1	2
469.444	1	-5
470.637	1	2
471.830	1	-2
473.023	1	8
474.215	1	-3
475.408	1	-3
476.601	1	0
477.793	1	12
478.986	1	-6
480.179	1	-3
481.371	1	2
482.564	1	-4
483.756	1	4
484.948	1	-6
486.141	1	4
487.333	1	-11
488.525	1	4
489.718	1	0
490.910	1	-4
492.102	1	-6
493.294	1	-3
494.486	1	8
495.678	1	7
496.870	1	8
498.062	1	-1
499.254	1	17
500.446	1	2
501.638	1	-7
502.829	1	7
504.021	1	4
505.213	1	-7
506.404	1	11
507.596	1	13
508.788	1	-3
509.979	1	6
511.171	1	2
512.362	1	-6
513.553	1	0
514.745	1	-2
515.936	1	6
517.127	1	2
518.319	1	0
519.510	1	4
520.701	1	8
521.892	1	5
523.083	1	0
524.274	1	2
525.465	1	2
526.656	1	8
527.847	1	-4
529.038	1	5
530.229	1	8
531.419	1	13
532.610	1	7
533.801	1	10
534.991	1	1
536.182	1	6
537.373	1	-2
538.563	1	6
539.754	1	-6
540.944	1	-1
542.134	1	4
543.325	1	3
544.515	1	-3
545.705	1	3
546.896	1	6
548.086	1	3
549.276	1	5
550.466	1	0
551.656	1	3
552.846	1	-2
554.036	1	3
555.226	1	-4
556.416	1	2
557.606	1	2
558.796	1	-7
559.986	1	5
561.175	1	-4
562.365	1	0
563.555	1	4
564.744	1	4
565.934	1	-1
567.123	1	1
568.313	1	-9
569.502	1	8
570.692	1	3
571.881	1	1
573.070	1	1
574.260	1	4
575.449	1	4
576.638	1	-3
577.827	1	-2
579.016	1	5
580.205	1	2
581.394	1	0
582.583	1	3
583.772	1	-10
584.961	1	7
586.150	1	-1
587.339	1	0
588.528	1	-3
589.717	1	7
590.905	1	0
592.094	1	2
593.283	1	6
594.471	1	8
595.660	1	-8
596.848	1	2
598.037	1	1
599.225	1	0
600.413	1	2
601.602	1	3
602.790	1	1
603.978	1	10
605.166	1	6
606.355	1	1
607.543	1	15
608.731	1	4
609.919	1	-1
611.107	1	-5
612.295	1	-6
613.483	1	-6
614.671	1	7
615.858	1	4
617.046	1	-10
618.234	1	-7
619.422	1	-1
620.609	1	-2
621.797	1	-2
622.985	1	1
624.172	1	-6
625.360	1	-1
626.547	1	-6
627.735	1	-12
628.922	1	-8
630.109	1	-3
631.297	1	-1
632.484	1	1
633.671	1	3
634.858	1	12
636.045	1	13
637.232	1	5
638.419	1	-8
639.606	1	-3
640.793	1	-3
641.980	1	1
643.167	1	-2
644.354	1	-5
645.541	1	2
646.728	1	5
647.914	1	1
649.101	1	1
650.288	1	-2
651.474	1	17
652.661	1	0
653.847	1	0
655.034	1	-8
656.220	1	2
657.406	1	1
658.593	1	3
659.779	1	8
660.965	1	10
662.152	1	-1
663.338	1	7
664.524	1	6
665.710	1	5
666.896	1	10
668.082	1	10
669.268	1	-2
670.454	1	-6
671.640	1	-3
672.826	1	0
674.011	1	3
675.197	1	8
676.383	1	1
677.569	1	-5
678.754	1	-1
679.940	1	9
681.125	1	11
682.311	1	-4
683.496	1	5
684.682	1	1
685.867	1	8
687.053	1	2
688.238	1	3
688.746	1	-8

File: GaN_sample D_spot 18_UVVIS_170 K_200um_550 ms 2x2mm1_298.txt
340.368	1	-3
341.565	1	4
342.763	1	-5
343.960	1	-4
345.157	1	-7
346.354	1	-3
347.552	1	5
348.749	1	13
349.946	1	10
351.143	1	4
352.340	1	4
353.537	1	-5
354.734	1	1
355.931	1	0
357.127	1	2
358.324	1	0
359.521	1	11
360.718	1	10
361.914	1	3
363.111	1	13
364.308	1	6
365.504	1	1
366.701	1	12
367.897	1	3
369.093	1	4
370.290	1	2
371.486	1	-5
372.682	1	8
373.879	1	15
375.075	1	4
376.271	1	12
377.467	1	6
378.663	1	9
379.859	1	-5
381.055	1	3
382.251	1	7
383.447	1	5
384.643	1	8
385.839	1	3
387.035	1	-1
388.230	1	-6
389.426	1	5
390.622	1	-7
391.817	1	3
393.013	1	-1
394.208	1	8
395.404	1	6
396.599	1	-5
397.795	1	1
398.990	1	-3
400.186	1	-7
401.381	1	11
402.576	1	-15
403.771	1	-1
404.967	1	8
406.162	1	8
407.357	1	0
408.552	1	2
409.747	1	-3
410.942	1	2
412.137	1	-7
413.332	1	4
414.526	1	0
415.721	1	4
416.916	1	-3
418.111	1	14
419.305	1	-1
420.500	1	3
421.695	1	-8
422.889	1	-3
424.084	1	16
425.278	1	-2
426.472	1	-2
427.667	1	-2
428.861	1	7
430.055	1	0
431.250	1	11
432.444	1	7
433.638	1	2
434.832	1	5
436.026	1	-1
437.220	1	5
438.414	1	-2
439.608	1	-3
440.802	1	9
441.996	1	3
443.190	1	5
444.384	1	1
445.578	1	6
446.771	1	-10
447.965	1	-2
449.159	1	-2
450.352	1	-2
451.546	1	-3
452.739	1	0
453.933	1	-4
455.126	1	9
456.320	1	3
457.513	1	10
458.706	1	7
459.899	1	2
461.093	1	4
462.286	1	-18
463.479	1	-13
464.672	1	-3
465.865	1	5
467.058	1	-3
468.251	1	-1
469.444	1	8
470.637	1	7
471.830	1	0
473.023	1	3
474.215	1	0
475.408	1	-3
476.601	1	-5
477.793	1	6
478.986	1	-4
480.179	1	1
481.371	1	-5
482.564	1	-1
483.756	1	-3
484.948	1	-5
486.141	1	12
487.333	1	-6
488.525	1	4
489.718	1	-5
490.910	1	-2
492.102	1	-1
493.294	1	1
494.486	1	2
495.678	1	3
496.870	1	-6
498.062	1	1
499.254	1	1
500.446	1	-7
501.638	1	-14
502.829	1	-5
504.021	1	6
505.213	1	-8
506.404	1	0
507.596	1	1
508.788	1	-9
509.979	1	4
511.171	1	-1
512.362	1	-6
513.553	1	3
514.745	1	-2
515.936	1	-4
517.127	1	8
518.319	1	5
519.510	1	4
520.701	1	11
521.892	1	-1
523.083	1	-1
524.274	1	4
525.465	1	1
526.656	1	13
527.847	1	-5
529.038	1	-7
530.229	1	9
531.419	1	7
532.610	1	8
533.801	1	5
534.991	1	-5
536.182	1	-4
537.373	1	9
538.563	1	-1
539.754	1	3
540.944	1	0
542.134	1	6
543.325	1	-3
544.515	1	-2
545.705	1	4
546.896	1	2
548.086	1	0
549.276	1	10
550.466	1	2
551.656	1	1
552.846	1	9
554.036	1	-1
555.226	1	-13
556.416	1	-2
557.606	1	-3
558.796	1	2
559.986	1	6
561.175	1	-9
562.365	1	-1
563.555	1	-6
564.744	1	2
565.934	1	1
567.123	1	6
568.313	1	1
569.502	1	-4
570.692	1	7
571.881	1	4
573.070	1	-2
574.260	1	6
575.449	1	6
576.638	1	4
577.827	1	-13
579.016	1	4
580.205	1	-10
581.394	1	3
582.583	1	2
583.772	1	-1
584.961	1	-6
586.150	1	-6
587.339	1	-2
588.528	1	-8
589.717	1	7
590.905	1	10
592.094	1	15
593.283	1	8
594.471	1	6
595.660	1	-6
596.848	1	1
598.037	1	0
599.225	1	6
600.413	1	-2
601.602	1	1
602.790	1	5
603.978	1	-2
605.166	1	8
606.355	1	1
607.543	1	3
608.731	1	4
609.919	1	-4
611.107	1	1
612.295	1	-5
613.483	1	-5
614.671	1	12
615.858	1	1
617.046	1	-7
618.234	1	2
619.422	1	-4
620.609	1	7
621.797	1	7
622.985	1	0
624.172	1	-3
625.360	1	4
626.547	1	-1
627.735	1	-5
628.922	1	-9
630.109	1	-4
631.297	1	-7
632.484	1	-5
633.671	1	3
634.858	1	-1
636.045	1	7
637.232	1	-2
638.419	1	-1
639.606	1	-8
640.793	1	-5
641.980	1	-4
643.167	1	-8
644.354	1	0
645.541	1	-1
646.728	1	3
647.914	1	-5
649.101	1	3
650.288	1	0
651.474	1	11
652.661	1	-5
653.847	1	-1
655.034	1	1
656.220	1	-1
657.406	1	-7
658.593	1	9
659.779	1	1
660.965	1	11
662.152	1	-8
663.338	1	15
664.524	1	3
665.710	1	1
666.896	1	-6
668.082	1	10
669.268	1	-1
670.454	1	-12
671.640	1	4
672.826	1	-1
674.011	1	1
675.197	1	-1
676.383	1	4
677.569	1	-9
678.754	1	-3
679.940	1	8
681.125	1	9
682.311	1	0
683.496	1	3
684.682	1	2
685.867	1	6
687.053	1	-5
688.238	1	1
688.746	1	3

File: GaN_sample D_spot 18_UVVIS_170 K_200um_550 ms 2x2mm1_299.txt
340.368	1	0
341.565	1	4
342.763	1	-6
343.960	1	-5
345.157	1	-2
346.354	1	-12
347.552	1	10
348.749	1	0
349.946	1	11
351.143	1	2
352.340	1	1
353.537	1	2
354.734	1	8
355.931	1	3
357.127	1	-6
358.324	1	5
359.521	1	12
360.718	1	4
361.914	1	3
363.111	1	17
364.308	1	6
365.504	1	6
366.701	1	0
367.897	1	7
369.093	1	7
370.290	1	5
371.486	1	-5
372.682	1	10
373.879	1	4
375.075	1	5
376.271	1	13
377.467	1	12
378.663	1	9
379.859	1	1
381.055	1	7
382.251	1	14
383.447	1	4
384.643	1	1
385.839	1	-6
387.035	1	-6
388.230	1	2
389.426	1	4
390.622	1	-2
391.817	1	4
393.013	1	7
394.208	1	13
395.404	1	4
396.599	1	0
397.795	1	-4
398.990	1	-16
400.186	1	-6
401.381	1	7
402.576	1	5
403.771	1	4
404.967	1	2
406.162	1	12
407.357	1	4
408.552	1	-2
409.747	1	7
410.942	1	4
412.137	1	-4
413.332	1	3
414.526	1	11
415.721	1	-5
416.916	1	-12
418.111	1	1
419.305	1	14
420.500	1	-1
421.695	1	-16
422.889	1	-7
424.084	1	14
425.278	1	0
426.472	1	-5
427.667	1	1
428.861	1	-6
430.055	1	2
431.250	1	14
432.444	1	3
433.638	1	8
434.832	1	6
436.026	1	-3
437.220	1	2
438.414	1	-6
439.608	1	-6
440.802	1	7
441.996	1	-5
443.190	1	2
444.384	1	0
445.578	1	6
446.771	1	-6
447.965	1	1
449.159	1	-2
450.352	1	1
451.546	1	-6
452.739	1	8
453.933	1	9
455.126	1	-5
456.320	1	-2
457.513	1	4
458.706	1	9
459.899	1	10
461.093	1	2
462.286	1	-10
463.479	1	-3
464.672	1	-3
465.865	1	-3
467.058	1	4
468.251	1	2
469.444	1	-1
470.637	1	2
471.830	1	2
473.023	1	7
474.215	1	7
475.408	1	-6
476.601	1	2
477.793	1	5
478.986	1	-6
480.179	1	-7
481.371	1	-2
482.564	1	-3
483.756	1	11
484.948	1	-5
486.141	1	10
487.333	1	-6
488.525	1	13
489.718	1	-5
490.910	1	-2
492.102	1	-2
493.294	1	-5
494.486	1	5
495.678	1	7
496.870	1	6
498.062	1	-4
499.254	1	8
500.446	1	0
501.638	1	-4
502.829	1	9
504.021	1	-2
505.213	1	-5
506.404	1	3
507.596	1	-4
508.788	1	-1
509.979	1	-1
511.171	1	8
512.362	1	3
513.553	1	9
514.745	1	0
515.936	1	0
517.127	1	11
518.319	1	8
519.510	1	11
520.701	1	-2
521.892	1	-3
523.083	1	-1
524.274	1	0
525.465	1	0
526.656	1	8
527.847	1	6
529.038	1	-1
530.229	1	10
531.419	1	3
532.610	1	8
533.801	1	1
534.991	1	0
536.182	1	-2
537.373	1	-2
538.563	1	4
539.754	1	6
540.944	1	-7
542.134	1	-6
543.325	1	-1
544.515	1	-2
545.705	1	6
546.896	1	1
548.086	1	5
549.276	1	3
550.466	1	9
551.656	1	8
552.846	1	0
554.036	1	9
555.226	1	1
556.416	1	3
557.606	1	4
558.796	1	2
559.986	1	13
561.175	1	-4
562.365	1	12
563.555	1	0
564.744	1	5
565.934	1	-2
567.123	1	-1
568.313	1	0
569.502	1	4
570.692	1	7
571.881	1	0
573.070	1	7
574.260	1	9
575.449	1	-1
576.638	1	11
577.827	1	0
579.016	1	-5
580.205	1	-6
581.394	1	6
582.583	1	10
583.772	1	0
584.961	1	3
586.150	1	-15
587.339	1	-7
588.528	1	2
589.717	1	3
590.905	1	6
592.094	1	7
593.283	1	10
594.471	1	4
595.660	1	7
596.848	1	3
598.037	1	3
599.225	1	6
600.413	1	-6
601.602	1	2
602.790	1	9
603.978	1	10
605.166	1	0
606.355	1	6
607.543	1	5
608.731	1	7
609.919	1	-13
611.107	1	-6
612.295	1	-2
613.483	1	-4
614.671	1	7
615.858	1	-4
617.046	1	-2
618.234	1	9
619.422	1	-11
620.609	1	3
621.797	1	0
622.985	1	0
624.172	1	4
625.360	1	-1
626.547	1	-1
627.735	1	-12
628.922	1	-8
630.109	1	-8
631.297	1	2
632.484	1	-2
633.671	1	11
634.858	1	5
636.045	1	5
637.232	1	0
638.419	1	-3
639.606	1	-6
640.793	1	-3
641.980	1	-6
643.167	1	-3
644.354	1	3
645.541	1	-5
646.728	1	-6
647.914	1	1
649.101	1	-2
650.288	1	-1
651.474	1	10
652.661	1	5
653.847	1	4
655.034	1	-4
656.220	1	1
657.406	1	2
658.593	1	8
659.779	1	2
660.965	1	13
662.152	1	10
663.338	1	8
664.524	1	1
665.710	1	-1
666.896	1	1
668.082	1	3
669.268	1	-6
670.454	1	-10
671.640	1	1
672.826	1	6
674.011	1	-1
675.197	1	6
676.383	1	3
677.569	1	-10
678.754	1	1
679.940	1	5
681.125	1	5
682.311	1	4
683.496	1	7
684.682	1	4
685.867	1	-3
687.053	1	-12
688.238	1	-3
688.746	1	-5

File: GaN_sample D_spot 18_UVVIS_170 K_200um_550 ms 2x2mm1_300.txt
340.368	1	-2
341.565	1	1
342.763	1	-6
343.960	1	-5
345.157	1	-2
346.354	1	2
347.552	1	7
348.749	1	5
349.946	1	2
351.143	1	-4
352.340	1	-1
353.537	1	0
354.734	1	7
355.931	1	-4
357.127	1	-1
358.324	1	13
359.521	1	4
360.718	1	7
361.914	1	0
363.111	1	14
364.308	1	10
365.504	1	3
366.701	1	11
367.897	1	11
369.093	1	-1
370.290	1	10
371.486	1	-4
372.682	1	8
373.879	1	7
375.075	1	5
376.271	1	13
377.467	1	6
378.663	1	9
379.859	1	-4
381.055	1	2
382.251	1	3
383.447	1	3
384.643	1	-3
385.839	1	-8
387.035	1	7
388.230	1	4
389.426	1	5
390.622	1	2
391.817	1	1
393.013	1	2
394.208	1	1
395.404	1	17
396.599	1	-12
397.795	1	-6
398.990	1	3
400.186	1	-3
401.381	1	7
402.576	1	1
403.771	1	0
404.967	1	3
406.162	1	2
407.357	1	1
408.552	1	-2
409.747	1	2
410.942	1	0
412.137	1	-8
413.332	1	5
414.526	1	6
415.721	1	3
416.916	1	-11
418.111	1	2
419.305	1	-7
420.500	1	2
421.695	1	-7
422.889	1	-6
424.084	1	16
425.278	1	-5
426.472	1	10
427.667	1	-6
428.861	1	1
430.055	1	0
431.250	1	10
432.444	1	4
433.638	1	5
434.832	1	7
436.026	1	-12
437.220	1	4
438.414	1	-9
439.608	1	3
440.802	1	12
441.996	1	-2
443.190	1	7
444.384	1	2
445.578	1	7
446.771	1	-7
447.965	1	-2
449.159	1	-3
450.352	1	-6
451.546	1	-16
452.739	1	6
453.933	1	-2
455.126	1	3
456.320	1	7
457.513	1	3
458.706	1	4
459.899	1	-3
461.093	1	6
462.286	1	0
463.479	1	-5
464.672	1	-1
465.865	1	-3
467.058	1	8
468.251	1	1
469.444	1	0
470.637	1	6
471.830	1	-2
473.023	1	-1
474.215	1	4
475.408	1	-5
476.601	1	2
477.793	1	8
478.986	1	2
480.179	1	-4
481.371	1	5
482.564	1	-3
483.756	1	0
484.948	1	1
486.141	1	12
487.333	1	-2
488.525	1	9
489.718	1	-4
490.910	1	-1
492.102	1	5
493.294	1	5
494.486	1	13
495.678	1	-2
496.870	1	9
498.062	1	-4
499.254	1	11
500.446	1	2
501.638	1	-10
502.829	1	5
504.021	1	3
505.213	1	-4
506.404	1	6
507.596	1	7
508.788	1	-4
509.979	1	7
511.171	1	4
512.362	1	-12
513.553	1	6
514.745	1	-4
515.936	1	-2
517.127	1	6
518.319	1	3
519.510	1	6
520.701	1	5
521.892	1	2
523.083	1	-6
524.274	1	5
525.465	1	-2
526.656	1	6
527.847	1	-1
529.038	1	-4
530.229	1	10
531.419	1	5
532.610	1	3
533.801	1	5
534.991	1	3
536.182	1	1
537.373	1	5
538.563	1	-2
539.754	1	-4
540.944	1	-9
542.134	1	2
543.325	1	7
544.515	1	9
545.705	1	2
546.896	1	2
548.086	1	0
549.276	1	-1
550.466	1	-6
551.656	1	7
552.846	1	-8
554.036	1	2
555.226	1	-11
556.416	1	-3
557.606	1	2
558.796	1	1
559.986	1	8
561.175	1	-15
562.365	1	4
563.555	1	4
564.744	1	6
565.934	1	4
567.123	1	1
568.313	1	-14
569.502	1	-4
570.692	1	9
571.881	1	-8
573.070	1	2
574.260	1	-1
575.449	1	-1
576.638	1	7
577.827	1	-4
579.016	1	6
580.205	1	0
581.394	1	7
582.583	1	-5
583.772	1	-7
584.961	1	1
586.150	1	4
587.339	1	7
588.528	1	3
589.717	1	9
590.905	1	2
592.094	1	-1
593.283	1	8
594.471	1	4
595.660	1	-4
596.848	1	6
598.037	1	5
599.225	1	6
600.413	1	-12
601.602	1	2
602.790	1	6
603.978	1	11
605.166	1	4
606.355	1	12
607.543	1	13
608.731	1	-3
609.919	1	-2
611.107	1	2
612.295	1	11
613.483	1	0
614.671	1	7
615.858	1	0
617.046	1	0
618.234	1	4
619.422	1	-3
620.609	1	4
621.797	1	0
622.985	1	-2
624.172	1	-2
625.360	1	9
626.547	1	-3
627.735	1	-9
628.922	1	-1
630.109	1	-6
631.297	1	-1
632.484	1	-10
633.671	1	11
634.858	1	4
636.045	1	-1
637.232	1	4
638.419	1	-2
639.606	1	8
640.793	1	0
641.980	1	-8
643.167	1	0
644.354	1	9
645.541	1	9
646.728	1	4
647.914	1	-1
649.101	1	4
650.288	1	1
651.474	1	7
652.661	1	5
653.847	1	-1
655.034	1	-5
656.220	1	9
657.406	1	4
658.593	1	-1
659.779	1	3
660.965	1	10
662.152	1	-2
663.338	1	6
664.524	1	4
665.710	1	-1
666.896	1	1
668.082	1	11
669.268	1	-4
670.454	1	-4
671.640	1	-6
672.826	1	3
674.011	1	2
675.197	1	4
676.383	1	6
677.569	1	-3
678.754	1	4
679.940	1	5
681.125	1	3
682.311	1	-2
683.496	1	8
684.682	1	9
685.867	1	5
687.053	1	-11
688.238	1	-1
688.746	1	-4