Folder: cryo-il_analysis/Data/GaN_150K_450ms (part 10)

File: GaN_sample D_spot15_UVVIS_150 K_200um_450 ms 2x2mm1_91.txt
340.368	1	-1
341.565	1	10
342.763	1	-2
343.960	1	11
345.157	1	17
346.354	1	0
347.552	1	24
348.749	1	21
349.946	1	11
351.143	1	11
352.340	1	12
353.537	1	7
354.734	1	15
355.931	1	24
357.127	1	16
358.324	1	17
359.521	1	28
360.718	1	31
361.914	1	41
363.111	1	45
364.308	1	65
365.504	1	86
366.701	1	108
367.897	1	115
369.093	1	122
370.290	1	102
371.486	1	89
372.682	1	76
373.879	1	52
375.075	1	47
376.271	1	48
377.467	1	39
378.663	1	39
379.859	1	32
381.055	1	20
382.251	1	22
383.447	1	24
384.643	1	15
385.839	1	24
387.035	1	19
388.230	1	10
389.426	1	12
390.622	1	13
391.817	1	4
393.013	1	12
394.208	1	10
395.404	1	22
396.599	1	14
397.795	1	16
398.990	1	19
400.186	1	20
401.381	1	0
402.576	1	17
403.771	1	3
404.967	1	18
406.162	1	-1
407.357	1	8
408.552	1	9
409.747	1	15
410.942	1	17
412.137	1	14
413.332	1	16
414.526	1	10
415.721	1	13
416.916	1	15
418.111	1	13
419.305	1	18
420.500	1	21
421.695	1	22
422.889	1	12
424.084	1	14
425.278	1	15
426.472	1	21
427.667	1	9
428.861	1	11
430.055	1	19
431.250	1	20
432.444	1	13
433.638	1	16
434.832	1	14
436.026	1	9
437.220	1	18
438.414	1	15
439.608	1	10
440.802	1	13
441.996	1	1
443.190	1	13
444.384	1	14
445.578	1	4
446.771	1	10
447.965	1	13
449.159	1	17
450.352	1	5
451.546	1	5
452.739	1	7
453.933	1	10
455.126	1	7
456.320	1	18
457.513	1	3
458.706	1	23
459.899	1	1
461.093	1	7
462.286	1	-2
463.479	1	1
464.672	1	5
465.865	1	9
467.058	1	6
468.251	1	3
469.444	1	15
470.637	1	22
471.830	1	7
473.023	1	14
474.215	1	6
475.408	1	12
476.601	1	8
477.793	1	4
478.986	1	21
480.179	1	15
481.371	1	5
482.564	1	12
483.756	1	6
484.948	1	12
486.141	1	18
487.333	1	-3
488.525	1	10
489.718	1	8
490.910	1	15
492.102	1	12
493.294	1	11
494.486	1	13
495.678	1	10
496.870	1	16
498.062	1	13
499.254	1	9
500.446	1	0
501.638	1	13
502.829	1	15
504.021	1	19
505.213	1	14
506.404	1	17
507.596	1	24
508.788	1	25
509.979	1	22
511.171	1	21
512.362	1	27
513.553	1	30
514.745	1	37
515.936	1	29
517.127	1	29
518.319	1	31
519.510	1	24
520.701	1	34
521.892	1	39
523.083	1	25
524.274	1	23
525.465	1	42
526.656	1	31
527.847	1	20
529.038	1	34
530.229	1	48
531.419	1	24
532.610	1	45
533.801	1	28
534.991	1	30
536.182	1	31
537.373	1	22
538.563	1	33
539.754	1	28
540.944	1	33
542.134	1	17
543.325	1	39
544.515	1	25
545.705	1	24
546.896	1	36
548.086	1	28
549.276	1	20
550.466	1	24
551.656	1	32
552.846	1	30
554.036	1	26
555.226	1	24
556.416	1	34
557.606	1	13
558.796	1	27
559.986	1	26
561.175	1	19
562.365	1	13
563.555	1	23
564.744	1	23
565.934	1	30
567.123	1	25
568.313	1	10
569.502	1	17
570.692	1	29
571.881	1	5
573.070	1	17
574.260	1	14
575.449	1	9
576.638	1	20
577.827	1	3
579.016	1	11
580.205	1	2
581.394	1	17
582.583	1	15
583.772	1	19
584.961	1	15
586.150	1	19
587.339	1	14
588.528	1	17
589.717	1	11
590.905	1	-2
592.094	1	14
593.283	1	16
594.471	1	1
595.660	1	17
596.848	1	12
598.037	1	3
599.225	1	12
600.413	1	7
601.602	1	-4
602.790	1	7
603.978	1	5
605.166	1	10
606.355	1	-3
607.543	1	15
608.731	1	1
609.919	1	-6
611.107	1	14
612.295	1	3
613.483	1	4
614.671	1	8
615.858	1	-3
617.046	1	14
618.234	1	3
619.422	1	22
620.609	1	9
621.797	1	6
622.985	1	9
624.172	1	11
625.360	1	1
626.547	1	0
627.735	1	-3
628.922	1	12
630.109	1	1
631.297	1	11
632.484	1	6
633.671	1	18
634.858	1	11
636.045	1	1
637.232	1	5
638.419	1	2
639.606	1	26
640.793	1	13
641.980	1	10
643.167	1	0
644.354	1	21
645.541	1	3
646.728	1	5
647.914	1	7
649.101	1	-4
650.288	1	6
651.474	1	0
652.661	1	5
653.847	1	3
655.034	1	4
656.220	1	8
657.406	1	6
658.593	1	10
659.779	1	8
660.965	1	0
662.152	1	6
663.338	1	-1
664.524	1	19
665.710	1	12
666.896	1	7
668.082	1	7
669.268	1	0
670.454	1	12
671.640	1	6
672.826	1	5
674.011	1	13
675.197	1	9
676.383	1	3
677.569	1	15
678.754	1	4
679.940	1	1
681.125	1	-7
682.311	1	14
683.496	1	1
684.682	1	14
685.867	1	10
687.053	1	21
688.238	1	7
688.746	1	-1

File: GaN_sample D_spot15_UVVIS_150 K_200um_450 ms 2x2mm1_92.txt
340.368	1	6
341.565	1	11
342.763	1	-5
343.960	1	8
345.157	1	2
346.354	1	11
347.552	1	9
348.749	1	14
349.946	1	-3
351.143	1	6
352.340	1	17
353.537	1	3
354.734	1	10
355.931	1	24
357.127	1	26
358.324	1	15
359.521	1	30
360.718	1	28
361.914	1	49
363.111	1	45
364.308	1	75
365.504	1	85
366.701	1	101
367.897	1	112
369.093	1	128
370.290	1	109
371.486	1	87
372.682	1	71
373.879	1	57
375.075	1	46
376.271	1	31
377.467	1	45
378.663	1	29
379.859	1	28
381.055	1	36
382.251	1	14
383.447	1	20
384.643	1	13
385.839	1	26
387.035	1	22
388.230	1	20
389.426	1	9
390.622	1	13
391.817	1	2
393.013	1	20
394.208	1	13
395.404	1	18
396.599	1	19
397.795	1	9
398.990	1	20
400.186	1	10
401.381	1	8
402.576	1	18
403.771	1	6
404.967	1	15
406.162	1	9
407.357	1	19
408.552	1	-5
409.747	1	12
410.942	1	18
412.137	1	10
413.332	1	16
414.526	1	1
415.721	1	5
416.916	1	8
418.111	1	26
419.305	1	15
420.500	1	19
421.695	1	22
422.889	1	24
424.084	1	21
425.278	1	18
426.472	1	22
427.667	1	16
428.861	1	23
430.055	1	20
431.250	1	17
432.444	1	19
433.638	1	21
434.832	1	6
436.026	1	22
437.220	1	17
438.414	1	16
439.608	1	0
440.802	1	21
441.996	1	19
443.190	1	14
444.384	1	14
445.578	1	6
446.771	1	19
447.965	1	9
449.159	1	7
450.352	1	13
451.546	1	8
452.739	1	9
453.933	1	3
455.126	1	12
456.320	1	23
457.513	1	5
458.706	1	19
459.899	1	6
461.093	1	0
462.286	1	6
463.479	1	8
464.672	1	15
465.865	1	2
467.058	1	5
468.251	1	5
469.444	1	15
470.637	1	8
471.830	1	12
473.023	1	7
474.215	1	8
475.408	1	12
476.601	1	11
477.793	1	9
478.986	1	14
480.179	1	9
481.371	1	3
482.564	1	4
483.756	1	6
484.948	1	7
486.141	1	12
487.333	1	2
488.525	1	10
489.718	1	4
490.910	1	14
492.102	1	13
493.294	1	1
494.486	1	5
495.678	1	8
496.870	1	19
498.062	1	18
499.254	1	10
500.446	1	15
501.638	1	26
502.829	1	14
504.021	1	20
505.213	1	13
506.404	1	21
507.596	1	28
508.788	1	27
509.979	1	28
511.171	1	30
512.362	1	23
513.553	1	26
514.745	1	36
515.936	1	18
517.127	1	50
518.319	1	29
519.510	1	30
520.701	1	35
521.892	1	33
523.083	1	27
524.274	1	28
525.465	1	34
526.656	1	31
527.847	1	24
529.038	1	39
530.229	1	36
531.419	1	31
532.610	1	44
533.801	1	43
534.991	1	35
536.182	1	27
537.373	1	23
538.563	1	22
539.754	1	33
540.944	1	29
542.134	1	29
543.325	1	23
544.515	1	19
545.705	1	36
546.896	1	34
548.086	1	25
549.276	1	23
550.466	1	29
551.656	1	21
552.846	1	27
554.036	1	33
555.226	1	29
556.416	1	20
557.606	1	10
558.796	1	28
559.986	1	25
561.175	1	21
562.365	1	26
563.555	1	21
564.744	1	21
565.934	1	31
567.123	1	14
568.313	1	17
569.502	1	13
570.692	1	19
571.881	1	10
573.070	1	15
574.260	1	20
575.449	1	9
576.638	1	14
577.827	1	10
579.016	1	13
580.205	1	25
581.394	1	7
582.583	1	14
583.772	1	19
584.961	1	-1
586.150	1	9
587.339	1	13
588.528	1	8
589.717	1	9
590.905	1	8
592.094	1	16
593.283	1	5
594.471	1	8
595.660	1	10
596.848	1	16
598.037	1	10
599.225	1	0
600.413	1	5
601.602	1	25
602.790	1	10
603.978	1	8
605.166	1	7
606.355	1	-1
607.543	1	8
608.731	1	-3
609.919	1	14
611.107	1	14
612.295	1	5
613.483	1	10
614.671	1	4
615.858	1	-1
617.046	1	2
618.234	1	-6
619.422	1	18
620.609	1	7
621.797	1	7
622.985	1	-2
624.172	1	11
625.360	1	6
626.547	1	-9
627.735	1	4
628.922	1	12
630.109	1	-5
631.297	1	9
632.484	1	10
633.671	1	16
634.858	1	7
636.045	1	3
637.232	1	9
638.419	1	7
639.606	1	16
640.793	1	2
641.980	1	13
643.167	1	10
644.354	1	18
645.541	1	6
646.728	1	7
647.914	1	8
649.101	1	6
650.288	1	10
651.474	1	9
652.661	1	2
653.847	1	6
655.034	1	0
656.220	1	4
657.406	1	-6
658.593	1	21
659.779	1	7
660.965	1	13
662.152	1	6
663.338	1	0
664.524	1	4
665.710	1	13
666.896	1	15
668.082	1	8
669.268	1	0
670.454	1	18
671.640	1	6
672.826	1	8
674.011	1	8
675.197	1	-1
676.383	1	0
677.569	1	23
678.754	1	11
679.940	1	1
681.125	1	4
682.311	1	13
683.496	1	8
684.682	1	9
685.867	1	10
687.053	1	19
688.238	1	15
688.746	1	6

File: GaN_sample D_spot15_UVVIS_150 K_200um_450 ms 2x2mm1_93.txt
340.368	1	2
341.565	1	12
342.763	1	0
343.960	1	0
345.157	1	6
346.354	1	6
347.552	1	20
348.749	1	17
349.946	1	1
351.143	1	14
352.340	1	7
353.537	1	0
354.734	1	11
355.931	1	10
357.127	1	16
358.324	1	22
359.521	1	24
360.718	1	25
361.914	1	40
363.111	1	45
364.308	1	60
365.504	1	77
366.701	1	97
367.897	1	104
369.093	1	109
370.290	1	92
371.486	1	85
372.682	1	69
373.879	1	53
375.075	1	37
376.271	1	47
377.467	1	36
378.663	1	35
379.859	1	27
381.055	1	22
382.251	1	10
383.447	1	12
384.643	1	21
385.839	1	13
387.035	1	27
388.230	1	21
389.426	1	4
390.622	1	5
391.817	1	10
393.013	1	24
394.208	1	12
395.404	1	16
396.599	1	9
397.795	1	7
398.990	1	20
400.186	1	19
401.381	1	10
402.576	1	12
403.771	1	-3
404.967	1	9
406.162	1	5
407.357	1	19
408.552	1	12
409.747	1	19
410.942	1	20
412.137	1	8
413.332	1	12
414.526	1	4
415.721	1	17
416.916	1	16
418.111	1	21
419.305	1	17
420.500	1	14
421.695	1	18
422.889	1	17
424.084	1	14
425.278	1	16
426.472	1	18
427.667	1	20
428.861	1	10
430.055	1	18
431.250	1	25
432.444	1	14
433.638	1	24
434.832	1	7
436.026	1	8
437.220	1	19
438.414	1	15
439.608	1	10
440.802	1	9
441.996	1	10
443.190	1	13
444.384	1	25
445.578	1	9
446.771	1	17
447.965	1	6
449.159	1	-3
450.352	1	16
451.546	1	11
452.739	1	15
453.933	1	14
455.126	1	12
456.320	1	13
457.513	1	15
458.706	1	19
459.899	1	7
461.093	1	17
462.286	1	12
463.479	1	11
464.672	1	9
465.865	1	8
467.058	1	13
468.251	1	5
469.444	1	5
470.637	1	8
471.830	1	7
473.023	1	8
474.215	1	14
475.408	1	7
476.601	1	4
477.793	1	3
478.986	1	19
480.179	1	12
481.371	1	-2
482.564	1	15
483.756	1	12
484.948	1	2
486.141	1	16
487.333	1	6
488.525	1	12
489.718	1	4
490.910	1	4
492.102	1	16
493.294	1	4
494.486	1	9
495.678	1	8
496.870	1	16
498.062	1	15
499.254	1	11
500.446	1	13
501.638	1	15
502.829	1	16
504.021	1	15
505.213	1	13
506.404	1	29
507.596	1	22
508.788	1	27
509.979	1	18
511.171	1	35
512.362	1	20
513.553	1	27
514.745	1	11
515.936	1	27
517.127	1	27
518.319	1	27
519.510	1	24
520.701	1	27
521.892	1	20
523.083	1	23
524.274	1	23
525.465	1	38
526.656	1	42
527.847	1	14
529.038	1	29
530.229	1	32
531.419	1	37
532.610	1	40
533.801	1	41
534.991	1	31
536.182	1	20
537.373	1	32
538.563	1	26
539.754	1	28
540.944	1	30
542.134	1	19
543.325	1	31
544.515	1	25
545.705	1	11
546.896	1	29
548.086	1	20
549.276	1	25
550.466	1	32
551.656	1	19
552.846	1	22
554.036	1	29
555.226	1	22
556.416	1	22
557.606	1	19
558.796	1	24
559.986	1	17
561.175	1	19
562.365	1	14
563.555	1	15
564.744	1	23
565.934	1	21
567.123	1	7
568.313	1	9
569.502	1	14
570.692	1	17
571.881	1	15
573.070	1	20
574.260	1	11
575.449	1	2
576.638	1	19
577.827	1	12
579.016	1	12
580.205	1	13
581.394	1	11
582.583	1	15
583.772	1	15
584.961	1	5
586.150	1	11
587.339	1	18
588.528	1	3
589.717	1	10
590.905	1	6
592.094	1	13
593.283	1	11
594.471	1	-3
595.660	1	8
596.848	1	10
598.037	1	5
599.225	1	6
600.413	1	6
601.602	1	8
602.790	1	6
603.978	1	8
605.166	1	13
606.355	1	-3
607.543	1	12
608.731	1	5
609.919	1	5
611.107	1	14
612.295	1	10
613.483	1	13
614.671	1	6
615.858	1	4
617.046	1	5
618.234	1	4
619.422	1	19
620.609	1	-6
621.797	1	7
622.985	1	2
624.172	1	12
625.360	1	8
626.547	1	4
627.735	1	9
628.922	1	9
630.109	1	-2
631.297	1	15
632.484	1	7
633.671	1	9
634.858	1	17
636.045	1	-4
637.232	1	8
638.419	1	-1
639.606	1	13
640.793	1	-5
641.980	1	14
643.167	1	10
644.354	1	9
645.541	1	-1
646.728	1	13
647.914	1	5
649.101	1	-4
650.288	1	3
651.474	1	8
652.661	1	10
653.847	1	9
655.034	1	8
656.220	1	4
657.406	1	-4
658.593	1	10
659.779	1	8
660.965	1	4
662.152	1	-4
663.338	1	-3
664.524	1	12
665.710	1	16
666.896	1	2
668.082	1	6
669.268	1	-1
670.454	1	2
671.640	1	3
672.826	1	3
674.011	1	11
675.197	1	10
676.383	1	9
677.569	1	13
678.754	1	7
679.940	1	-5
681.125	1	1
682.311	1	12
683.496	1	2
684.682	1	13
685.867	1	8
687.053	1	24
688.238	1	20
688.746	1	5

File: GaN_sample D_spot15_UVVIS_150 K_200um_450 ms 2x2mm1_94.txt
340.368	1	10
341.565	1	4
342.763	1	9
343.960	1	8
345.157	1	8
346.354	1	7
347.552	1	21
348.749	1	8
349.946	1	4
351.143	1	16
352.340	1	11
353.537	1	6
354.734	1	9
355.931	1	13
357.127	1	17
358.324	1	20
359.521	1	18
360.718	1	24
361.914	1	36
363.111	1	44
364.308	1	65
365.504	1	72
366.701	1	89
367.897	1	105
369.093	1	105
370.290	1	115
371.486	1	91
372.682	1	58
373.879	1	63
375.075	1	46
376.271	1	36
377.467	1	45
378.663	1	28
379.859	1	27
381.055	1	24
382.251	1	13
383.447	1	16
384.643	1	14
385.839	1	21
387.035	1	13
388.230	1	17
389.426	1	14
390.622	1	14
391.817	1	7
393.013	1	14
394.208	1	15
395.404	1	16
396.599	1	16
397.795	1	5
398.990	1	22
400.186	1	13
401.381	1	14
402.576	1	12
403.771	1	5
404.967	1	22
406.162	1	9
407.357	1	9
408.552	1	5
409.747	1	11
410.942	1	17
412.137	1	7
413.332	1	19
414.526	1	5
415.721	1	17
416.916	1	12
418.111	1	18
419.305	1	17
420.500	1	12
421.695	1	18
422.889	1	13
424.084	1	20
425.278	1	11
426.472	1	19
427.667	1	10
428.861	1	20
430.055	1	16
431.250	1	17
432.444	1	15
433.638	1	18
434.832	1	10
436.026	1	11
437.220	1	21
438.414	1	15
439.608	1	11
440.802	1	24
441.996	1	11
443.190	1	16
444.384	1	17
445.578	1	7
446.771	1	6
447.965	1	10
449.159	1	8
450.352	1	5
451.546	1	13
452.739	1	12
453.933	1	0
455.126	1	12
456.320	1	15
457.513	1	12
458.706	1	13
459.899	1	3
461.093	1	18
462.286	1	-5
463.479	1	9
464.672	1	13
465.865	1	8
467.058	1	4
468.251	1	1
469.444	1	6
470.637	1	1
471.830	1	11
473.023	1	14
474.215	1	15
475.408	1	7
476.601	1	7
477.793	1	9
478.986	1	16
480.179	1	16
481.371	1	0
482.564	1	5
483.756	1	4
484.948	1	12
486.141	1	14
487.333	1	4
488.525	1	8
489.718	1	7
490.910	1	14
492.102	1	15
493.294	1	-1
494.486	1	6
495.678	1	4
496.870	1	7
498.062	1	16
499.254	1	12
500.446	1	16
501.638	1	19
502.829	1	9
504.021	1	23
505.213	1	13
506.404	1	18
507.596	1	23
508.788	1	19
509.979	1	22
511.171	1	24
512.362	1	34
513.553	1	22
514.745	1	28
515.936	1	24
517.127	1	24
518.319	1	26
519.510	1	15
520.701	1	31
521.892	1	30
523.083	1	27
524.274	1	37
525.465	1	33
526.656	1	26
527.847	1	24
529.038	1	34
530.229	1	43
531.419	1	37
532.610	1	38
533.801	1	37
534.991	1	28
536.182	1	30
537.373	1	23
538.563	1	30
539.754	1	25
540.944	1	26
542.134	1	26
543.325	1	32
544.515	1	24
545.705	1	27
546.896	1	24
548.086	1	24
549.276	1	26
550.466	1	22
551.656	1	34
552.846	1	28
554.036	1	38
555.226	1	20
556.416	1	31
557.606	1	13
558.796	1	22
559.986	1	15
561.175	1	18
562.365	1	15
563.555	1	19
564.744	1	23
565.934	1	31
567.123	1	19
568.313	1	21
569.502	1	18
570.692	1	16
571.881	1	10
573.070	1	19
574.260	1	15
575.449	1	8
576.638	1	16
577.827	1	5
579.016	1	13
580.205	1	10
581.394	1	20
582.583	1	13
583.772	1	22
584.961	1	3
586.150	1	14
587.339	1	17
588.528	1	7
589.717	1	9
590.905	1	9
592.094	1	10
593.283	1	7
594.471	1	3
595.660	1	19
596.848	1	13
598.037	1	10
599.225	1	11
600.413	1	8
601.602	1	12
602.790	1	12
603.978	1	4
605.166	1	11
606.355	1	-2
607.543	1	11
608.731	1	2
609.919	1	3
611.107	1	17
612.295	1	5
613.483	1	-1
614.671	1	8
615.858	1	6
617.046	1	2
618.234	1	9
619.422	1	23
620.609	1	12
621.797	1	11
622.985	1	5
624.172	1	12
625.360	1	6
626.547	1	10
627.735	1	-1
628.922	1	3
630.109	1	-6
631.297	1	8
632.484	1	21
633.671	1	11
634.858	1	9
636.045	1	-2
637.232	1	11
638.419	1	-2
639.606	1	8
640.793	1	6
641.980	1	2
643.167	1	4
644.354	1	12
645.541	1	9
646.728	1	7
647.914	1	12
649.101	1	15
650.288	1	6
651.474	1	11
652.661	1	16
653.847	1	11
655.034	1	3
656.220	1	10
657.406	1	-5
658.593	1	12
659.779	1	12
660.965	1	-1
662.152	1	6
663.338	1	-3
664.524	1	13
665.710	1	19
666.896	1	2
668.082	1	3
669.268	1	1
670.454	1	11
671.640	1	11
672.826	1	10
674.011	1	9
675.197	1	8
676.383	1	2
677.569	1	18
678.754	1	4
679.940	1	4
681.125	1	-2
682.311	1	11
683.496	1	4
684.682	1	12
685.867	1	5
687.053	1	13
688.238	1	13
688.746	1	3

File: GaN_sample D_spot15_UVVIS_150 K_200um_450 ms 2x2mm1_95.txt
340.368	1	4
341.565	1	11
342.763	1	9
343.960	1	12
345.157	1	10
346.354	1	11
347.552	1	9
348.749	1	12
349.946	1	3
351.143	1	12
352.340	1	17
353.537	1	13
354.734	1	14
355.931	1	17
357.127	1	10
358.324	1	21
359.521	1	24
360.718	1	18
361.914	1	32
363.111	1	37
364.308	1	63
365.504	1	75
366.701	1	86
367.897	1	112
369.093	1	105
370.290	1	101
371.486	1	78
372.682	1	67
373.879	1	70
375.075	1	41
376.271	1	43
377.467	1	58
378.663	1	37
379.859	1	29
381.055	1	33
382.251	1	12
383.447	1	7
384.643	1	15
385.839	1	17
387.035	1	15
388.230	1	11
389.426	1	7
390.622	1	9
391.817	1	8
393.013	1	12
394.208	1	13
395.404	1	14
396.599	1	19
397.795	1	4
398.990	1	26
400.186	1	18
401.381	1	9
402.576	1	14
403.771	1	6
404.967	1	16
406.162	1	5
407.357	1	21
408.552	1	9
409.747	1	12
410.942	1	20
412.137	1	9
413.332	1	14
414.526	1	6
415.721	1	12
416.916	1	3
418.111	1	22
419.305	1	15
420.500	1	19
421.695	1	23
422.889	1	14
424.084	1	14
425.278	1	20
426.472	1	16
427.667	1	13
428.861	1	18
430.055	1	22
431.250	1	20
432.444	1	12
433.638	1	17
434.832	1	-1
436.026	1	8
437.220	1	19
438.414	1	21
439.608	1	11
440.802	1	17
441.996	1	10
443.190	1	10
444.384	1	9
445.578	1	9
446.771	1	19
447.965	1	10
449.159	1	8
450.352	1	1
451.546	1	10
452.739	1	11
453.933	1	1
455.126	1	8
456.320	1	12
457.513	1	9
458.706	1	14
459.899	1	-2
461.093	1	12
462.286	1	-3
463.479	1	2
464.672	1	7
465.865	1	6
467.058	1	9
468.251	1	0
469.444	1	8
470.637	1	0
471.830	1	6
473.023	1	9
474.215	1	4
475.408	1	4
476.601	1	4
477.793	1	3
478.986	1	9
480.179	1	15
481.371	1	4
482.564	1	10
483.756	1	10
484.948	1	8
486.141	1	20
487.333	1	-4
488.525	1	2
489.718	1	4
490.910	1	15
492.102	1	15
493.294	1	4
494.486	1	13
495.678	1	3
496.870	1	13
498.062	1	14
499.254	1	7
500.446	1	7
501.638	1	24
502.829	1	16
504.021	1	13
505.213	1	10
506.404	1	21
507.596	1	31
508.788	1	18
509.979	1	13
511.171	1	33
512.362	1	31
513.553	1	26
514.745	1	20
515.936	1	18
517.127	1	30
518.319	1	21
519.510	1	21
520.701	1	35
521.892	1	35
523.083	1	26
524.274	1	19
525.465	1	31
526.656	1	35
527.847	1	11
529.038	1	30
530.229	1	35
531.419	1	24
532.610	1	30
533.801	1	36
534.991	1	37
536.182	1	27
537.373	1	28
538.563	1	20
539.754	1	29
540.944	1	38
542.134	1	38
543.325	1	30
544.515	1	24
545.705	1	24
546.896	1	27
548.086	1	24
549.276	1	35
550.466	1	19
551.656	1	22
552.846	1	27
554.036	1	33
555.226	1	20
556.416	1	17
557.606	1	10
558.796	1	22
559.986	1	26
561.175	1	11
562.365	1	17
563.555	1	30
564.744	1	26
565.934	1	22
567.123	1	12
568.313	1	20
569.502	1	16
570.692	1	18
571.881	1	21
573.070	1	13
574.260	1	12
575.449	1	9
576.638	1	16
577.827	1	5
579.016	1	23
580.205	1	14
581.394	1	8
582.583	1	17
583.772	1	22
584.961	1	7
586.150	1	12
587.339	1	12
588.528	1	1
589.717	1	4
590.905	1	3
592.094	1	17
593.283	1	16
594.471	1	6
595.660	1	9
596.848	1	16
598.037	1	5
599.225	1	8
600.413	1	4
601.602	1	18
602.790	1	13
603.978	1	9
605.166	1	6
606.355	1	5
607.543	1	10
608.731	1	-6
609.919	1	-1
611.107	1	15
612.295	1	15
613.483	1	2
614.671	1	3
615.858	1	-3
617.046	1	-5
618.234	1	4
619.422	1	17
620.609	1	-1
621.797	1	0
622.985	1	11
624.172	1	4
625.360	1	2
626.547	1	4
627.735	1	3
628.922	1	14
630.109	1	8
631.297	1	5
632.484	1	11
633.671	1	14
634.858	1	6
636.045	1	1
637.232	1	1
638.419	1	7
639.606	1	18
640.793	1	2
641.980	1	12
643.167	1	9
644.354	1	15
645.541	1	6
646.728	1	11
647.914	1	3
649.101	1	-4
650.288	1	10
651.474	1	8
652.661	1	16
653.847	1	7
655.034	1	8
656.220	1	5
657.406	1	6
658.593	1	14
659.779	1	14
660.965	1	3
662.152	1	5
663.338	1	6
664.524	1	10
665.710	1	10
666.896	1	7
668.082	1	15
669.268	1	2
670.454	1	6
671.640	1	9
672.826	1	-7
674.011	1	13
675.197	1	9
676.383	1	-2
677.569	1	24
678.754	1	6
679.940	1	-3
681.125	1	6
682.311	1	8
683.496	1	3
684.682	1	15
685.867	1	6
687.053	1	25
688.238	1	17
688.746	1	12

File: GaN_sample D_spot15_UVVIS_150 K_200um_450 ms 2x2mm1_96.txt
340.368	1	8
341.565	1	8
342.763	1	0
343.960	1	0
345.157	1	12
346.354	1	2
347.552	1	13
348.749	1	10
349.946	1	8
351.143	1	14
352.340	1	13
353.537	1	1
354.734	1	13
355.931	1	13
357.127	1	18
358.324	1	10
359.521	1	27
360.718	1	22
361.914	1	41
363.111	1	45
364.308	1	52
365.504	1	62
366.701	1	87
367.897	1	100
369.093	1	107
370.290	1	92
371.486	1	78
372.682	1	64
373.879	1	57
375.075	1	37
376.271	1	47
377.467	1	42
378.663	1	34
379.859	1	19
381.055	1	28
382.251	1	20
383.447	1	11
384.643	1	14
385.839	1	21
387.035	1	27
388.230	1	18
389.426	1	17
390.622	1	10
391.817	1	-1
393.013	1	21
394.208	1	8
395.404	1	9
396.599	1	11
397.795	1	13
398.990	1	9
400.186	1	15
401.381	1	4
402.576	1	11
403.771	1	8
404.967	1	12
406.162	1	8
407.357	1	14
408.552	1	14
409.747	1	5
410.942	1	26
412.137	1	6
413.332	1	12
414.526	1	5
415.721	1	15
416.916	1	5
418.111	1	11
419.305	1	19
420.500	1	15
421.695	1	15
422.889	1	9
424.084	1	19
425.278	1	25
426.472	1	20
427.667	1	6
428.861	1	19
430.055	1	12
431.250	1	9
432.444	1	10
433.638	1	15
434.832	1	14
436.026	1	2
437.220	1	18
438.414	1	14
439.608	1	6
440.802	1	8
441.996	1	10
443.190	1	15
444.384	1	18
445.578	1	8
446.771	1	10
447.965	1	19
449.159	1	-8
450.352	1	7
451.546	1	-1
452.739	1	9
453.933	1	15
455.126	1	8
456.320	1	10
457.513	1	8
458.706	1	11
459.899	1	12
461.093	1	16
462.286	1	3
463.479	1	3
464.672	1	12
465.865	1	8
467.058	1	5
468.251	1	0
469.444	1	6
470.637	1	6
471.830	1	8
473.023	1	8
474.215	1	8
475.408	1	3
476.601	1	11
477.793	1	5
478.986	1	6
480.179	1	10
481.371	1	3
482.564	1	14
483.756	1	18
484.948	1	7
486.141	1	18
487.333	1	-2
488.525	1	0
489.718	1	-2
490.910	1	13
492.102	1	12
493.294	1	3
494.486	1	13
495.678	1	14
496.870	1	15
498.062	1	0
499.254	1	9
500.446	1	10
501.638	1	13
502.829	1	11
504.021	1	12
505.213	1	22
506.404	1	12
507.596	1	27
508.788	1	34
509.979	1	18
511.171	1	19
512.362	1	26
513.553	1	19
514.745	1	18
515.936	1	23
517.127	1	31
518.319	1	25
519.510	1	15
520.701	1	33
521.892	1	21
523.083	1	24
524.274	1	24
525.465	1	34
526.656	1	32
527.847	1	17
529.038	1	23
530.229	1	34
531.419	1	30
532.610	1	26
533.801	1	31
534.991	1	20
536.182	1	27
537.373	1	14
538.563	1	20
539.754	1	20
540.944	1	30
542.134	1	21
543.325	1	29
544.515	1	19
545.705	1	26
546.896	1	23
548.086	1	22
549.276	1	27
550.466	1	16
551.656	1	25
552.846	1	23
554.036	1	34
555.226	1	22
556.416	1	26
557.606	1	5
558.796	1	26
559.986	1	15
561.175	1	13
562.365	1	19
563.555	1	16
564.744	1	25
565.934	1	22
567.123	1	7
568.313	1	20
569.502	1	13
570.692	1	17
571.881	1	12
573.070	1	17
574.260	1	20
575.449	1	13
576.638	1	10
577.827	1	10
579.016	1	13
580.205	1	14
581.394	1	12
582.583	1	13
583.772	1	19
584.961	1	3
586.150	1	15
587.339	1	14
588.528	1	3
589.717	1	5
590.905	1	6
592.094	1	14
593.283	1	10
594.471	1	-2
595.660	1	1
596.848	1	11
598.037	1	8
599.225	1	4
600.413	1	8
601.602	1	10
602.790	1	18
603.978	1	6
605.166	1	9
606.355	1	-10
607.543	1	10
608.731	1	-4
609.919	1	5
611.107	1	16
612.295	1	8
613.483	1	13
614.671	1	9
615.858	1	-3
617.046	1	6
618.234	1	0
619.422	1	16
620.609	1	7
621.797	1	-1
622.985	1	1
624.172	1	7
625.360	1	2
626.547	1	5
627.735	1	0
628.922	1	18
630.109	1	-6
631.297	1	14
632.484	1	6
633.671	1	14
634.858	1	5
636.045	1	2
637.232	1	7
638.419	1	1
639.606	1	6
640.793	1	5
641.980	1	16
643.167	1	11
644.354	1	3
645.541	1	20
646.728	1	10
647.914	1	9
649.101	1	7
650.288	1	6
651.474	1	14
652.661	1	13
653.847	1	13
655.034	1	-5
656.220	1	2
657.406	1	4
658.593	1	3
659.779	1	7
660.965	1	6
662.152	1	12
663.338	1	5
664.524	1	16
665.710	1	2
666.896	1	13
668.082	1	8
669.268	1	0
670.454	1	8
671.640	1	12
672.826	1	6
674.011	1	6
675.197	1	10
676.383	1	9
677.569	1	13
678.754	1	3
679.940	1	6
681.125	1	9
682.311	1	7
683.496	1	-3
684.682	1	17
685.867	1	2
687.053	1	22
688.238	1	7
688.746	1	8