Folder: cryo-il_analysis/Data/GaN_200K_800ms (part 5)

File: GaN_sample F_spot 12_UVVIS_200 K_200um_800 ms 2x2mm1_41.txt
340.368	1	10
341.565	1	-3
342.763	1	13
343.960	1	13
345.157	1	5
346.354	1	4
347.552	1	3
348.749	1	-3
349.946	1	6
351.143	1	12
352.340	1	28
353.537	1	19
354.734	1	34
355.931	1	34
357.127	1	45
358.324	1	55
359.521	1	78
360.718	1	114
361.914	1	161
363.111	1	248
364.308	1	369
365.504	1	569
366.701	1	804
367.897	1	1066
369.093	1	1274
370.290	1	1285
371.486	1	1125
372.682	1	897
373.879	1	741
375.075	1	620
376.271	1	509
377.467	1	411
378.663	1	336
379.859	1	281
381.055	1	239
382.251	1	180
383.447	1	160
384.643	1	163
385.839	1	126
387.035	1	108
388.230	1	108
389.426	1	78
390.622	1	72
391.817	1	72
393.013	1	53
394.208	1	54
395.404	1	38
396.599	1	37
397.795	1	46
398.990	1	33
400.186	1	33
401.381	1	33
402.576	1	16
403.771	1	27
404.967	1	26
406.162	1	29
407.357	1	23
408.552	1	14
409.747	1	20
410.942	1	15
412.137	1	11
413.332	1	19
414.526	1	10
415.721	1	11
416.916	1	12
418.111	1	6
419.305	1	16
420.500	1	17
421.695	1	7
422.889	1	7
424.084	1	12
425.278	1	20
426.472	1	2
427.667	1	15
428.861	1	3
430.055	1	18
431.250	1	7
432.444	1	18
433.638	1	7
434.832	1	16
436.026	1	11
437.220	1	11
438.414	1	2
439.608	1	-12
440.802	1	1
441.996	1	19
443.190	1	9
444.384	1	4
445.578	1	-2
446.771	1	15
447.965	1	7
449.159	1	3
450.352	1	0
451.546	1	8
452.739	1	3
453.933	1	5
455.126	1	1
456.320	1	2
457.513	1	20
458.706	1	13
459.899	1	5
461.093	1	17
462.286	1	8
463.479	1	0
464.672	1	9
465.865	1	13
467.058	1	6
468.251	1	15
469.444	1	0
470.637	1	15
471.830	1	7
473.023	1	17
474.215	1	13
475.408	1	10
476.601	1	9
477.793	1	12
478.986	1	12
480.179	1	12
481.371	1	11
482.564	1	13
483.756	1	19
484.948	1	6
486.141	1	5
487.333	1	22
488.525	1	13
489.718	1	26
490.910	1	30
492.102	1	25
493.294	1	20
494.486	1	31
495.678	1	34
496.870	1	35
498.062	1	31
499.254	1	29
500.446	1	26
501.638	1	33
502.829	1	45
504.021	1	36
505.213	1	47
506.404	1	54
507.596	1	55
508.788	1	59
509.979	1	57
511.171	1	51
512.362	1	59
513.553	1	49
514.745	1	47
515.936	1	65
517.127	1	54
518.319	1	67
519.510	1	71
520.701	1	64
521.892	1	83
523.083	1	68
524.274	1	71
525.465	1	87
526.656	1	78
527.847	1	76
529.038	1	85
530.229	1	85
531.419	1	94
532.610	1	81
533.801	1	100
534.991	1	92
536.182	1	100
537.373	1	96
538.563	1	91
539.754	1	97
540.944	1	72
542.134	1	100
543.325	1	87
544.515	1	90
545.705	1	91
546.896	1	100
548.086	1	101
549.276	1	109
550.466	1	107
551.656	1	116
552.846	1	112
554.036	1	114
555.226	1	95
556.416	1	96
557.606	1	112
558.796	1	101
559.986	1	90
561.175	1	108
562.365	1	103
563.555	1	100
564.744	1	105
565.934	1	114
567.123	1	113
568.313	1	111
569.502	1	97
570.692	1	109
571.881	1	110
573.070	1	98
574.260	1	103
575.449	1	88
576.638	1	92
577.827	1	96
579.016	1	95
580.205	1	99
581.394	1	92
582.583	1	112
583.772	1	108
584.961	1	96
586.150	1	88
587.339	1	95
588.528	1	99
589.717	1	96
590.905	1	86
592.094	1	86
593.283	1	87
594.471	1	90
595.660	1	81
596.848	1	84
598.037	1	77
599.225	1	74
600.413	1	86
601.602	1	82
602.790	1	83
603.978	1	74
605.166	1	71
606.355	1	91
607.543	1	82
608.731	1	71
609.919	1	95
611.107	1	66
612.295	1	71
613.483	1	75
614.671	1	76
615.858	1	80
617.046	1	66
618.234	1	60
619.422	1	54
620.609	1	65
621.797	1	57
622.985	1	56
624.172	1	54
625.360	1	46
626.547	1	55
627.735	1	51
628.922	1	58
630.109	1	42
631.297	1	57
632.484	1	49
633.671	1	52
634.858	1	56
636.045	1	55
637.232	1	51
638.419	1	48
639.606	1	43
640.793	1	54
641.980	1	54
643.167	1	33
644.354	1	41
645.541	1	44
646.728	1	40
647.914	1	36
649.101	1	36
650.288	1	38
651.474	1	39
652.661	1	31
653.847	1	34
655.034	1	40
656.220	1	21
657.406	1	35
658.593	1	42
659.779	1	37
660.965	1	32
662.152	1	25
663.338	1	44
664.524	1	39
665.710	1	29
666.896	1	23
668.082	1	20
669.268	1	27
670.454	1	38
671.640	1	12
672.826	1	31
674.011	1	24
675.197	1	12
676.383	1	32
677.569	1	28
678.754	1	27
679.940	1	32
681.125	1	31
682.311	1	39
683.496	1	38
684.682	1	15
685.867	1	25
687.053	1	28
688.238	1	23
688.746	1	24

File: GaN_sample F_spot 12_UVVIS_200 K_200um_800 ms 2x2mm1_42.txt
340.368	1	6
341.565	1	-10
342.763	1	3
343.960	1	-3
345.157	1	-4
346.354	1	-1
347.552	1	7
348.749	1	2
349.946	1	14
351.143	1	6
352.340	1	18
353.537	1	21
354.734	1	29
355.931	1	32
357.127	1	52
358.324	1	42
359.521	1	74
360.718	1	100
361.914	1	156
363.111	1	226
364.308	1	333
365.504	1	508
366.701	1	694
367.897	1	939
369.093	1	1068
370.290	1	1077
371.486	1	974
372.682	1	817
373.879	1	658
375.075	1	524
376.271	1	442
377.467	1	359
378.663	1	283
379.859	1	225
381.055	1	209
382.251	1	160
383.447	1	136
384.643	1	140
385.839	1	118
387.035	1	106
388.230	1	82
389.426	1	69
390.622	1	79
391.817	1	56
393.013	1	61
394.208	1	44
395.404	1	38
396.599	1	36
397.795	1	39
398.990	1	35
400.186	1	25
401.381	1	25
402.576	1	14
403.771	1	34
404.967	1	29
406.162	1	22
407.357	1	7
408.552	1	3
409.747	1	17
410.942	1	25
412.137	1	17
413.332	1	15
414.526	1	6
415.721	1	7
416.916	1	7
418.111	1	5
419.305	1	12
420.500	1	8
421.695	1	3
422.889	1	2
424.084	1	14
425.278	1	19
426.472	1	8
427.667	1	19
428.861	1	0
430.055	1	17
431.250	1	7
432.444	1	13
433.638	1	9
434.832	1	7
436.026	1	3
437.220	1	12
438.414	1	6
439.608	1	-1
440.802	1	5
441.996	1	4
443.190	1	8
444.384	1	9
445.578	1	-4
446.771	1	16
447.965	1	3
449.159	1	-3
450.352	1	0
451.546	1	-2
452.739	1	15
453.933	1	8
455.126	1	4
456.320	1	3
457.513	1	23
458.706	1	15
459.899	1	1
461.093	1	3
462.286	1	7
463.479	1	7
464.672	1	3
465.865	1	9
467.058	1	11
468.251	1	4
469.444	1	2
470.637	1	16
471.830	1	6
473.023	1	12
474.215	1	15
475.408	1	4
476.601	1	9
477.793	1	6
478.986	1	15
480.179	1	12
481.371	1	16
482.564	1	10
483.756	1	25
484.948	1	5
486.141	1	15
487.333	1	12
488.525	1	24
489.718	1	14
490.910	1	24
492.102	1	19
493.294	1	6
494.486	1	34
495.678	1	25
496.870	1	31
498.062	1	25
499.254	1	31
500.446	1	28
501.638	1	29
502.829	1	38
504.021	1	37
505.213	1	39
506.404	1	49
507.596	1	47
508.788	1	50
509.979	1	44
511.171	1	40
512.362	1	36
513.553	1	43
514.745	1	37
515.936	1	44
517.127	1	49
518.319	1	62
519.510	1	67
520.701	1	53
521.892	1	63
523.083	1	62
524.274	1	66
525.465	1	67
526.656	1	57
527.847	1	60
529.038	1	72
530.229	1	76
531.419	1	85
532.610	1	72
533.801	1	88
534.991	1	78
536.182	1	73
537.373	1	74
538.563	1	77
539.754	1	73
540.944	1	65
542.134	1	77
543.325	1	67
544.515	1	75
545.705	1	73
546.896	1	75
548.086	1	77
549.276	1	100
550.466	1	86
551.656	1	98
552.846	1	96
554.036	1	88
555.226	1	79
556.416	1	76
557.606	1	90
558.796	1	83
559.986	1	81
561.175	1	78
562.365	1	85
563.555	1	79
564.744	1	94
565.934	1	94
567.123	1	80
568.313	1	90
569.502	1	85
570.692	1	82
571.881	1	100
573.070	1	86
574.260	1	89
575.449	1	82
576.638	1	82
577.827	1	74
579.016	1	87
580.205	1	85
581.394	1	84
582.583	1	87
583.772	1	86
584.961	1	93
586.150	1	72
587.339	1	78
588.528	1	79
589.717	1	77
590.905	1	70
592.094	1	71
593.283	1	70
594.471	1	66
595.660	1	64
596.848	1	67
598.037	1	64
599.225	1	62
600.413	1	73
601.602	1	74
602.790	1	67
603.978	1	64
605.166	1	70
606.355	1	68
607.543	1	56
608.731	1	68
609.919	1	62
611.107	1	59
612.295	1	45
613.483	1	55
614.671	1	55
615.858	1	55
617.046	1	65
618.234	1	49
619.422	1	41
620.609	1	52
621.797	1	35
622.985	1	48
624.172	1	39
625.360	1	45
626.547	1	43
627.735	1	40
628.922	1	48
630.109	1	39
631.297	1	47
632.484	1	36
633.671	1	37
634.858	1	38
636.045	1	44
637.232	1	34
638.419	1	29
639.606	1	52
640.793	1	51
641.980	1	37
643.167	1	38
644.354	1	34
645.541	1	33
646.728	1	27
647.914	1	26
649.101	1	33
650.288	1	37
651.474	1	27
652.661	1	16
653.847	1	37
655.034	1	38
656.220	1	20
657.406	1	29
658.593	1	26
659.779	1	24
660.965	1	29
662.152	1	24
663.338	1	34
664.524	1	24
665.710	1	26
666.896	1	23
668.082	1	25
669.268	1	21
670.454	1	21
671.640	1	23
672.826	1	23
674.011	1	16
675.197	1	25
676.383	1	30
677.569	1	18
678.754	1	31
679.940	1	18
681.125	1	28
682.311	1	26
683.496	1	21
684.682	1	24
685.867	1	18
687.053	1	30
688.238	1	21
688.746	1	19

File: GaN_sample F_spot 12_UVVIS_200 K_200um_800 ms 2x2mm1_43.txt
340.368	1	4
341.565	1	-3
342.763	1	9
343.960	1	5
345.157	1	-3
346.354	1	5
347.552	1	6
348.749	1	3
349.946	1	-2
351.143	1	12
352.340	1	22
353.537	1	23
354.734	1	30
355.931	1	37
357.127	1	41
358.324	1	46
359.521	1	77
360.718	1	110
361.914	1	147
363.111	1	200
364.308	1	294
365.504	1	474
366.701	1	621
367.897	1	821
369.093	1	972
370.290	1	946
371.486	1	859
372.682	1	685
373.879	1	558
375.075	1	476
376.271	1	412
377.467	1	323
378.663	1	266
379.859	1	222
381.055	1	172
382.251	1	156
383.447	1	133
384.643	1	122
385.839	1	111
387.035	1	92
388.230	1	85
389.426	1	52
390.622	1	65
391.817	1	66
393.013	1	40
394.208	1	44
395.404	1	34
396.599	1	29
397.795	1	35
398.990	1	29
400.186	1	28
401.381	1	14
402.576	1	22
403.771	1	23
404.967	1	21
406.162	1	20
407.357	1	17
408.552	1	11
409.747	1	8
410.942	1	21
412.137	1	23
413.332	1	9
414.526	1	5
415.721	1	9
416.916	1	7
418.111	1	16
419.305	1	19
420.500	1	11
421.695	1	15
422.889	1	-1
424.084	1	15
425.278	1	20
426.472	1	8
427.667	1	9
428.861	1	5
430.055	1	7
431.250	1	11
432.444	1	16
433.638	1	3
434.832	1	0
436.026	1	9
437.220	1	10
438.414	1	3
439.608	1	-2
440.802	1	4
441.996	1	9
443.190	1	5
444.384	1	5
445.578	1	-2
446.771	1	19
447.965	1	7
449.159	1	6
450.352	1	-1
451.546	1	1
452.739	1	16
453.933	1	8
455.126	1	0
456.320	1	11
457.513	1	11
458.706	1	0
459.899	1	7
461.093	1	4
462.286	1	6
463.479	1	7
464.672	1	-1
465.865	1	1
467.058	1	6
468.251	1	8
469.444	1	1
470.637	1	6
471.830	1	12
473.023	1	18
474.215	1	12
475.408	1	10
476.601	1	12
477.793	1	11
478.986	1	9
480.179	1	27
481.371	1	10
482.564	1	17
483.756	1	19
484.948	1	7
486.141	1	15
487.333	1	13
488.525	1	14
489.718	1	17
490.910	1	23
492.102	1	12
493.294	1	12
494.486	1	29
495.678	1	21
496.870	1	23
498.062	1	21
499.254	1	20
500.446	1	17
501.638	1	24
502.829	1	28
504.021	1	25
505.213	1	43
506.404	1	42
507.596	1	31
508.788	1	57
509.979	1	41
511.171	1	34
512.362	1	35
513.553	1	25
514.745	1	41
515.936	1	50
517.127	1	43
518.319	1	52
519.510	1	45
520.701	1	54
521.892	1	59
523.083	1	47
524.274	1	52
525.465	1	62
526.656	1	64
527.847	1	62
529.038	1	51
530.229	1	55
531.419	1	63
532.610	1	69
533.801	1	78
534.991	1	76
536.182	1	77
537.373	1	72
538.563	1	64
539.754	1	71
540.944	1	56
542.134	1	68
543.325	1	69
544.515	1	64
545.705	1	63
546.896	1	74
548.086	1	77
549.276	1	73
550.466	1	67
551.656	1	81
552.846	1	83
554.036	1	72
555.226	1	68
556.416	1	74
557.606	1	82
558.796	1	77
559.986	1	70
561.175	1	74
562.365	1	75
563.555	1	56
564.744	1	75
565.934	1	81
567.123	1	75
568.313	1	77
569.502	1	68
570.692	1	72
571.881	1	78
573.070	1	77
574.260	1	76
575.449	1	63
576.638	1	65
577.827	1	68
579.016	1	77
580.205	1	63
581.394	1	60
582.583	1	86
583.772	1	75
584.961	1	74
586.150	1	62
587.339	1	60
588.528	1	67
589.717	1	54
590.905	1	67
592.094	1	65
593.283	1	58
594.471	1	65
595.660	1	62
596.848	1	56
598.037	1	61
599.225	1	46
600.413	1	54
601.602	1	54
602.790	1	61
603.978	1	46
605.166	1	65
606.355	1	51
607.543	1	49
608.731	1	60
609.919	1	62
611.107	1	47
612.295	1	54
613.483	1	53
614.671	1	47
615.858	1	38
617.046	1	50
618.234	1	40
619.422	1	27
620.609	1	48
621.797	1	38
622.985	1	43
624.172	1	44
625.360	1	41
626.547	1	43
627.735	1	44
628.922	1	39
630.109	1	24
631.297	1	30
632.484	1	32
633.671	1	45
634.858	1	27
636.045	1	39
637.232	1	30
638.419	1	30
639.606	1	37
640.793	1	41
641.980	1	33
643.167	1	23
644.354	1	29
645.541	1	40
646.728	1	36
647.914	1	25
649.101	1	31
650.288	1	30
651.474	1	25
652.661	1	23
653.847	1	42
655.034	1	34
656.220	1	23
657.406	1	33
658.593	1	27
659.779	1	18
660.965	1	24
662.152	1	18
663.338	1	21
664.524	1	10
665.710	1	29
666.896	1	20
668.082	1	17
669.268	1	18
670.454	1	25
671.640	1	13
672.826	1	13
674.011	1	16
675.197	1	13
676.383	1	20
677.569	1	11
678.754	1	15
679.940	1	19
681.125	1	16
682.311	1	25
683.496	1	27
684.682	1	19
685.867	1	17
687.053	1	19
688.238	1	22
688.746	1	23

File: GaN_sample F_spot 12_UVVIS_200 K_200um_800 ms 2x2mm1_44.txt
340.368	1	10
341.565	1	1
342.763	1	12
343.960	1	6
345.157	1	-3
346.354	1	11
347.552	1	3
348.749	1	4
349.946	1	4
351.143	1	10
352.340	1	15
353.537	1	17
354.734	1	33
355.931	1	26
357.127	1	33
358.324	1	44
359.521	1	77
360.718	1	93
361.914	1	123
363.111	1	179
364.308	1	260
365.504	1	417
366.701	1	568
367.897	1	719
369.093	1	828
370.290	1	837
371.486	1	750
372.682	1	646
373.879	1	512
375.075	1	422
376.271	1	365
377.467	1	299
378.663	1	237
379.859	1	188
381.055	1	178
382.251	1	130
383.447	1	119
384.643	1	110
385.839	1	91
387.035	1	90
388.230	1	73
389.426	1	51
390.622	1	40
391.817	1	56
393.013	1	40
394.208	1	36
395.404	1	28
396.599	1	29
397.795	1	29
398.990	1	23
400.186	1	21
401.381	1	20
402.576	1	12
403.771	1	22
404.967	1	21
406.162	1	24
407.357	1	23
408.552	1	12
409.747	1	15
410.942	1	18
412.137	1	14
413.332	1	11
414.526	1	10
415.721	1	8
416.916	1	4
418.111	1	15
419.305	1	13
420.500	1	6
421.695	1	3
422.889	1	-2
424.084	1	8
425.278	1	14
426.472	1	12
427.667	1	11
428.861	1	2
430.055	1	13
431.250	1	12
432.444	1	14
433.638	1	6
434.832	1	7
436.026	1	12
437.220	1	9
438.414	1	10
439.608	1	-2
440.802	1	6
441.996	1	4
443.190	1	12
444.384	1	-6
445.578	1	2
446.771	1	19
447.965	1	4
449.159	1	5
450.352	1	7
451.546	1	7
452.739	1	16
453.933	1	6
455.126	1	4
456.320	1	6
457.513	1	13
458.706	1	5
459.899	1	11
461.093	1	8
462.286	1	6
463.479	1	6
464.672	1	17
465.865	1	2
467.058	1	4
468.251	1	5
469.444	1	-1
470.637	1	3
471.830	1	-1
473.023	1	9
474.215	1	19
475.408	1	14
476.601	1	16
477.793	1	7
478.986	1	8
480.179	1	13
481.371	1	6
482.564	1	11
483.756	1	20
484.948	1	3
486.141	1	2
487.333	1	16
488.525	1	18
489.718	1	12
490.910	1	18
492.102	1	7
493.294	1	11
494.486	1	17
495.678	1	23
496.870	1	22
498.062	1	25
499.254	1	25
500.446	1	10
501.638	1	23
502.829	1	22
504.021	1	18
505.213	1	43
506.404	1	41
507.596	1	43
508.788	1	47
509.979	1	37
511.171	1	28
512.362	1	33
513.553	1	26
514.745	1	42
515.936	1	40
517.127	1	42
518.319	1	44
519.510	1	49
520.701	1	46
521.892	1	48
523.083	1	45
524.274	1	52
525.465	1	54
526.656	1	47
527.847	1	57
529.038	1	57
530.229	1	64
531.419	1	62
532.610	1	55
533.801	1	79
534.991	1	56
536.182	1	56
537.373	1	52
538.563	1	56
539.754	1	62
540.944	1	45
542.134	1	50
543.325	1	55
544.515	1	58
545.705	1	56
546.896	1	63
548.086	1	51
549.276	1	67
550.466	1	76
551.656	1	84
552.846	1	78
554.036	1	70
555.226	1	50
556.416	1	54
557.606	1	72
558.796	1	68
559.986	1	56
561.175	1	66
562.365	1	67
563.555	1	70
564.744	1	67
565.934	1	75
567.123	1	65
568.313	1	80
569.502	1	64
570.692	1	76
571.881	1	74
573.070	1	63
574.260	1	74
575.449	1	60
576.638	1	61
577.827	1	55
579.016	1	76
580.205	1	57
581.394	1	53
582.583	1	71
583.772	1	65
584.961	1	62
586.150	1	65
587.339	1	65
588.528	1	68
589.717	1	48
590.905	1	65
592.094	1	60
593.283	1	58
594.471	1	48
595.660	1	49
596.848	1	44
598.037	1	41
599.225	1	40
600.413	1	49
601.602	1	47
602.790	1	50
603.978	1	60
605.166	1	58
606.355	1	51
607.543	1	52
608.731	1	47
609.919	1	52
611.107	1	49
612.295	1	46
613.483	1	56
614.671	1	50
615.858	1	45
617.046	1	44
618.234	1	33
619.422	1	34
620.609	1	48
621.797	1	32
622.985	1	34
624.172	1	46
625.360	1	34
626.547	1	26
627.735	1	40
628.922	1	42
630.109	1	25
631.297	1	28
632.484	1	22
633.671	1	23
634.858	1	27
636.045	1	40
637.232	1	26
638.419	1	26
639.606	1	36
640.793	1	37
641.980	1	25
643.167	1	33
644.354	1	34
645.541	1	35
646.728	1	24
647.914	1	21
649.101	1	27
650.288	1	26
651.474	1	26
652.661	1	28
653.847	1	34
655.034	1	27
656.220	1	21
657.406	1	13
658.593	1	26
659.779	1	22
660.965	1	27
662.152	1	20
663.338	1	30
664.524	1	14
665.710	1	10
666.896	1	13
668.082	1	17
669.268	1	22
670.454	1	22
671.640	1	20
672.826	1	14
674.011	1	20
675.197	1	8
676.383	1	7
677.569	1	19
678.754	1	12
679.940	1	15
681.125	1	26
682.311	1	24
683.496	1	18
684.682	1	5
685.867	1	13
687.053	1	18
688.238	1	29
688.746	1	20

File: GaN_sample F_spot 12_UVVIS_200 K_200um_800 ms 2x2mm1_45.txt
340.368	1	12
341.565	1	-5
342.763	1	17
343.960	1	11
345.157	1	3
346.354	1	13
347.552	1	7
348.749	1	-1
349.946	1	3
351.143	1	8
352.340	1	17
353.537	1	13
354.734	1	20
355.931	1	33
357.127	1	32
358.324	1	38
359.521	1	75
360.718	1	78
361.914	1	127
363.111	1	168
364.308	1	243
365.504	1	358
366.701	1	501
367.897	1	666
369.093	1	761
370.290	1	753
371.486	1	691
372.682	1	566
373.879	1	471
375.075	1	417
376.271	1	337
377.467	1	273
378.663	1	214
379.859	1	191
381.055	1	155
382.251	1	124
383.447	1	116
384.643	1	108
385.839	1	89
387.035	1	77
388.230	1	64
389.426	1	46
390.622	1	44
391.817	1	44
393.013	1	31
394.208	1	48
395.404	1	28
396.599	1	33
397.795	1	25
398.990	1	34
400.186	1	22
401.381	1	18
402.576	1	17
403.771	1	21
404.967	1	14
406.162	1	22
407.357	1	11
408.552	1	9
409.747	1	12
410.942	1	12
412.137	1	18
413.332	1	14
414.526	1	8
415.721	1	12
416.916	1	5
418.111	1	10
419.305	1	9
420.500	1	12
421.695	1	-2
422.889	1	1
424.084	1	7
425.278	1	18
426.472	1	12
427.667	1	17
428.861	1	7
430.055	1	8
431.250	1	2
432.444	1	10
433.638	1	-1
434.832	1	15
436.026	1	16
437.220	1	2
438.414	1	-3
439.608	1	-9
440.802	1	-1
441.996	1	5
443.190	1	12
444.384	1	-3
445.578	1	-11
446.771	1	10
447.965	1	9
449.159	1	8
450.352	1	4
451.546	1	7
452.739	1	5
453.933	1	3
455.126	1	5
456.320	1	9
457.513	1	9
458.706	1	11
459.899	1	9
461.093	1	4
462.286	1	-1
463.479	1	5
464.672	1	2
465.865	1	0
467.058	1	12
468.251	1	-3
469.444	1	7
470.637	1	6
471.830	1	11
473.023	1	17
474.215	1	17
475.408	1	7
476.601	1	7
477.793	1	7
478.986	1	0
480.179	1	14
481.371	1	9
482.564	1	12
483.756	1	21
484.948	1	9
486.141	1	10
487.333	1	12
488.525	1	17
489.718	1	10
490.910	1	14
492.102	1	15
493.294	1	17
494.486	1	23
495.678	1	20
496.870	1	17
498.062	1	17
499.254	1	28
500.446	1	11
501.638	1	18
502.829	1	32
504.021	1	20
505.213	1	45
506.404	1	26
507.596	1	26
508.788	1	47
509.979	1	32
511.171	1	27
512.362	1	27
513.553	1	15
514.745	1	29
515.936	1	40
517.127	1	39
518.319	1	40
519.510	1	41
520.701	1	49
521.892	1	33
523.083	1	45
524.274	1	44
525.465	1	49
526.656	1	52
527.847	1	44
529.038	1	51
530.229	1	50
531.419	1	58
532.610	1	55
533.801	1	64
534.991	1	51
536.182	1	57
537.373	1	56
538.563	1	54
539.754	1	57
540.944	1	52
542.134	1	49
543.325	1	54
544.515	1	48
545.705	1	55
546.896	1	47
548.086	1	60
549.276	1	63
550.466	1	56
551.656	1	68
552.846	1	74
554.036	1	56
555.226	1	62
556.416	1	58
557.606	1	65
558.796	1	59
559.986	1	49
561.175	1	57
562.365	1	62
563.555	1	63
564.744	1	63
565.934	1	69
567.123	1	64
568.313	1	66
569.502	1	57
570.692	1	58
571.881	1	72
573.070	1	56
574.260	1	71
575.449	1	56
576.638	1	53
577.827	1	52
579.016	1	72
580.205	1	51
581.394	1	54
582.583	1	58
583.772	1	61
584.961	1	58
586.150	1	49
587.339	1	69
588.528	1	46
589.717	1	46
590.905	1	55
592.094	1	52
593.283	1	52
594.471	1	63
595.660	1	46
596.848	1	43
598.037	1	47
599.225	1	43
600.413	1	49
601.602	1	40
602.790	1	47
603.978	1	38
605.166	1	41
606.355	1	47
607.543	1	50
608.731	1	47
609.919	1	56
611.107	1	39
612.295	1	30
613.483	1	52
614.671	1	36
615.858	1	40
617.046	1	30
618.234	1	27
619.422	1	27
620.609	1	39
621.797	1	32
622.985	1	32
624.172	1	29
625.360	1	37
626.547	1	27
627.735	1	38
628.922	1	33
630.109	1	31
631.297	1	27
632.484	1	27
633.671	1	24
634.858	1	29
636.045	1	32
637.232	1	25
638.419	1	11
639.606	1	34
640.793	1	33
641.980	1	29
643.167	1	15
644.354	1	22
645.541	1	27
646.728	1	33
647.914	1	19
649.101	1	12
650.288	1	25
651.474	1	6
652.661	1	11
653.847	1	26
655.034	1	17
656.220	1	26
657.406	1	16
658.593	1	24
659.779	1	21
660.965	1	30
662.152	1	19
663.338	1	13
664.524	1	17
665.710	1	15
666.896	1	9
668.082	1	13
669.268	1	15
670.454	1	13
671.640	1	16
672.826	1	18
674.011	1	17
675.197	1	0
676.383	1	15
677.569	1	10
678.754	1	12
679.940	1	13
681.125	1	15
682.311	1	24
683.496	1	7
684.682	1	10
685.867	1	12
687.053	1	21
688.238	1	20
688.746	1	13

File: GaN_sample F_spot 12_UVVIS_200 K_200um_800 ms 2x2mm1_46.txt
340.368	1	7
341.565	1	-4
342.763	1	6
343.960	1	0
345.157	1	1
346.354	1	1
347.552	1	-7
348.749	1	10
349.946	1	2
351.143	1	11
352.340	1	12
353.537	1	23
354.734	1	28
355.931	1	33
357.127	1	27
358.324	1	40
359.521	1	62
360.718	1	79
361.914	1	123
363.111	1	157
364.308	1	216
365.504	1	343
366.701	1	476
367.897	1	595
369.093	1	687
370.290	1	683
371.486	1	617
372.682	1	512
373.879	1	403
375.075	1	357
376.271	1	292
377.467	1	242
378.663	1	199
379.859	1	141
381.055	1	141
382.251	1	108
383.447	1	98
384.643	1	95
385.839	1	87
387.035	1	70
388.230	1	70
389.426	1	47
390.622	1	36
391.817	1	48
393.013	1	36
394.208	1	27
395.404	1	23
396.599	1	30
397.795	1	25
398.990	1	34
400.186	1	23
401.381	1	10
402.576	1	13
403.771	1	20
404.967	1	19
406.162	1	22
407.357	1	10
408.552	1	8
409.747	1	10
410.942	1	18
412.137	1	11
413.332	1	14
414.526	1	11
415.721	1	7
416.916	1	3
418.111	1	9
419.305	1	17
420.500	1	8
421.695	1	-2
422.889	1	-3
424.084	1	14
425.278	1	18
426.472	1	13
427.667	1	20
428.861	1	7
430.055	1	12
431.250	1	7
432.444	1	9
433.638	1	8
434.832	1	7
436.026	1	8
437.220	1	14
438.414	1	-5
439.608	1	7
440.802	1	-5
441.996	1	8
443.190	1	9
444.384	1	-8
445.578	1	-2
446.771	1	18
447.965	1	5
449.159	1	-7
450.352	1	0
451.546	1	7
452.739	1	11
453.933	1	-1
455.126	1	-7
456.320	1	0
457.513	1	13
458.706	1	6
459.899	1	3
461.093	1	15
462.286	1	10
463.479	1	6
464.672	1	7
465.865	1	9
467.058	1	1
468.251	1	9
469.444	1	1
470.637	1	9
471.830	1	3
473.023	1	6
474.215	1	12
475.408	1	9
476.601	1	10
477.793	1	9
478.986	1	12
480.179	1	7
481.371	1	2
482.564	1	10
483.756	1	14
484.948	1	2
486.141	1	3
487.333	1	3
488.525	1	11
489.718	1	10
490.910	1	15
492.102	1	12
493.294	1	11
494.486	1	21
495.678	1	18
496.870	1	20
498.062	1	23
499.254	1	10
500.446	1	15
501.638	1	25
502.829	1	27
504.021	1	33
505.213	1	40
506.404	1	31
507.596	1	33
508.788	1	37
509.979	1	26
511.171	1	28
512.362	1	31
513.553	1	32
514.745	1	38
515.936	1	37
517.127	1	32
518.319	1	39
519.510	1	38
520.701	1	41
521.892	1	42
523.083	1	41
524.274	1	42
525.465	1	43
526.656	1	38
527.847	1	39
529.038	1	51
530.229	1	38
531.419	1	50
532.610	1	43
533.801	1	59
534.991	1	53
536.182	1	47
537.373	1	44
538.563	1	61
539.754	1	54
540.944	1	43
542.134	1	47
543.325	1	42
544.515	1	41
545.705	1	46
546.896	1	54
548.086	1	52
549.276	1	44
550.466	1	53
551.656	1	62
552.846	1	53
554.036	1	52
555.226	1	50
556.416	1	44
557.606	1	63
558.796	1	43
559.986	1	57
561.175	1	53
562.365	1	48
563.555	1	45
564.744	1	54
565.934	1	62
567.123	1	55
568.313	1	60
569.502	1	63
570.692	1	64
571.881	1	64
573.070	1	46
574.260	1	66
575.449	1	54
576.638	1	52
577.827	1	36
579.016	1	62
580.205	1	45
581.394	1	44
582.583	1	65
583.772	1	54
584.961	1	48
586.150	1	46
587.339	1	52
588.528	1	58
589.717	1	48
590.905	1	49
592.094	1	36
593.283	1	46
594.471	1	52
595.660	1	43
596.848	1	40
598.037	1	40
599.225	1	33
600.413	1	46
601.602	1	49
602.790	1	42
603.978	1	36
605.166	1	36
606.355	1	43
607.543	1	44
608.731	1	42
609.919	1	56
611.107	1	33
612.295	1	25
613.483	1	43
614.671	1	36
615.858	1	38
617.046	1	34
618.234	1	34
619.422	1	28
620.609	1	34
621.797	1	24
622.985	1	24
624.172	1	27
625.360	1	24
626.547	1	30
627.735	1	37
628.922	1	32
630.109	1	18
631.297	1	21
632.484	1	16
633.671	1	14
634.858	1	22
636.045	1	32
637.232	1	17
638.419	1	9
639.606	1	30
640.793	1	31
641.980	1	41
643.167	1	12
644.354	1	25
645.541	1	16
646.728	1	10
647.914	1	13
649.101	1	25
650.288	1	26
651.474	1	10
652.661	1	27
653.847	1	31
655.034	1	23
656.220	1	15
657.406	1	17
658.593	1	18
659.779	1	25
660.965	1	24
662.152	1	12
663.338	1	23
664.524	1	15
665.710	1	18
666.896	1	11
668.082	1	22
669.268	1	18
670.454	1	15
671.640	1	14
672.826	1	9
674.011	1	19
675.197	1	15
676.383	1	19
677.569	1	11
678.754	1	9
679.940	1	10
681.125	1	17
682.311	1	14
683.496	1	21
684.682	1	12
685.867	1	17
687.053	1	17
688.238	1	21
688.746	1	7