Folder: cryo-il_analysis/Data/GaN_130K_350ms (part 3)

File: GaN_sample F_spot6_UVVIS_130 K_200um_350 ms 2x2mm1_103.txt
340.368	1	9
341.565	1	0
342.763	1	3
343.960	1	-9
345.157	1	-3
346.354	1	-1
347.552	1	7
348.749	1	5
349.946	1	4
351.143	1	6
352.340	1	9
353.537	1	4
354.734	1	9
355.931	1	21
357.127	1	9
358.324	1	14
359.521	1	18
360.718	1	39
361.914	1	33
363.111	1	57
364.308	1	74
365.504	1	86
366.701	1	101
367.897	1	108
369.093	1	106
370.290	1	101
371.486	1	81
372.682	1	76
373.879	1	52
375.075	1	55
376.271	1	54
377.467	1	48
378.663	1	35
379.859	1	27
381.055	1	27
382.251	1	25
383.447	1	26
384.643	1	29
385.839	1	25
387.035	1	33
388.230	1	16
389.426	1	31
390.622	1	21
391.817	1	29
393.013	1	20
394.208	1	17
395.404	1	1
396.599	1	20
397.795	1	8
398.990	1	12
400.186	1	13
401.381	1	17
402.576	1	17
403.771	1	18
404.967	1	11
406.162	1	16
407.357	1	21
408.552	1	7
409.747	1	11
410.942	1	8
412.137	1	-1
413.332	1	5
414.526	1	15
415.721	1	4
416.916	1	5
418.111	1	6
419.305	1	10
420.500	1	14
421.695	1	1
422.889	1	8
424.084	1	21
425.278	1	7
426.472	1	6
427.667	1	20
428.861	1	-5
430.055	1	-3
431.250	1	16
432.444	1	9
433.638	1	4
434.832	1	12
436.026	1	14
437.220	1	-3
438.414	1	9
439.608	1	13
440.802	1	0
441.996	1	10
443.190	1	11
444.384	1	2
445.578	1	4
446.771	1	11
447.965	1	-3
449.159	1	4
450.352	1	8
451.546	1	16
452.739	1	10
453.933	1	6
455.126	1	-5
456.320	1	1
457.513	1	8
458.706	1	12
459.899	1	6
461.093	1	9
462.286	1	9
463.479	1	15
464.672	1	1
465.865	1	-1
467.058	1	14
468.251	1	9
469.444	1	2
470.637	1	12
471.830	1	4
473.023	1	9
474.215	1	8
475.408	1	6
476.601	1	4
477.793	1	-2
478.986	1	5
480.179	1	5
481.371	1	24
482.564	1	1
483.756	1	9
484.948	1	4
486.141	1	5
487.333	1	9
488.525	1	17
489.718	1	11
490.910	1	9
492.102	1	18
493.294	1	18
494.486	1	17
495.678	1	17
496.870	1	20
498.062	1	13
499.254	1	22
500.446	1	23
501.638	1	26
502.829	1	18
504.021	1	19
505.213	1	26
506.404	1	19
507.596	1	22
508.788	1	29
509.979	1	27
511.171	1	37
512.362	1	32
513.553	1	43
514.745	1	40
515.936	1	51
517.127	1	37
518.319	1	32
519.510	1	34
520.701	1	37
521.892	1	38
523.083	1	46
524.274	1	37
525.465	1	38
526.656	1	43
527.847	1	43
529.038	1	30
530.229	1	37
531.419	1	39
532.610	1	41
533.801	1	50
534.991	1	41
536.182	1	46
537.373	1	33
538.563	1	46
539.754	1	37
540.944	1	42
542.134	1	40
543.325	1	33
544.515	1	45
545.705	1	33
546.896	1	41
548.086	1	28
549.276	1	33
550.466	1	32
551.656	1	35
552.846	1	25
554.036	1	35
555.226	1	42
556.416	1	37
557.606	1	27
558.796	1	33
559.986	1	24
561.175	1	31
562.365	1	27
563.555	1	30
564.744	1	23
565.934	1	27
567.123	1	25
568.313	1	5
569.502	1	27
570.692	1	28
571.881	1	20
573.070	1	15
574.260	1	9
575.449	1	18
576.638	1	9
577.827	1	8
579.016	1	16
580.205	1	12
581.394	1	11
582.583	1	21
583.772	1	16
584.961	1	10
586.150	1	21
587.339	1	17
588.528	1	16
589.717	1	8
590.905	1	22
592.094	1	8
593.283	1	8
594.471	1	6
595.660	1	5
596.848	1	12
598.037	1	11
599.225	1	12
600.413	1	8
601.602	1	10
602.790	1	14
603.978	1	11
605.166	1	9
606.355	1	6
607.543	1	13
608.731	1	8
609.919	1	8
611.107	1	9
612.295	1	12
613.483	1	6
614.671	1	4
615.858	1	3
617.046	1	13
618.234	1	10
619.422	1	8
620.609	1	-8
621.797	1	4
622.985	1	18
624.172	1	-3
625.360	1	1
626.547	1	7
627.735	1	14
628.922	1	1
630.109	1	11
631.297	1	4
632.484	1	-9
633.671	1	-2
634.858	1	10
636.045	1	16
637.232	1	1
638.419	1	13
639.606	1	15
640.793	1	-7
641.980	1	3
643.167	1	9
644.354	1	-1
645.541	1	16
646.728	1	3
647.914	1	-6
649.101	1	3
650.288	1	3
651.474	1	4
652.661	1	4
653.847	1	-4
655.034	1	11
656.220	1	7
657.406	1	9
658.593	1	6
659.779	1	0
660.965	1	3
662.152	1	2
663.338	1	4
664.524	1	3
665.710	1	2
666.896	1	6
668.082	1	10
669.268	1	7
670.454	1	-1
671.640	1	-6
672.826	1	5
674.011	1	5
675.197	1	4
676.383	1	8
677.569	1	7
678.754	1	9
679.940	1	-1
681.125	1	17
682.311	1	-3
683.496	1	-3
684.682	1	-6
685.867	1	2
687.053	1	8
688.238	1	18
688.746	1	13

File: GaN_sample F_spot6_UVVIS_130 K_200um_350 ms 2x2mm1_104.txt
340.368	1	4
341.565	1	9
342.763	1	12
343.960	1	-2
345.157	1	-4
346.354	1	3
347.552	1	0
348.749	1	10
349.946	1	10
351.143	1	11
352.340	1	13
353.537	1	3
354.734	1	13
355.931	1	13
357.127	1	14
358.324	1	19
359.521	1	18
360.718	1	29
361.914	1	46
363.111	1	63
364.308	1	81
365.504	1	88
366.701	1	86
367.897	1	108
369.093	1	102
370.290	1	100
371.486	1	83
372.682	1	70
373.879	1	65
375.075	1	60
376.271	1	42
377.467	1	37
378.663	1	38
379.859	1	36
381.055	1	36
382.251	1	21
383.447	1	36
384.643	1	32
385.839	1	26
387.035	1	33
388.230	1	14
389.426	1	19
390.622	1	30
391.817	1	25
393.013	1	17
394.208	1	5
395.404	1	13
396.599	1	20
397.795	1	13
398.990	1	17
400.186	1	11
401.381	1	12
402.576	1	12
403.771	1	18
404.967	1	15
406.162	1	2
407.357	1	18
408.552	1	6
409.747	1	3
410.942	1	11
412.137	1	-4
413.332	1	-2
414.526	1	3
415.721	1	12
416.916	1	0
418.111	1	8
419.305	1	16
420.500	1	14
421.695	1	9
422.889	1	11
424.084	1	9
425.278	1	-2
426.472	1	11
427.667	1	17
428.861	1	0
430.055	1	10
431.250	1	10
432.444	1	11
433.638	1	6
434.832	1	3
436.026	1	6
437.220	1	3
438.414	1	-3
439.608	1	3
440.802	1	9
441.996	1	11
443.190	1	8
444.384	1	0
445.578	1	-1
446.771	1	14
447.965	1	-3
449.159	1	12
450.352	1	13
451.546	1	1
452.739	1	8
453.933	1	6
455.126	1	2
456.320	1	5
457.513	1	8
458.706	1	12
459.899	1	4
461.093	1	17
462.286	1	9
463.479	1	11
464.672	1	10
465.865	1	-2
467.058	1	7
468.251	1	14
469.444	1	4
470.637	1	9
471.830	1	12
473.023	1	13
474.215	1	1
475.408	1	9
476.601	1	-1
477.793	1	-3
478.986	1	-4
480.179	1	4
481.371	1	17
482.564	1	5
483.756	1	5
484.948	1	10
486.141	1	16
487.333	1	1
488.525	1	7
489.718	1	23
490.910	1	-2
492.102	1	18
493.294	1	18
494.486	1	26
495.678	1	7
496.870	1	17
498.062	1	11
499.254	1	12
500.446	1	24
501.638	1	21
502.829	1	18
504.021	1	24
505.213	1	22
506.404	1	19
507.596	1	31
508.788	1	28
509.979	1	26
511.171	1	52
512.362	1	30
513.553	1	32
514.745	1	35
515.936	1	41
517.127	1	32
518.319	1	33
519.510	1	26
520.701	1	39
521.892	1	47
523.083	1	49
524.274	1	27
525.465	1	47
526.656	1	43
527.847	1	42
529.038	1	38
530.229	1	49
531.419	1	46
532.610	1	44
533.801	1	48
534.991	1	43
536.182	1	46
537.373	1	38
538.563	1	40
539.754	1	28
540.944	1	40
542.134	1	35
543.325	1	37
544.515	1	35
545.705	1	30
546.896	1	36
548.086	1	26
549.276	1	28
550.466	1	40
551.656	1	37
552.846	1	30
554.036	1	26
555.226	1	40
556.416	1	38
557.606	1	30
558.796	1	42
559.986	1	21
561.175	1	17
562.365	1	18
563.555	1	35
564.744	1	22
565.934	1	10
567.123	1	35
568.313	1	21
569.502	1	23
570.692	1	30
571.881	1	17
573.070	1	16
574.260	1	23
575.449	1	24
576.638	1	11
577.827	1	8
579.016	1	14
580.205	1	9
581.394	1	18
582.583	1	21
583.772	1	11
584.961	1	8
586.150	1	20
587.339	1	19
588.528	1	19
589.717	1	7
590.905	1	17
592.094	1	12
593.283	1	-4
594.471	1	18
595.660	1	11
596.848	1	4
598.037	1	11
599.225	1	15
600.413	1	17
601.602	1	4
602.790	1	5
603.978	1	11
605.166	1	11
606.355	1	15
607.543	1	9
608.731	1	7
609.919	1	11
611.107	1	13
612.295	1	15
613.483	1	7
614.671	1	13
615.858	1	2
617.046	1	14
618.234	1	-1
619.422	1	11
620.609	1	-12
621.797	1	1
622.985	1	12
624.172	1	7
625.360	1	9
626.547	1	2
627.735	1	16
628.922	1	4
630.109	1	15
631.297	1	5
632.484	1	-1
633.671	1	1
634.858	1	8
636.045	1	22
637.232	1	2
638.419	1	5
639.606	1	10
640.793	1	-7
641.980	1	7
643.167	1	14
644.354	1	-2
645.541	1	9
646.728	1	9
647.914	1	4
649.101	1	-2
650.288	1	13
651.474	1	-1
652.661	1	3
653.847	1	3
655.034	1	-4
656.220	1	-1
657.406	1	-5
658.593	1	1
659.779	1	14
660.965	1	-2
662.152	1	-3
663.338	1	8
664.524	1	2
665.710	1	8
666.896	1	13
668.082	1	5
669.268	1	2
670.454	1	6
671.640	1	-6
672.826	1	12
674.011	1	4
675.197	1	8
676.383	1	-2
677.569	1	1
678.754	1	17
679.940	1	6
681.125	1	14
682.311	1	-7
683.496	1	4
684.682	1	-2
685.867	1	6
687.053	1	8
688.238	1	24
688.746	1	7

File: GaN_sample F_spot6_UVVIS_130 K_200um_350 ms 2x2mm1_105.txt
340.368	1	7
341.565	1	3
342.763	1	11
343.960	1	-8
345.157	1	-4
346.354	1	0
347.552	1	-3
348.749	1	7
349.946	1	6
351.143	1	5
352.340	1	12
353.537	1	1
354.734	1	12
355.931	1	4
357.127	1	14
358.324	1	11
359.521	1	3
360.718	1	33
361.914	1	25
363.111	1	53
364.308	1	68
365.504	1	77
366.701	1	101
367.897	1	109
369.093	1	104
370.290	1	96
371.486	1	77
372.682	1	73
373.879	1	66
375.075	1	51
376.271	1	45
377.467	1	42
378.663	1	35
379.859	1	34
381.055	1	33
382.251	1	28
383.447	1	14
384.643	1	27
385.839	1	28
387.035	1	28
388.230	1	17
389.426	1	22
390.622	1	10
391.817	1	20
393.013	1	16
394.208	1	9
395.404	1	7
396.599	1	15
397.795	1	3
398.990	1	10
400.186	1	6
401.381	1	14
402.576	1	19
403.771	1	19
404.967	1	15
406.162	1	7
407.357	1	7
408.552	1	6
409.747	1	7
410.942	1	5
412.137	1	8
413.332	1	-1
414.526	1	11
415.721	1	5
416.916	1	8
418.111	1	21
419.305	1	6
420.500	1	16
421.695	1	12
422.889	1	11
424.084	1	11
425.278	1	-1
426.472	1	17
427.667	1	14
428.861	1	11
430.055	1	1
431.250	1	14
432.444	1	17
433.638	1	6
434.832	1	4
436.026	1	13
437.220	1	3
438.414	1	2
439.608	1	14
440.802	1	-5
441.996	1	20
443.190	1	9
444.384	1	5
445.578	1	0
446.771	1	8
447.965	1	6
449.159	1	11
450.352	1	16
451.546	1	12
452.739	1	6
453.933	1	5
455.126	1	2
456.320	1	6
457.513	1	-1
458.706	1	6
459.899	1	4
461.093	1	5
462.286	1	5
463.479	1	8
464.672	1	11
465.865	1	-1
467.058	1	11
468.251	1	13
469.444	1	19
470.637	1	3
471.830	1	6
473.023	1	9
474.215	1	-3
475.408	1	9
476.601	1	13
477.793	1	5
478.986	1	3
480.179	1	3
481.371	1	13
482.564	1	3
483.756	1	7
484.948	1	8
486.141	1	1
487.333	1	13
488.525	1	19
489.718	1	15
490.910	1	-4
492.102	1	11
493.294	1	17
494.486	1	23
495.678	1	10
496.870	1	10
498.062	1	9
499.254	1	17
500.446	1	32
501.638	1	8
502.829	1	18
504.021	1	17
505.213	1	26
506.404	1	27
507.596	1	25
508.788	1	31
509.979	1	25
511.171	1	40
512.362	1	30
513.553	1	30
514.745	1	27
515.936	1	39
517.127	1	33
518.319	1	38
519.510	1	31
520.701	1	45
521.892	1	52
523.083	1	45
524.274	1	29
525.465	1	38
526.656	1	45
527.847	1	40
529.038	1	36
530.229	1	55
531.419	1	50
532.610	1	47
533.801	1	50
534.991	1	47
536.182	1	47
537.373	1	37
538.563	1	48
539.754	1	34
540.944	1	42
542.134	1	36
543.325	1	34
544.515	1	27
545.705	1	33
546.896	1	35
548.086	1	30
549.276	1	32
550.466	1	37
551.656	1	26
552.846	1	21
554.036	1	32
555.226	1	24
556.416	1	38
557.606	1	22
558.796	1	31
559.986	1	27
561.175	1	34
562.365	1	29
563.555	1	25
564.744	1	32
565.934	1	22
567.123	1	12
568.313	1	18
569.502	1	12
570.692	1	29
571.881	1	19
573.070	1	18
574.260	1	16
575.449	1	16
576.638	1	13
577.827	1	3
579.016	1	13
580.205	1	6
581.394	1	4
582.583	1	25
583.772	1	13
584.961	1	8
586.150	1	17
587.339	1	11
588.528	1	25
589.717	1	14
590.905	1	24
592.094	1	5
593.283	1	0
594.471	1	6
595.660	1	12
596.848	1	7
598.037	1	7
599.225	1	9
600.413	1	18
601.602	1	2
602.790	1	4
603.978	1	9
605.166	1	6
606.355	1	17
607.543	1	8
608.731	1	5
609.919	1	12
611.107	1	17
612.295	1	13
613.483	1	4
614.671	1	14
615.858	1	-1
617.046	1	8
618.234	1	12
619.422	1	3
620.609	1	0
621.797	1	-1
622.985	1	7
624.172	1	-6
625.360	1	2
626.547	1	7
627.735	1	15
628.922	1	-1
630.109	1	14
631.297	1	2
632.484	1	2
633.671	1	0
634.858	1	15
636.045	1	15
637.232	1	-2
638.419	1	8
639.606	1	10
640.793	1	-12
641.980	1	5
643.167	1	11
644.354	1	-7
645.541	1	2
646.728	1	15
647.914	1	1
649.101	1	0
650.288	1	7
651.474	1	0
652.661	1	4
653.847	1	-8
655.034	1	3
656.220	1	0
657.406	1	13
658.593	1	1
659.779	1	7
660.965	1	2
662.152	1	5
663.338	1	6
664.524	1	-2
665.710	1	7
666.896	1	5
668.082	1	3
669.268	1	2
670.454	1	2
671.640	1	-5
672.826	1	-2
674.011	1	0
675.197	1	2
676.383	1	5
677.569	1	7
678.754	1	7
679.940	1	7
681.125	1	20
682.311	1	-1
683.496	1	11
684.682	1	1
685.867	1	5
687.053	1	9
688.238	1	14
688.746	1	12

File: GaN_sample F_spot6_UVVIS_130 K_200um_350 ms 2x2mm1_107.txt
340.368	1	-1
341.565	1	5
342.763	1	-1
343.960	1	-6
345.157	1	-4
346.354	1	6
347.552	1	4
348.749	1	8
349.946	1	9
351.143	1	3
352.340	1	12
353.537	1	3
354.734	1	10
355.931	1	7
357.127	1	8
358.324	1	16
359.521	1	9
360.718	1	22
361.914	1	41
363.111	1	57
364.308	1	62
365.504	1	72
366.701	1	87
367.897	1	87
369.093	1	91
370.290	1	81
371.486	1	80
372.682	1	48
373.879	1	64
375.075	1	60
376.271	1	45
377.467	1	44
378.663	1	26
379.859	1	21
381.055	1	32
382.251	1	20
383.447	1	25
384.643	1	28
385.839	1	25
387.035	1	28
388.230	1	18
389.426	1	24
390.622	1	19
391.817	1	22
393.013	1	31
394.208	1	12
395.404	1	2
396.599	1	17
397.795	1	2
398.990	1	14
400.186	1	10
401.381	1	10
402.576	1	12
403.771	1	25
404.967	1	11
406.162	1	11
407.357	1	22
408.552	1	10
409.747	1	6
410.942	1	16
412.137	1	5
413.332	1	13
414.526	1	6
415.721	1	5
416.916	1	8
418.111	1	13
419.305	1	6
420.500	1	4
421.695	1	5
422.889	1	7
424.084	1	11
425.278	1	5
426.472	1	2
427.667	1	14
428.861	1	13
430.055	1	7
431.250	1	11
432.444	1	6
433.638	1	5
434.832	1	8
436.026	1	5
437.220	1	3
438.414	1	6
439.608	1	11
440.802	1	3
441.996	1	10
443.190	1	4
444.384	1	2
445.578	1	2
446.771	1	7
447.965	1	6
449.159	1	12
450.352	1	6
451.546	1	8
452.739	1	7
453.933	1	2
455.126	1	3
456.320	1	5
457.513	1	-2
458.706	1	10
459.899	1	5
461.093	1	9
462.286	1	10
463.479	1	6
464.672	1	13
465.865	1	-2
467.058	1	11
468.251	1	11
469.444	1	0
470.637	1	6
471.830	1	11
473.023	1	1
474.215	1	3
475.408	1	4
476.601	1	6
477.793	1	5
478.986	1	0
480.179	1	4
481.371	1	16
482.564	1	5
483.756	1	8
484.948	1	8
486.141	1	16
487.333	1	1
488.525	1	10
489.718	1	14
490.910	1	1
492.102	1	14
493.294	1	16
494.486	1	10
495.678	1	14
496.870	1	26
498.062	1	3
499.254	1	31
500.446	1	28
501.638	1	21
502.829	1	20
504.021	1	17
505.213	1	14
506.404	1	28
507.596	1	23
508.788	1	18
509.979	1	33
511.171	1	37
512.362	1	21
513.553	1	33
514.745	1	24
515.936	1	46
517.127	1	38
518.319	1	22
519.510	1	35
520.701	1	27
521.892	1	35
523.083	1	31
524.274	1	29
525.465	1	43
526.656	1	36
527.847	1	33
529.038	1	37
530.229	1	45
531.419	1	51
532.610	1	36
533.801	1	43
534.991	1	35
536.182	1	46
537.373	1	40
538.563	1	45
539.754	1	29
540.944	1	41
542.134	1	24
543.325	1	34
544.515	1	25
545.705	1	26
546.896	1	29
548.086	1	22
549.276	1	21
550.466	1	38
551.656	1	30
552.846	1	29
554.036	1	33
555.226	1	37
556.416	1	24
557.606	1	26
558.796	1	28
559.986	1	22
561.175	1	33
562.365	1	21
563.555	1	27
564.744	1	22
565.934	1	19
567.123	1	19
568.313	1	14
569.502	1	21
570.692	1	27
571.881	1	18
573.070	1	10
574.260	1	6
575.449	1	14
576.638	1	7
577.827	1	12
579.016	1	14
580.205	1	7
581.394	1	11
582.583	1	23
583.772	1	16
584.961	1	6
586.150	1	12
587.339	1	13
588.528	1	16
589.717	1	6
590.905	1	12
592.094	1	0
593.283	1	9
594.471	1	17
595.660	1	6
596.848	1	9
598.037	1	13
599.225	1	8
600.413	1	14
601.602	1	5
602.790	1	13
603.978	1	5
605.166	1	10
606.355	1	14
607.543	1	11
608.731	1	11
609.919	1	15
611.107	1	14
612.295	1	11
613.483	1	-4
614.671	1	9
615.858	1	5
617.046	1	12
618.234	1	0
619.422	1	12
620.609	1	0
621.797	1	1
622.985	1	7
624.172	1	13
625.360	1	5
626.547	1	4
627.735	1	11
628.922	1	-5
630.109	1	9
631.297	1	4
632.484	1	-13
633.671	1	2
634.858	1	11
636.045	1	17
637.232	1	0
638.419	1	9
639.606	1	8
640.793	1	-5
641.980	1	7
643.167	1	8
644.354	1	-1
645.541	1	13
646.728	1	3
647.914	1	5
649.101	1	2
650.288	1	9
651.474	1	6
652.661	1	7
653.847	1	6
655.034	1	10
656.220	1	1
657.406	1	4
658.593	1	4
659.779	1	11
660.965	1	1
662.152	1	1
663.338	1	5
664.524	1	-1
665.710	1	4
666.896	1	5
668.082	1	10
669.268	1	5
670.454	1	4
671.640	1	2
672.826	1	-3
674.011	1	7
675.197	1	-2
676.383	1	-2
677.569	1	5
678.754	1	7
679.940	1	7
681.125	1	10
682.311	1	-8
683.496	1	2
684.682	1	-1
685.867	1	15
687.053	1	4
688.238	1	18
688.746	1	10

File: GaN_sample F_spot6_UVVIS_130 K_200um_350 ms 2x2mm1_108.txt
340.368	1	6
341.565	1	0
342.763	1	11
343.960	1	-8
345.157	1	-10
346.354	1	3
347.552	1	-3
348.749	1	9
349.946	1	17
351.143	1	5
352.340	1	10
353.537	1	3
354.734	1	8
355.931	1	8
357.127	1	6
358.324	1	12
359.521	1	6
360.718	1	22
361.914	1	38
363.111	1	45
364.308	1	61
365.504	1	67
366.701	1	77
367.897	1	77
369.093	1	94
370.290	1	85
371.486	1	65
372.682	1	57
373.879	1	57
375.075	1	48
376.271	1	52
377.467	1	43
378.663	1	41
379.859	1	31
381.055	1	25
382.251	1	17
383.447	1	31
384.643	1	27
385.839	1	19
387.035	1	25
388.230	1	17
389.426	1	32
390.622	1	9
391.817	1	18
393.013	1	14
394.208	1	12
395.404	1	6
396.599	1	18
397.795	1	7
398.990	1	19
400.186	1	12
401.381	1	9
402.576	1	17
403.771	1	6
404.967	1	19
406.162	1	10
407.357	1	15
408.552	1	10
409.747	1	1
410.942	1	11
412.137	1	3
413.332	1	1
414.526	1	15
415.721	1	9
416.916	1	10
418.111	1	5
419.305	1	16
420.500	1	8
421.695	1	2
422.889	1	7
424.084	1	13
425.278	1	-2
426.472	1	0
427.667	1	7
428.861	1	2
430.055	1	9
431.250	1	16
432.444	1	13
433.638	1	11
434.832	1	6
436.026	1	10
437.220	1	1
438.414	1	5
439.608	1	11
440.802	1	3
441.996	1	18
443.190	1	4
444.384	1	-7
445.578	1	10
446.771	1	2
447.965	1	17
449.159	1	4
450.352	1	17
451.546	1	10
452.739	1	11
453.933	1	15
455.126	1	-3
456.320	1	0
457.513	1	-3
458.706	1	5
459.899	1	3
461.093	1	7
462.286	1	3
463.479	1	4
464.672	1	8
465.865	1	5
467.058	1	-7
468.251	1	6
469.444	1	5
470.637	1	10
471.830	1	-3
473.023	1	7
474.215	1	-1
475.408	1	16
476.601	1	0
477.793	1	4
478.986	1	8
480.179	1	5
481.371	1	13
482.564	1	3
483.756	1	5
484.948	1	7
486.141	1	7
487.333	1	5
488.525	1	12
489.718	1	15
490.910	1	2
492.102	1	21
493.294	1	13
494.486	1	25
495.678	1	8
496.870	1	15
498.062	1	8
499.254	1	16
500.446	1	16
501.638	1	18
502.829	1	15
504.021	1	16
505.213	1	31
506.404	1	17
507.596	1	14
508.788	1	26
509.979	1	19
511.171	1	39
512.362	1	21
513.553	1	28
514.745	1	32
515.936	1	36
517.127	1	38
518.319	1	26
519.510	1	38
520.701	1	30
521.892	1	47
523.083	1	39
524.274	1	29
525.465	1	42
526.656	1	32
527.847	1	35
529.038	1	23
530.229	1	46
531.419	1	37
532.610	1	33
533.801	1	45
534.991	1	44
536.182	1	36
537.373	1	31
538.563	1	29
539.754	1	32
540.944	1	41
542.134	1	28
543.325	1	27
544.515	1	30
545.705	1	20
546.896	1	35
548.086	1	18
549.276	1	39
550.466	1	37
551.656	1	32
552.846	1	28
554.036	1	23
555.226	1	28
556.416	1	28
557.606	1	12
558.796	1	40
559.986	1	25
561.175	1	18
562.365	1	28
563.555	1	29
564.744	1	19
565.934	1	19
567.123	1	24
568.313	1	18
569.502	1	12
570.692	1	15
571.881	1	15
573.070	1	19
574.260	1	11
575.449	1	16
576.638	1	15
577.827	1	9
579.016	1	10
580.205	1	11
581.394	1	20
582.583	1	18
583.772	1	13
584.961	1	8
586.150	1	12
587.339	1	8
588.528	1	13
589.717	1	6
590.905	1	11
592.094	1	3
593.283	1	4
594.471	1	7
595.660	1	8
596.848	1	15
598.037	1	10
599.225	1	5
600.413	1	13
601.602	1	-2
602.790	1	9
603.978	1	11
605.166	1	18
606.355	1	12
607.543	1	10
608.731	1	5
609.919	1	6
611.107	1	7
612.295	1	16
613.483	1	5
614.671	1	6
615.858	1	1
617.046	1	13
618.234	1	-1
619.422	1	11
620.609	1	2
621.797	1	7
622.985	1	6
624.172	1	5
625.360	1	9
626.547	1	6
627.735	1	9
628.922	1	2
630.109	1	11
631.297	1	3
632.484	1	3
633.671	1	4
634.858	1	10
636.045	1	15
637.232	1	-1
638.419	1	8
639.606	1	12
640.793	1	-5
641.980	1	7
643.167	1	10
644.354	1	0
645.541	1	10
646.728	1	7
647.914	1	-1
649.101	1	4
650.288	1	7
651.474	1	3
652.661	1	-5
653.847	1	4
655.034	1	10
656.220	1	-5
657.406	1	5
658.593	1	-1
659.779	1	2
660.965	1	12
662.152	1	10
663.338	1	8
664.524	1	-7
665.710	1	12
666.896	1	6
668.082	1	11
669.268	1	4
670.454	1	7
671.640	1	-8
672.826	1	-2
674.011	1	2
675.197	1	-2
676.383	1	3
677.569	1	0
678.754	1	5
679.940	1	-2
681.125	1	18
682.311	1	-4
683.496	1	-6
684.682	1	-1
685.867	1	4
687.053	1	8
688.238	1	9
688.746	1	16

File: GaN_sample F_spot6_UVVIS_130 K_200um_350 ms 2x2mm1_109.txt
340.368	1	2
341.565	1	-1
342.763	1	5
343.960	1	-16
345.157	1	-7
346.354	1	0
347.552	1	12
348.749	1	11
349.946	1	10
351.143	1	4
352.340	1	13
353.537	1	10
354.734	1	1
355.931	1	12
357.127	1	12
358.324	1	12
359.521	1	8
360.718	1	19
361.914	1	34
363.111	1	62
364.308	1	55
365.504	1	77
366.701	1	87
367.897	1	102
369.093	1	91
370.290	1	84
371.486	1	74
372.682	1	56
373.879	1	45
375.075	1	47
376.271	1	36
377.467	1	35
378.663	1	36
379.859	1	12
381.055	1	21
382.251	1	25
383.447	1	21
384.643	1	36
385.839	1	24
387.035	1	36
388.230	1	15
389.426	1	22
390.622	1	21
391.817	1	29
393.013	1	23
394.208	1	13
395.404	1	5
396.599	1	14
397.795	1	11
398.990	1	18
400.186	1	3
401.381	1	18
402.576	1	19
403.771	1	14
404.967	1	5
406.162	1	5
407.357	1	15
408.552	1	2
409.747	1	2
410.942	1	1
412.137	1	7
413.332	1	8
414.526	1	17
415.721	1	1
416.916	1	5
418.111	1	6
419.305	1	4
420.500	1	7
421.695	1	1
422.889	1	13
424.084	1	6
425.278	1	12
426.472	1	5
427.667	1	11
428.861	1	14
430.055	1	0
431.250	1	20
432.444	1	12
433.638	1	12
434.832	1	14
436.026	1	5
437.220	1	2
438.414	1	12
439.608	1	19
440.802	1	-11
441.996	1	13
443.190	1	-1
444.384	1	-2
445.578	1	-8
446.771	1	5
447.965	1	6
449.159	1	0
450.352	1	8
451.546	1	9
452.739	1	0
453.933	1	2
455.126	1	-8
456.320	1	8
457.513	1	-5
458.706	1	10
459.899	1	1
461.093	1	9
462.286	1	7
463.479	1	15
464.672	1	6
465.865	1	-6
467.058	1	8
468.251	1	11
469.444	1	4
470.637	1	7
471.830	1	7
473.023	1	13
474.215	1	8
475.408	1	11
476.601	1	3
477.793	1	8
478.986	1	7
480.179	1	6
481.371	1	11
482.564	1	6
483.756	1	9
484.948	1	5
486.141	1	9
487.333	1	4
488.525	1	17
489.718	1	8
490.910	1	7
492.102	1	15
493.294	1	14
494.486	1	29
495.678	1	-2
496.870	1	28
498.062	1	10
499.254	1	15
500.446	1	17
501.638	1	23
502.829	1	18
504.021	1	27
505.213	1	21
506.404	1	25
507.596	1	14
508.788	1	21
509.979	1	28
511.171	1	28
512.362	1	22
513.553	1	34
514.745	1	16
515.936	1	35
517.127	1	30
518.319	1	27
519.510	1	28
520.701	1	36
521.892	1	48
523.083	1	28
524.274	1	29
525.465	1	29
526.656	1	42
527.847	1	35
529.038	1	27
530.229	1	36
531.419	1	36
532.610	1	34
533.801	1	45
534.991	1	44
536.182	1	44
537.373	1	28
538.563	1	38
539.754	1	32
540.944	1	37
542.134	1	28
543.325	1	29
544.515	1	35
545.705	1	25
546.896	1	37
548.086	1	14
549.276	1	26
550.466	1	38
551.656	1	29
552.846	1	22
554.036	1	26
555.226	1	35
556.416	1	28
557.606	1	15
558.796	1	25
559.986	1	25
561.175	1	23
562.365	1	18
563.555	1	27
564.744	1	16
565.934	1	14
567.123	1	17
568.313	1	16
569.502	1	16
570.692	1	29
571.881	1	12
573.070	1	8
574.260	1	20
575.449	1	12
576.638	1	4
577.827	1	6
579.016	1	9
580.205	1	4
581.394	1	15
582.583	1	13
583.772	1	12
584.961	1	6
586.150	1	13
587.339	1	16
588.528	1	17
589.717	1	10
590.905	1	15
592.094	1	12
593.283	1	4
594.471	1	13
595.660	1	11
596.848	1	15
598.037	1	17
599.225	1	16
600.413	1	15
601.602	1	5
602.790	1	6
603.978	1	8
605.166	1	0
606.355	1	11
607.543	1	6
608.731	1	6
609.919	1	18
611.107	1	10
612.295	1	12
613.483	1	5
614.671	1	7
615.858	1	7
617.046	1	20
618.234	1	0
619.422	1	0
620.609	1	3
621.797	1	9
622.985	1	9
624.172	1	10
625.360	1	13
626.547	1	6
627.735	1	8
628.922	1	5
630.109	1	13
631.297	1	3
632.484	1	1
633.671	1	-3
634.858	1	7
636.045	1	23
637.232	1	2
638.419	1	2
639.606	1	13
640.793	1	-6
641.980	1	2
643.167	1	8
644.354	1	-2
645.541	1	2
646.728	1	12
647.914	1	-1
649.101	1	2
650.288	1	9
651.474	1	-4
652.661	1	7
653.847	1	10
655.034	1	4
656.220	1	3
657.406	1	5
658.593	1	2
659.779	1	3
660.965	1	2
662.152	1	2
663.338	1	8
664.524	1	-2
665.710	1	4
666.896	1	3
668.082	1	1
669.268	1	-4
670.454	1	1
671.640	1	-3
672.826	1	2
674.011	1	-3
675.197	1	1
676.383	1	11
677.569	1	4
678.754	1	8
679.940	1	8
681.125	1	8
682.311	1	-3
683.496	1	7
684.682	1	0
685.867	1	7
687.053	1	11
688.238	1	15
688.746	1	-2