Folder: cryo-il_analysis/Data/GaN_150K_450ms (part 18)

File: GaN_sample D_spot15_UVVIS_150 K_200um_450 ms 2x2mm1_146.txt
340.368	1	5
341.565	1	4
342.763	1	6
343.960	1	15
345.157	1	7
346.354	1	-1
347.552	1	21
348.749	1	15
349.946	1	13
351.143	1	10
352.340	1	2
353.537	1	-1
354.734	1	4
355.931	1	8
357.127	1	12
358.324	1	13
359.521	1	18
360.718	1	17
361.914	1	8
363.111	1	9
364.308	1	20
365.504	1	21
366.701	1	41
367.897	1	41
369.093	1	41
370.290	1	53
371.486	1	37
372.682	1	26
373.879	1	25
375.075	1	17
376.271	1	8
377.467	1	23
378.663	1	15
379.859	1	-4
381.055	1	11
382.251	1	2
383.447	1	1
384.643	1	8
385.839	1	2
387.035	1	17
388.230	1	6
389.426	1	-6
390.622	1	6
391.817	1	10
393.013	1	9
394.208	1	7
395.404	1	10
396.599	1	2
397.795	1	4
398.990	1	6
400.186	1	13
401.381	1	5
402.576	1	8
403.771	1	2
404.967	1	7
406.162	1	2
407.357	1	18
408.552	1	10
409.747	1	5
410.942	1	9
412.137	1	12
413.332	1	6
414.526	1	-1
415.721	1	13
416.916	1	5
418.111	1	6
419.305	1	17
420.500	1	5
421.695	1	18
422.889	1	14
424.084	1	10
425.278	1	9
426.472	1	11
427.667	1	10
428.861	1	16
430.055	1	5
431.250	1	15
432.444	1	10
433.638	1	11
434.832	1	1
436.026	1	7
437.220	1	10
438.414	1	12
439.608	1	6
440.802	1	3
441.996	1	11
443.190	1	13
444.384	1	9
445.578	1	3
446.771	1	2
447.965	1	7
449.159	1	3
450.352	1	8
451.546	1	8
452.739	1	10
453.933	1	3
455.126	1	8
456.320	1	18
457.513	1	6
458.706	1	15
459.899	1	4
461.093	1	10
462.286	1	1
463.479	1	3
464.672	1	-1
465.865	1	6
467.058	1	11
468.251	1	1
469.444	1	7
470.637	1	1
471.830	1	5
473.023	1	8
474.215	1	11
475.408	1	4
476.601	1	8
477.793	1	4
478.986	1	7
480.179	1	10
481.371	1	-5
482.564	1	9
483.756	1	7
484.948	1	3
486.141	1	16
487.333	1	3
488.525	1	-4
489.718	1	-5
490.910	1	3
492.102	1	7
493.294	1	-3
494.486	1	0
495.678	1	2
496.870	1	10
498.062	1	-3
499.254	1	8
500.446	1	3
501.638	1	19
502.829	1	6
504.021	1	4
505.213	1	7
506.404	1	6
507.596	1	20
508.788	1	4
509.979	1	7
511.171	1	13
512.362	1	14
513.553	1	5
514.745	1	9
515.936	1	4
517.127	1	23
518.319	1	7
519.510	1	-3
520.701	1	13
521.892	1	8
523.083	1	4
524.274	1	9
525.465	1	17
526.656	1	20
527.847	1	-3
529.038	1	8
530.229	1	12
531.419	1	9
532.610	1	19
533.801	1	17
534.991	1	5
536.182	1	10
537.373	1	3
538.563	1	7
539.754	1	7
540.944	1	12
542.134	1	13
543.325	1	19
544.515	1	9
545.705	1	17
546.896	1	14
548.086	1	15
549.276	1	15
550.466	1	9
551.656	1	4
552.846	1	17
554.036	1	21
555.226	1	8
556.416	1	12
557.606	1	-6
558.796	1	17
559.986	1	14
561.175	1	-2
562.365	1	9
563.555	1	15
564.744	1	13
565.934	1	12
567.123	1	0
568.313	1	13
569.502	1	12
570.692	1	-1
571.881	1	6
573.070	1	8
574.260	1	3
575.449	1	6
576.638	1	9
577.827	1	-2
579.016	1	3
580.205	1	2
581.394	1	2
582.583	1	7
583.772	1	7
584.961	1	6
586.150	1	8
587.339	1	3
588.528	1	7
589.717	1	11
590.905	1	6
592.094	1	10
593.283	1	16
594.471	1	-7
595.660	1	5
596.848	1	14
598.037	1	5
599.225	1	-3
600.413	1	12
601.602	1	7
602.790	1	9
603.978	1	6
605.166	1	6
606.355	1	-6
607.543	1	10
608.731	1	-4
609.919	1	-10
611.107	1	9
612.295	1	-7
613.483	1	6
614.671	1	-3
615.858	1	-11
617.046	1	3
618.234	1	-2
619.422	1	19
620.609	1	-6
621.797	1	6
622.985	1	5
624.172	1	6
625.360	1	-4
626.547	1	-6
627.735	1	6
628.922	1	4
630.109	1	-11
631.297	1	2
632.484	1	1
633.671	1	6
634.858	1	4
636.045	1	-5
637.232	1	6
638.419	1	0
639.606	1	9
640.793	1	6
641.980	1	13
643.167	1	7
644.354	1	12
645.541	1	7
646.728	1	2
647.914	1	-2
649.101	1	-6
650.288	1	7
651.474	1	5
652.661	1	8
653.847	1	6
655.034	1	8
656.220	1	2
657.406	1	-3
658.593	1	5
659.779	1	18
660.965	1	3
662.152	1	5
663.338	1	4
664.524	1	20
665.710	1	7
666.896	1	-1
668.082	1	8
669.268	1	0
670.454	1	2
671.640	1	7
672.826	1	-2
674.011	1	8
675.197	1	9
676.383	1	4
677.569	1	14
678.754	1	4
679.940	1	-4
681.125	1	-3
682.311	1	11
683.496	1	-1
684.682	1	12
685.867	1	5
687.053	1	17
688.238	1	13
688.746	1	1

File: GaN_sample D_spot15_UVVIS_150 K_200um_450 ms 2x2mm1_147.txt
340.368	1	6
341.565	1	13
342.763	1	7
343.960	1	4
345.157	1	16
346.354	1	3
347.552	1	12
348.749	1	9
349.946	1	8
351.143	1	4
352.340	1	10
353.537	1	-4
354.734	1	3
355.931	1	4
357.127	1	16
358.324	1	20
359.521	1	20
360.718	1	10
361.914	1	14
363.111	1	12
364.308	1	26
365.504	1	26
366.701	1	34
367.897	1	44
369.093	1	55
370.290	1	42
371.486	1	39
372.682	1	31
373.879	1	24
375.075	1	16
376.271	1	15
377.467	1	25
378.663	1	16
379.859	1	10
381.055	1	8
382.251	1	8
383.447	1	11
384.643	1	9
385.839	1	8
387.035	1	5
388.230	1	8
389.426	1	-6
390.622	1	-2
391.817	1	-2
393.013	1	8
394.208	1	9
395.404	1	0
396.599	1	17
397.795	1	8
398.990	1	9
400.186	1	22
401.381	1	-3
402.576	1	8
403.771	1	6
404.967	1	12
406.162	1	5
407.357	1	10
408.552	1	10
409.747	1	2
410.942	1	20
412.137	1	5
413.332	1	14
414.526	1	2
415.721	1	10
416.916	1	12
418.111	1	15
419.305	1	11
420.500	1	13
421.695	1	15
422.889	1	9
424.084	1	14
425.278	1	7
426.472	1	12
427.667	1	13
428.861	1	15
430.055	1	6
431.250	1	13
432.444	1	15
433.638	1	11
434.832	1	3
436.026	1	4
437.220	1	10
438.414	1	8
439.608	1	5
440.802	1	14
441.996	1	-1
443.190	1	14
444.384	1	13
445.578	1	-7
446.771	1	2
447.965	1	8
449.159	1	-4
450.352	1	3
451.546	1	11
452.739	1	8
453.933	1	5
455.126	1	11
456.320	1	16
457.513	1	0
458.706	1	10
459.899	1	6
461.093	1	14
462.286	1	2
463.479	1	2
464.672	1	5
465.865	1	1
467.058	1	-6
468.251	1	-7
469.444	1	11
470.637	1	-6
471.830	1	3
473.023	1	9
474.215	1	15
475.408	1	4
476.601	1	6
477.793	1	4
478.986	1	5
480.179	1	6
481.371	1	7
482.564	1	14
483.756	1	2
484.948	1	10
486.141	1	13
487.333	1	1
488.525	1	7
489.718	1	6
490.910	1	17
492.102	1	8
493.294	1	-7
494.486	1	3
495.678	1	6
496.870	1	-4
498.062	1	8
499.254	1	2
500.446	1	3
501.638	1	10
502.829	1	3
504.021	1	6
505.213	1	-6
506.404	1	12
507.596	1	14
508.788	1	8
509.979	1	7
511.171	1	21
512.362	1	9
513.553	1	9
514.745	1	13
515.936	1	9
517.127	1	10
518.319	1	17
519.510	1	-1
520.701	1	10
521.892	1	19
523.083	1	13
524.274	1	11
525.465	1	20
526.656	1	18
527.847	1	0
529.038	1	5
530.229	1	20
531.419	1	10
532.610	1	15
533.801	1	10
534.991	1	9
536.182	1	11
537.373	1	3
538.563	1	1
539.754	1	10
540.944	1	13
542.134	1	11
543.325	1	17
544.515	1	7
545.705	1	0
546.896	1	8
548.086	1	20
549.276	1	7
550.466	1	9
551.656	1	10
552.846	1	13
554.036	1	15
555.226	1	8
556.416	1	10
557.606	1	-4
558.796	1	10
559.986	1	9
561.175	1	8
562.365	1	2
563.555	1	15
564.744	1	14
565.934	1	12
567.123	1	7
568.313	1	9
569.502	1	12
570.692	1	8
571.881	1	5
573.070	1	11
574.260	1	12
575.449	1	-1
576.638	1	18
577.827	1	-2
579.016	1	0
580.205	1	7
581.394	1	4
582.583	1	8
583.772	1	10
584.961	1	-5
586.150	1	4
587.339	1	8
588.528	1	1
589.717	1	9
590.905	1	7
592.094	1	9
593.283	1	10
594.471	1	-4
595.660	1	12
596.848	1	15
598.037	1	-1
599.225	1	6
600.413	1	11
601.602	1	23
602.790	1	7
603.978	1	3
605.166	1	5
606.355	1	-9
607.543	1	7
608.731	1	-10
609.919	1	-6
611.107	1	8
612.295	1	2
613.483	1	2
614.671	1	10
615.858	1	-12
617.046	1	-5
618.234	1	4
619.422	1	18
620.609	1	-1
621.797	1	10
622.985	1	-2
624.172	1	7
625.360	1	-3
626.547	1	3
627.735	1	5
628.922	1	6
630.109	1	-2
631.297	1	13
632.484	1	8
633.671	1	11
634.858	1	12
636.045	1	-4
637.232	1	7
638.419	1	-4
639.606	1	11
640.793	1	12
641.980	1	14
643.167	1	8
644.354	1	15
645.541	1	10
646.728	1	0
647.914	1	-1
649.101	1	7
650.288	1	10
651.474	1	12
652.661	1	17
653.847	1	3
655.034	1	-4
656.220	1	7
657.406	1	-1
658.593	1	6
659.779	1	7
660.965	1	-3
662.152	1	9
663.338	1	0
664.524	1	15
665.710	1	13
666.896	1	5
668.082	1	4
669.268	1	-5
670.454	1	8
671.640	1	5
672.826	1	1
674.011	1	6
675.197	1	13
676.383	1	-2
677.569	1	7
678.754	1	2
679.940	1	-1
681.125	1	-1
682.311	1	11
683.496	1	-1
684.682	1	14
685.867	1	-3
687.053	1	18
688.238	1	20
688.746	1	2

File: GaN_sample D_spot15_UVVIS_150 K_200um_450 ms 2x2mm1_149.txt
340.368	1	-2
341.565	1	4
342.763	1	7
343.960	1	2
345.157	1	8
346.354	1	6
347.552	1	16
348.749	1	9
349.946	1	-1
351.143	1	9
352.340	1	15
353.537	1	0
354.734	1	1
355.931	1	8
357.127	1	20
358.324	1	13
359.521	1	11
360.718	1	23
361.914	1	13
363.111	1	11
364.308	1	26
365.504	1	23
366.701	1	35
367.897	1	41
369.093	1	41
370.290	1	40
371.486	1	45
372.682	1	33
373.879	1	18
375.075	1	17
376.271	1	16
377.467	1	26
378.663	1	18
379.859	1	5
381.055	1	5
382.251	1	7
383.447	1	18
384.643	1	8
385.839	1	7
387.035	1	5
388.230	1	3
389.426	1	3
390.622	1	-2
391.817	1	-2
393.013	1	7
394.208	1	8
395.404	1	10
396.599	1	11
397.795	1	1
398.990	1	12
400.186	1	7
401.381	1	10
402.576	1	13
403.771	1	0
404.967	1	7
406.162	1	1
407.357	1	9
408.552	1	3
409.747	1	6
410.942	1	18
412.137	1	-2
413.332	1	7
414.526	1	5
415.721	1	14
416.916	1	12
418.111	1	13
419.305	1	10
420.500	1	13
421.695	1	9
422.889	1	11
424.084	1	14
425.278	1	9
426.472	1	12
427.667	1	11
428.861	1	8
430.055	1	18
431.250	1	21
432.444	1	17
433.638	1	18
434.832	1	-3
436.026	1	11
437.220	1	8
438.414	1	24
439.608	1	0
440.802	1	6
441.996	1	14
443.190	1	8
444.384	1	13
445.578	1	7
446.771	1	10
447.965	1	3
449.159	1	6
450.352	1	2
451.546	1	-2
452.739	1	5
453.933	1	-5
455.126	1	3
456.320	1	8
457.513	1	6
458.706	1	9
459.899	1	4
461.093	1	7
462.286	1	8
463.479	1	-3
464.672	1	13
465.865	1	6
467.058	1	9
468.251	1	1
469.444	1	-3
470.637	1	14
471.830	1	12
473.023	1	8
474.215	1	6
475.408	1	14
476.601	1	7
477.793	1	1
478.986	1	12
480.179	1	11
481.371	1	-7
482.564	1	5
483.756	1	3
484.948	1	5
486.141	1	9
487.333	1	-5
488.525	1	0
489.718	1	-4
490.910	1	6
492.102	1	12
493.294	1	-7
494.486	1	8
495.678	1	7
496.870	1	8
498.062	1	4
499.254	1	-1
500.446	1	8
501.638	1	8
502.829	1	4
504.021	1	3
505.213	1	6
506.404	1	8
507.596	1	12
508.788	1	18
509.979	1	8
511.171	1	8
512.362	1	14
513.553	1	6
514.745	1	8
515.936	1	2
517.127	1	19
518.319	1	4
519.510	1	10
520.701	1	12
521.892	1	10
523.083	1	7
524.274	1	7
525.465	1	15
526.656	1	13
527.847	1	3
529.038	1	10
530.229	1	4
531.419	1	8
532.610	1	11
533.801	1	13
534.991	1	8
536.182	1	5
537.373	1	6
538.563	1	2
539.754	1	7
540.944	1	7
542.134	1	11
543.325	1	16
544.515	1	9
545.705	1	9
546.896	1	10
548.086	1	16
549.276	1	15
550.466	1	3
551.656	1	10
552.846	1	14
554.036	1	20
555.226	1	10
556.416	1	13
557.606	1	2
558.796	1	15
559.986	1	9
561.175	1	5
562.365	1	-3
563.555	1	11
564.744	1	15
565.934	1	12
567.123	1	-1
568.313	1	2
569.502	1	11
570.692	1	10
571.881	1	-1
573.070	1	10
574.260	1	11
575.449	1	-7
576.638	1	14
577.827	1	-1
579.016	1	13
580.205	1	4
581.394	1	2
582.583	1	0
583.772	1	4
584.961	1	1
586.150	1	7
587.339	1	4
588.528	1	-2
589.717	1	10
590.905	1	6
592.094	1	18
593.283	1	11
594.471	1	3
595.660	1	6
596.848	1	5
598.037	1	-8
599.225	1	8
600.413	1	6
601.602	1	5
602.790	1	9
603.978	1	-4
605.166	1	0
606.355	1	1
607.543	1	11
608.731	1	-7
609.919	1	-4
611.107	1	8
612.295	1	6
613.483	1	6
614.671	1	3
615.858	1	-7
617.046	1	5
618.234	1	0
619.422	1	14
620.609	1	-5
621.797	1	2
622.985	1	5
624.172	1	8
625.360	1	0
626.547	1	-2
627.735	1	6
628.922	1	5
630.109	1	3
631.297	1	11
632.484	1	14
633.671	1	11
634.858	1	4
636.045	1	0
637.232	1	3
638.419	1	3
639.606	1	9
640.793	1	5
641.980	1	11
643.167	1	5
644.354	1	9
645.541	1	8
646.728	1	11
647.914	1	6
649.101	1	-9
650.288	1	9
651.474	1	4
652.661	1	7
653.847	1	2
655.034	1	7
656.220	1	13
657.406	1	-2
658.593	1	8
659.779	1	6
660.965	1	8
662.152	1	7
663.338	1	-1
664.524	1	10
665.710	1	8
666.896	1	6
668.082	1	6
669.268	1	-6
670.454	1	8
671.640	1	8
672.826	1	13
674.011	1	10
675.197	1	4
676.383	1	5
677.569	1	14
678.754	1	6
679.940	1	-2
681.125	1	-2
682.311	1	11
683.496	1	-2
684.682	1	11
685.867	1	2
687.053	1	22
688.238	1	10
688.746	1	1

File: GaN_sample D_spot15_UVVIS_150 K_200um_450 ms 2x2mm1_151.txt
340.368	1	10
341.565	1	-1
342.763	1	2
343.960	1	12
345.157	1	12
346.354	1	-6
347.552	1	24
348.749	1	11
349.946	1	-7
351.143	1	8
352.340	1	12
353.537	1	2
354.734	1	15
355.931	1	14
357.127	1	8
358.324	1	6
359.521	1	15
360.718	1	2
361.914	1	18
363.111	1	15
364.308	1	26
365.504	1	24
366.701	1	38
367.897	1	44
369.093	1	44
370.290	1	38
371.486	1	41
372.682	1	34
373.879	1	20
375.075	1	6
376.271	1	23
377.467	1	27
378.663	1	6
379.859	1	13
381.055	1	12
382.251	1	0
383.447	1	2
384.643	1	6
385.839	1	15
387.035	1	16
388.230	1	13
389.426	1	10
390.622	1	9
391.817	1	-4
393.013	1	11
394.208	1	13
395.404	1	23
396.599	1	4
397.795	1	4
398.990	1	11
400.186	1	1
401.381	1	15
402.576	1	10
403.771	1	-2
404.967	1	3
406.162	1	3
407.357	1	20
408.552	1	4
409.747	1	12
410.942	1	14
412.137	1	9
413.332	1	14
414.526	1	2
415.721	1	10
416.916	1	8
418.111	1	16
419.305	1	8
420.500	1	9
421.695	1	11
422.889	1	10
424.084	1	14
425.278	1	11
426.472	1	15
427.667	1	4
428.861	1	6
430.055	1	19
431.250	1	21
432.444	1	12
433.638	1	23
434.832	1	11
436.026	1	2
437.220	1	13
438.414	1	9
439.608	1	3
440.802	1	8
441.996	1	6
443.190	1	8
444.384	1	10
445.578	1	-3
446.771	1	12
447.965	1	13
449.159	1	1
450.352	1	0
451.546	1	14
452.739	1	9
453.933	1	-2
455.126	1	10
456.320	1	12
457.513	1	4
458.706	1	21
459.899	1	1
461.093	1	6
462.286	1	4
463.479	1	-2
464.672	1	8
465.865	1	5
467.058	1	4
468.251	1	5
469.444	1	8
470.637	1	7
471.830	1	10
473.023	1	7
474.215	1	6
475.408	1	5
476.601	1	5
477.793	1	9
478.986	1	12
480.179	1	11
481.371	1	-5
482.564	1	3
483.756	1	8
484.948	1	6
486.141	1	10
487.333	1	-1
488.525	1	1
489.718	1	-13
490.910	1	5
492.102	1	3
493.294	1	0
494.486	1	2
495.678	1	13
496.870	1	7
498.062	1	11
499.254	1	4
500.446	1	-2
501.638	1	14
502.829	1	0
504.021	1	16
505.213	1	9
506.404	1	6
507.596	1	8
508.788	1	14
509.979	1	8
511.171	1	2
512.362	1	15
513.553	1	12
514.745	1	9
515.936	1	12
517.127	1	9
518.319	1	12
519.510	1	5
520.701	1	18
521.892	1	12
523.083	1	7
524.274	1	14
525.465	1	7
526.656	1	9
527.847	1	1
529.038	1	4
530.229	1	15
531.419	1	8
532.610	1	12
533.801	1	10
534.991	1	20
536.182	1	9
537.373	1	16
538.563	1	3
539.754	1	16
540.944	1	17
542.134	1	16
543.325	1	12
544.515	1	12
545.705	1	12
546.896	1	18
548.086	1	7
549.276	1	17
550.466	1	11
551.656	1	8
552.846	1	6
554.036	1	12
555.226	1	7
556.416	1	1
557.606	1	2
558.796	1	21
559.986	1	14
561.175	1	8
562.365	1	-1
563.555	1	13
564.744	1	14
565.934	1	16
567.123	1	7
568.313	1	2
569.502	1	8
570.692	1	14
571.881	1	2
573.070	1	6
574.260	1	12
575.449	1	7
576.638	1	10
577.827	1	-3
579.016	1	2
580.205	1	3
581.394	1	11
582.583	1	11
583.772	1	2
584.961	1	-6
586.150	1	2
587.339	1	6
588.528	1	7
589.717	1	11
590.905	1	1
592.094	1	13
593.283	1	5
594.471	1	2
595.660	1	8
596.848	1	2
598.037	1	4
599.225	1	-3
600.413	1	9
601.602	1	6
602.790	1	4
603.978	1	0
605.166	1	9
606.355	1	3
607.543	1	15
608.731	1	-2
609.919	1	-1
611.107	1	10
612.295	1	18
613.483	1	1
614.671	1	13
615.858	1	1
617.046	1	-5
618.234	1	-3
619.422	1	7
620.609	1	3
621.797	1	3
622.985	1	4
624.172	1	5
625.360	1	3
626.547	1	-6
627.735	1	9
628.922	1	7
630.109	1	-2
631.297	1	12
632.484	1	8
633.671	1	8
634.858	1	10
636.045	1	-3
637.232	1	5
638.419	1	-4
639.606	1	12
640.793	1	1
641.980	1	8
643.167	1	7
644.354	1	23
645.541	1	4
646.728	1	7
647.914	1	2
649.101	1	6
650.288	1	9
651.474	1	12
652.661	1	7
653.847	1	-4
655.034	1	4
656.220	1	7
657.406	1	6
658.593	1	7
659.779	1	14
660.965	1	2
662.152	1	3
663.338	1	2
664.524	1	12
665.710	1	5
666.896	1	4
668.082	1	6
669.268	1	3
670.454	1	12
671.640	1	13
672.826	1	2
674.011	1	9
675.197	1	8
676.383	1	3
677.569	1	11
678.754	1	-1
679.940	1	-2
681.125	1	-5
682.311	1	7
683.496	1	0
684.682	1	8
685.867	1	3
687.053	1	20
688.238	1	5
688.746	1	8

File: GaN_sample D_spot15_UVVIS_150 K_200um_450 ms 2x2mm1_152.txt
340.368	1	-1
341.565	1	1
342.763	1	9
343.960	1	17
345.157	1	13
346.354	1	7
347.552	1	11
348.749	1	17
349.946	1	3
351.143	1	4
352.340	1	12
353.537	1	-7
354.734	1	12
355.931	1	9
357.127	1	10
358.324	1	15
359.521	1	20
360.718	1	10
361.914	1	13
363.111	1	12
364.308	1	12
365.504	1	13
366.701	1	39
367.897	1	39
369.093	1	36
370.290	1	44
371.486	1	38
372.682	1	30
373.879	1	24
375.075	1	15
376.271	1	21
377.467	1	23
378.663	1	14
379.859	1	10
381.055	1	3
382.251	1	1
383.447	1	-1
384.643	1	12
385.839	1	10
387.035	1	16
388.230	1	8
389.426	1	-2
390.622	1	2
391.817	1	-4
393.013	1	10
394.208	1	15
395.404	1	11
396.599	1	4
397.795	1	2
398.990	1	11
400.186	1	13
401.381	1	8
402.576	1	1
403.771	1	-8
404.967	1	8
406.162	1	3
407.357	1	11
408.552	1	3
409.747	1	2
410.942	1	12
412.137	1	0
413.332	1	14
414.526	1	-2
415.721	1	13
416.916	1	4
418.111	1	9
419.305	1	3
420.500	1	6
421.695	1	20
422.889	1	12
424.084	1	5
425.278	1	13
426.472	1	7
427.667	1	3
428.861	1	19
430.055	1	12
431.250	1	11
432.444	1	4
433.638	1	14
434.832	1	9
436.026	1	6
437.220	1	14
438.414	1	21
439.608	1	4
440.802	1	8
441.996	1	6
443.190	1	12
444.384	1	9
445.578	1	-1
446.771	1	7
447.965	1	-1
449.159	1	3
450.352	1	4
451.546	1	1
452.739	1	1
453.933	1	1
455.126	1	6
456.320	1	5
457.513	1	7
458.706	1	15
459.899	1	-3
461.093	1	10
462.286	1	8
463.479	1	-3
464.672	1	-2
465.865	1	11
467.058	1	2
468.251	1	-9
469.444	1	3
470.637	1	5
471.830	1	3
473.023	1	12
474.215	1	7
475.408	1	12
476.601	1	12
477.793	1	-1
478.986	1	5
480.179	1	6
481.371	1	5
482.564	1	3
483.756	1	10
484.948	1	13
486.141	1	13
487.333	1	5
488.525	1	-1
489.718	1	-5
490.910	1	9
492.102	1	6
493.294	1	-3
494.486	1	3
495.678	1	3
496.870	1	2
498.062	1	12
499.254	1	7
500.446	1	-2
501.638	1	10
502.829	1	4
504.021	1	8
505.213	1	6
506.404	1	10
507.596	1	17
508.788	1	9
509.979	1	2
511.171	1	9
512.362	1	11
513.553	1	10
514.745	1	7
515.936	1	8
517.127	1	20
518.319	1	-3
519.510	1	-1
520.701	1	11
521.892	1	7
523.083	1	5
524.274	1	6
525.465	1	13
526.656	1	7
527.847	1	-1
529.038	1	14
530.229	1	9
531.419	1	5
532.610	1	10
533.801	1	11
534.991	1	4
536.182	1	11
537.373	1	12
538.563	1	0
539.754	1	9
540.944	1	14
542.134	1	17
543.325	1	13
544.515	1	7
545.705	1	12
546.896	1	18
548.086	1	12
549.276	1	18
550.466	1	0
551.656	1	13
552.846	1	5
554.036	1	14
555.226	1	-3
556.416	1	6
557.606	1	-6
558.796	1	15
559.986	1	3
561.175	1	10
562.365	1	7
563.555	1	7
564.744	1	18
565.934	1	9
567.123	1	7
568.313	1	9
569.502	1	0
570.692	1	9
571.881	1	-2
573.070	1	10
574.260	1	6
575.449	1	1
576.638	1	19
577.827	1	8
579.016	1	11
580.205	1	4
581.394	1	-3
582.583	1	5
583.772	1	12
584.961	1	-1
586.150	1	3
587.339	1	7
588.528	1	4
589.717	1	5
590.905	1	-1
592.094	1	15
593.283	1	6
594.471	1	-4
595.660	1	8
596.848	1	7
598.037	1	2
599.225	1	7
600.413	1	9
601.602	1	-6
602.790	1	3
603.978	1	0
605.166	1	10
606.355	1	-11
607.543	1	11
608.731	1	-9
609.919	1	-10
611.107	1	19
612.295	1	12
613.483	1	5
614.671	1	4
615.858	1	-11
617.046	1	-2
618.234	1	-4
619.422	1	18
620.609	1	-4
621.797	1	4
622.985	1	9
624.172	1	7
625.360	1	14
626.547	1	-8
627.735	1	3
628.922	1	7
630.109	1	-6
631.297	1	7
632.484	1	4
633.671	1	11
634.858	1	7
636.045	1	-7
637.232	1	11
638.419	1	-2
639.606	1	7
640.793	1	-10
641.980	1	6
643.167	1	8
644.354	1	6
645.541	1	9
646.728	1	6
647.914	1	4
649.101	1	-2
650.288	1	5
651.474	1	6
652.661	1	10
653.847	1	7
655.034	1	-3
656.220	1	9
657.406	1	-2
658.593	1	8
659.779	1	13
660.965	1	0
662.152	1	0
663.338	1	-7
664.524	1	11
665.710	1	16
666.896	1	7
668.082	1	1
669.268	1	2
670.454	1	10
671.640	1	6
672.826	1	4
674.011	1	8
675.197	1	5
676.383	1	5
677.569	1	10
678.754	1	5
679.940	1	-8
681.125	1	-9
682.311	1	13
683.496	1	-2
684.682	1	6
685.867	1	-5
687.053	1	24
688.238	1	2
688.746	1	-1

File: GaN_sample D_spot15_UVVIS_150 K_200um_450 ms 2x2mm1_153.txt
340.368	1	-6
341.565	1	12
342.763	1	-6
343.960	1	6
345.157	1	20
346.354	1	7
347.552	1	12
348.749	1	9
349.946	1	9
351.143	1	17
352.340	1	8
353.537	1	-1
354.734	1	-4
355.931	1	9
357.127	1	6
358.324	1	16
359.521	1	21
360.718	1	9
361.914	1	18
363.111	1	11
364.308	1	27
365.504	1	24
366.701	1	30
367.897	1	36
369.093	1	29
370.290	1	42
371.486	1	32
372.682	1	33
373.879	1	27
375.075	1	17
376.271	1	9
377.467	1	27
378.663	1	20
379.859	1	7
381.055	1	11
382.251	1	-1
383.447	1	10
384.643	1	8
385.839	1	5
387.035	1	7
388.230	1	0
389.426	1	5
390.622	1	-3
391.817	1	-8
393.013	1	14
394.208	1	9
395.404	1	18
396.599	1	14
397.795	1	12
398.990	1	13
400.186	1	15
401.381	1	2
402.576	1	4
403.771	1	-2
404.967	1	13
406.162	1	-2
407.357	1	11
408.552	1	6
409.747	1	11
410.942	1	12
412.137	1	7
413.332	1	8
414.526	1	0
415.721	1	15
416.916	1	12
418.111	1	4
419.305	1	9
420.500	1	-1
421.695	1	13
422.889	1	5
424.084	1	8
425.278	1	6
426.472	1	18
427.667	1	7
428.861	1	13
430.055	1	12
431.250	1	11
432.444	1	14
433.638	1	8
434.832	1	5
436.026	1	-2
437.220	1	17
438.414	1	15
439.608	1	5
440.802	1	12
441.996	1	6
443.190	1	4
444.384	1	11
445.578	1	0
446.771	1	5
447.965	1	5
449.159	1	2
450.352	1	-1
451.546	1	4
452.739	1	6
453.933	1	-3
455.126	1	-2
456.320	1	14
457.513	1	8
458.706	1	15
459.899	1	-4
461.093	1	-1
462.286	1	5
463.479	1	-3
464.672	1	8
465.865	1	7
467.058	1	5
468.251	1	-3
469.444	1	2
470.637	1	-5
471.830	1	0
473.023	1	7
474.215	1	15
475.408	1	16
476.601	1	3
477.793	1	-5
478.986	1	6
480.179	1	3
481.371	1	-2
482.564	1	12
483.756	1	9
484.948	1	3
486.141	1	7
487.333	1	0
488.525	1	9
489.718	1	0
490.910	1	12
492.102	1	6
493.294	1	2
494.486	1	4
495.678	1	8
496.870	1	8
498.062	1	1
499.254	1	4
500.446	1	9
501.638	1	9
502.829	1	7
504.021	1	14
505.213	1	-2
506.404	1	14
507.596	1	17
508.788	1	4
509.979	1	7
511.171	1	9
512.362	1	10
513.553	1	12
514.745	1	8
515.936	1	-1
517.127	1	6
518.319	1	3
519.510	1	6
520.701	1	14
521.892	1	12
523.083	1	5
524.274	1	10
525.465	1	14
526.656	1	9
527.847	1	3
529.038	1	6
530.229	1	23
531.419	1	9
532.610	1	10
533.801	1	12
534.991	1	8
536.182	1	-1
537.373	1	12
538.563	1	11
539.754	1	4
540.944	1	10
542.134	1	12
543.325	1	20
544.515	1	7
545.705	1	11
546.896	1	8
548.086	1	14
549.276	1	11
550.466	1	4
551.656	1	13
552.846	1	5
554.036	1	10
555.226	1	-3
556.416	1	2
557.606	1	1
558.796	1	11
559.986	1	3
561.175	1	3
562.365	1	10
563.555	1	6
564.744	1	10
565.934	1	20
567.123	1	-1
568.313	1	9
569.502	1	11
570.692	1	7
571.881	1	14
573.070	1	5
574.260	1	0
575.449	1	2
576.638	1	15
577.827	1	1
579.016	1	12
580.205	1	3
581.394	1	-2
582.583	1	11
583.772	1	8
584.961	1	2
586.150	1	7
587.339	1	2
588.528	1	4
589.717	1	7
590.905	1	3
592.094	1	10
593.283	1	12
594.471	1	-6
595.660	1	0
596.848	1	4
598.037	1	-1
599.225	1	1
600.413	1	8
601.602	1	2
602.790	1	8
603.978	1	5
605.166	1	5
606.355	1	-10
607.543	1	-1
608.731	1	-12
609.919	1	-3
611.107	1	14
612.295	1	10
613.483	1	7
614.671	1	4
615.858	1	-7
617.046	1	-2
618.234	1	4
619.422	1	20
620.609	1	2
621.797	1	7
622.985	1	3
624.172	1	5
625.360	1	2
626.547	1	-8
627.735	1	9
628.922	1	11
630.109	1	0
631.297	1	6
632.484	1	12
633.671	1	7
634.858	1	1
636.045	1	-9
637.232	1	7
638.419	1	0
639.606	1	8
640.793	1	1
641.980	1	9
643.167	1	6
644.354	1	13
645.541	1	4
646.728	1	4
647.914	1	4
649.101	1	5
650.288	1	9
651.474	1	13
652.661	1	8
653.847	1	4
655.034	1	-6
656.220	1	7
657.406	1	4
658.593	1	3
659.779	1	5
660.965	1	4
662.152	1	7
663.338	1	9
664.524	1	7
665.710	1	0
666.896	1	-3
668.082	1	-2
669.268	1	7
670.454	1	13
671.640	1	15
672.826	1	2
674.011	1	6
675.197	1	10
676.383	1	-4
677.569	1	13
678.754	1	11
679.940	1	-5
681.125	1	-5
682.311	1	9
683.496	1	3
684.682	1	14
685.867	1	5
687.053	1	25
688.238	1	8
688.746	1	3