Folder: cryo-il_analysis/Data/GaN_200K_800ms (part 43)

File: GaN_sample F_spot 12_UVVIS_200 K_200um_800 ms 2x2mm1_508.txt
340.368	1	10
341.565	1	-1
342.763	1	1
343.960	1	2
345.157	1	-7
346.354	1	-2
347.552	1	0
348.749	1	-8
349.946	1	3
351.143	1	3
352.340	1	9
353.537	1	-2
354.734	1	9
355.931	1	-3
357.127	1	6
358.324	1	1
359.521	1	3
360.718	1	-6
361.914	1	-2
363.111	1	1
364.308	1	1
365.504	1	21
366.701	1	5
367.897	1	9
369.093	1	0
370.290	1	5
371.486	1	2
372.682	1	5
373.879	1	2
375.075	1	4
376.271	1	8
377.467	1	0
378.663	1	-4
379.859	1	-6
381.055	1	15
382.251	1	-9
383.447	1	-4
384.643	1	11
385.839	1	3
387.035	1	12
388.230	1	12
389.426	1	-4
390.622	1	-8
391.817	1	4
393.013	1	-8
394.208	1	8
395.404	1	-10
396.599	1	-1
397.795	1	2
398.990	1	4
400.186	1	-6
401.381	1	-1
402.576	1	-1
403.771	1	2
404.967	1	-4
406.162	1	3
407.357	1	5
408.552	1	-1
409.747	1	-3
410.942	1	9
412.137	1	6
413.332	1	6
414.526	1	-4
415.721	1	-4
416.916	1	-11
418.111	1	3
419.305	1	5
420.500	1	-6
421.695	1	-12
422.889	1	-9
424.084	1	-7
425.278	1	10
426.472	1	4
427.667	1	6
428.861	1	-5
430.055	1	7
431.250	1	-8
432.444	1	-3
433.638	1	-2
434.832	1	-7
436.026	1	10
437.220	1	3
438.414	1	-16
439.608	1	-14
440.802	1	-4
441.996	1	-2
443.190	1	7
444.384	1	-6
445.578	1	-16
446.771	1	15
447.965	1	4
449.159	1	-11
450.352	1	1
451.546	1	-7
452.739	1	1
453.933	1	-3
455.126	1	-10
456.320	1	-7
457.513	1	4
458.706	1	-4
459.899	1	3
461.093	1	-4
462.286	1	-2
463.479	1	-7
464.672	1	-4
465.865	1	-5
467.058	1	-6
468.251	1	-6
469.444	1	-8
470.637	1	0
471.830	1	-5
473.023	1	2
474.215	1	11
475.408	1	3
476.601	1	0
477.793	1	-6
478.986	1	-9
480.179	1	10
481.371	1	4
482.564	1	8
483.756	1	4
484.948	1	-10
486.141	1	-6
487.333	1	1
488.525	1	1
489.718	1	-3
490.910	1	2
492.102	1	-9
493.294	1	-6
494.486	1	0
495.678	1	-1
496.870	1	4
498.062	1	-2
499.254	1	-6
500.446	1	-10
501.638	1	-9
502.829	1	-4
504.021	1	-3
505.213	1	1
506.404	1	-3
507.596	1	4
508.788	1	2
509.979	1	-5
511.171	1	3
512.362	1	-19
513.553	1	2
514.745	1	-7
515.936	1	-2
517.127	1	-5
518.319	1	-5
519.510	1	-2
520.701	1	1
521.892	1	0
523.083	1	-4
524.274	1	-2
525.465	1	4
526.656	1	-6
527.847	1	-2
529.038	1	4
530.229	1	-1
531.419	1	-5
532.610	1	-7
533.801	1	12
534.991	1	-2
536.182	1	-8
537.373	1	-7
538.563	1	8
539.754	1	2
540.944	1	1
542.134	1	12
543.325	1	-1
544.515	1	-5
545.705	1	-6
546.896	1	-9
548.086	1	5
549.276	1	-7
550.466	1	-4
551.656	1	0
552.846	1	-4
554.036	1	-6
555.226	1	-10
556.416	1	-9
557.606	1	6
558.796	1	1
559.986	1	-8
561.175	1	-1
562.365	1	4
563.555	1	-11
564.744	1	-1
565.934	1	7
567.123	1	-5
568.313	1	8
569.502	1	-2
570.692	1	6
571.881	1	16
573.070	1	2
574.260	1	9
575.449	1	0
576.638	1	-6
577.827	1	-11
579.016	1	13
580.205	1	3
581.394	1	3
582.583	1	20
583.772	1	5
584.961	1	4
586.150	1	-3
587.339	1	-6
588.528	1	4
589.717	1	-1
590.905	1	-8
592.094	1	-5
593.283	1	-2
594.471	1	7
595.660	1	4
596.848	1	-6
598.037	1	-7
599.225	1	-17
600.413	1	5
601.602	1	7
602.790	1	-8
603.978	1	2
605.166	1	9
606.355	1	-4
607.543	1	0
608.731	1	5
609.919	1	5
611.107	1	-6
612.295	1	-13
613.483	1	5
614.671	1	3
615.858	1	1
617.046	1	-2
618.234	1	1
619.422	1	-3
620.609	1	1
621.797	1	-5
622.985	1	-3
624.172	1	3
625.360	1	-1
626.547	1	3
627.735	1	0
628.922	1	1
630.109	1	-5
631.297	1	-8
632.484	1	-3
633.671	1	-6
634.858	1	-8
636.045	1	4
637.232	1	-9
638.419	1	-9
639.606	1	5
640.793	1	1
641.980	1	4
643.167	1	-15
644.354	1	-5
645.541	1	-4
646.728	1	3
647.914	1	-4
649.101	1	-4
650.288	1	8
651.474	1	2
652.661	1	-8
653.847	1	6
655.034	1	4
656.220	1	-5
657.406	1	3
658.593	1	2
659.779	1	1
660.965	1	8
662.152	1	0
663.338	1	2
664.524	1	-5
665.710	1	-6
666.896	1	1
668.082	1	3
669.268	1	0
670.454	1	1
671.640	1	5
672.826	1	-2
674.011	1	1
675.197	1	-12
676.383	1	4
677.569	1	-8
678.754	1	-4
679.940	1	-3
681.125	1	7
682.311	1	5
683.496	1	7
684.682	1	-17
685.867	1	-4
687.053	1	-1
688.238	1	2
688.746	1	-2

File: GaN_sample F_spot 12_UVVIS_200 K_200um_800 ms 2x2mm1_509.txt
340.368	1	0
341.565	1	-12
342.763	1	3
343.960	1	3
345.157	1	-8
346.354	1	-3
347.552	1	-8
348.749	1	-11
349.946	1	-5
351.143	1	-6
352.340	1	8
353.537	1	4
354.734	1	6
355.931	1	7
357.127	1	-1
358.324	1	0
359.521	1	7
360.718	1	-3
361.914	1	-5
363.111	1	-6
364.308	1	-6
365.504	1	6
366.701	1	5
367.897	1	5
369.093	1	3
370.290	1	6
371.486	1	12
372.682	1	4
373.879	1	-6
375.075	1	0
376.271	1	13
377.467	1	-1
378.663	1	-2
379.859	1	5
381.055	1	8
382.251	1	-4
383.447	1	-6
384.643	1	10
385.839	1	-2
387.035	1	3
388.230	1	13
389.426	1	6
390.622	1	-14
391.817	1	-1
393.013	1	-7
394.208	1	3
395.404	1	-7
396.599	1	-10
397.795	1	8
398.990	1	-3
400.186	1	-3
401.381	1	-8
402.576	1	-4
403.771	1	-1
404.967	1	2
406.162	1	1
407.357	1	-5
408.552	1	-9
409.747	1	4
410.942	1	8
412.137	1	2
413.332	1	5
414.526	1	0
415.721	1	-9
416.916	1	-12
418.111	1	0
419.305	1	6
420.500	1	-4
421.695	1	-3
422.889	1	-13
424.084	1	-1
425.278	1	11
426.472	1	-2
427.667	1	7
428.861	1	0
430.055	1	-4
431.250	1	-1
432.444	1	-2
433.638	1	-1
434.832	1	-1
436.026	1	8
437.220	1	11
438.414	1	-1
439.608	1	-6
440.802	1	-8
441.996	1	3
443.190	1	-10
444.384	1	-10
445.578	1	-6
446.771	1	5
447.965	1	1
449.159	1	-1
450.352	1	-2
451.546	1	6
452.739	1	0
453.933	1	-6
455.126	1	-11
456.320	1	-6
457.513	1	-3
458.706	1	-2
459.899	1	-8
461.093	1	3
462.286	1	4
463.479	1	-2
464.672	1	-3
465.865	1	-2
467.058	1	2
468.251	1	-1
469.444	1	-12
470.637	1	1
471.830	1	-5
473.023	1	-4
474.215	1	1
475.408	1	-6
476.601	1	-2
477.793	1	-1
478.986	1	-3
480.179	1	-8
481.371	1	1
482.564	1	-1
483.756	1	-1
484.948	1	-5
486.141	1	-8
487.333	1	-3
488.525	1	2
489.718	1	-2
490.910	1	-9
492.102	1	-11
493.294	1	-9
494.486	1	4
495.678	1	-1
496.870	1	-1
498.062	1	-12
499.254	1	2
500.446	1	-8
501.638	1	0
502.829	1	0
504.021	1	-5
505.213	1	8
506.404	1	3
507.596	1	8
508.788	1	13
509.979	1	-2
511.171	1	-8
512.362	1	-18
513.553	1	-11
514.745	1	-5
515.936	1	-6
517.127	1	-2
518.319	1	-2
519.510	1	-4
520.701	1	-3
521.892	1	3
523.083	1	-3
524.274	1	10
525.465	1	-5
526.656	1	-5
527.847	1	-2
529.038	1	0
530.229	1	7
531.419	1	0
532.610	1	-3
533.801	1	11
534.991	1	6
536.182	1	-3
537.373	1	-1
538.563	1	10
539.754	1	8
540.944	1	-4
542.134	1	-1
543.325	1	-9
544.515	1	-1
545.705	1	-2
546.896	1	-7
548.086	1	4
549.276	1	-8
550.466	1	-2
551.656	1	0
552.846	1	-4
554.036	1	0
555.226	1	-5
556.416	1	-6
557.606	1	13
558.796	1	-2
559.986	1	-3
561.175	1	-6
562.365	1	-1
563.555	1	-1
564.744	1	-5
565.934	1	-1
567.123	1	0
568.313	1	8
569.502	1	-1
570.692	1	-5
571.881	1	5
573.070	1	2
574.260	1	7
575.449	1	-4
576.638	1	-12
577.827	1	1
579.016	1	1
580.205	1	1
581.394	1	-2
582.583	1	-1
583.772	1	3
584.961	1	2
586.150	1	-6
587.339	1	3
588.528	1	7
589.717	1	0
590.905	1	-7
592.094	1	-5
593.283	1	2
594.471	1	14
595.660	1	3
596.848	1	-1
598.037	1	-4
599.225	1	-17
600.413	1	4
601.602	1	14
602.790	1	-1
603.978	1	8
605.166	1	6
606.355	1	0
607.543	1	-3
608.731	1	2
609.919	1	8
611.107	1	-5
612.295	1	-9
613.483	1	-1
614.671	1	3
615.858	1	4
617.046	1	-2
618.234	1	-7
619.422	1	-13
620.609	1	1
621.797	1	-10
622.985	1	-4
624.172	1	-3
625.360	1	3
626.547	1	0
627.735	1	1
628.922	1	6
630.109	1	-16
631.297	1	3
632.484	1	0
633.671	1	4
634.858	1	0
636.045	1	11
637.232	1	-2
638.419	1	-4
639.606	1	7
640.793	1	6
641.980	1	7
643.167	1	1
644.354	1	1
645.541	1	-2
646.728	1	-3
647.914	1	-5
649.101	1	5
650.288	1	-2
651.474	1	-7
652.661	1	-2
653.847	1	-1
655.034	1	3
656.220	1	-12
657.406	1	-4
658.593	1	13
659.779	1	-12
660.965	1	12
662.152	1	-1
663.338	1	7
664.524	1	3
665.710	1	-5
666.896	1	-4
668.082	1	1
669.268	1	1
670.454	1	-2
671.640	1	-3
672.826	1	-1
674.011	1	-4
675.197	1	-13
676.383	1	-4
677.569	1	-2
678.754	1	-5
679.940	1	-3
681.125	1	10
682.311	1	-3
683.496	1	-2
684.682	1	-3
685.867	1	4
687.053	1	0
688.238	1	12
688.746	1	-4

File: GaN_sample F_spot 12_UVVIS_200 K_200um_800 ms 2x2mm1_511.txt
340.368	1	1
341.565	1	-12
342.763	1	5
343.960	1	3
345.157	1	-5
346.354	1	-5
347.552	1	-4
348.749	1	-10
349.946	1	-6
351.143	1	-7
352.340	1	3
353.537	1	0
354.734	1	7
355.931	1	-8
357.127	1	-3
358.324	1	-8
359.521	1	9
360.718	1	-2
361.914	1	6
363.111	1	-1
364.308	1	-3
365.504	1	17
366.701	1	10
367.897	1	6
369.093	1	9
370.290	1	-1
371.486	1	10
372.682	1	2
373.879	1	4
375.075	1	-2
376.271	1	8
377.467	1	7
378.663	1	-13
379.859	1	3
381.055	1	9
382.251	1	-7
383.447	1	2
384.643	1	0
385.839	1	0
387.035	1	2
388.230	1	10
389.426	1	-2
390.622	1	-7
391.817	1	0
393.013	1	-5
394.208	1	3
395.404	1	-2
396.599	1	2
397.795	1	-4
398.990	1	-1
400.186	1	0
401.381	1	-6
402.576	1	-4
403.771	1	5
404.967	1	-7
406.162	1	6
407.357	1	-6
408.552	1	-15
409.747	1	-7
410.942	1	9
412.137	1	0
413.332	1	2
414.526	1	-11
415.721	1	-2
416.916	1	-6
418.111	1	-3
419.305	1	3
420.500	1	1
421.695	1	0
422.889	1	-13
424.084	1	6
425.278	1	-1
426.472	1	5
427.667	1	1
428.861	1	2
430.055	1	1
431.250	1	-3
432.444	1	5
433.638	1	-6
434.832	1	-2
436.026	1	8
437.220	1	9
438.414	1	-18
439.608	1	-10
440.802	1	-4
441.996	1	1
443.190	1	0
444.384	1	-12
445.578	1	-15
446.771	1	13
447.965	1	0
449.159	1	-5
450.352	1	-4
451.546	1	-4
452.739	1	3
453.933	1	1
455.126	1	-1
456.320	1	-7
457.513	1	5
458.706	1	8
459.899	1	-2
461.093	1	1
462.286	1	-5
463.479	1	-1
464.672	1	5
465.865	1	-5
467.058	1	-9
468.251	1	3
469.444	1	-9
470.637	1	0
471.830	1	1
473.023	1	5
474.215	1	10
475.408	1	6
476.601	1	6
477.793	1	-4
478.986	1	-10
480.179	1	9
481.371	1	-13
482.564	1	0
483.756	1	8
484.948	1	-7
486.141	1	-10
487.333	1	4
488.525	1	2
489.718	1	-3
490.910	1	-4
492.102	1	-7
493.294	1	-7
494.486	1	-3
495.678	1	-1
496.870	1	14
498.062	1	-2
499.254	1	-6
500.446	1	-7
501.638	1	-3
502.829	1	-4
504.021	1	-1
505.213	1	7
506.404	1	1
507.596	1	3
508.788	1	13
509.979	1	8
511.171	1	0
512.362	1	-6
513.553	1	-12
514.745	1	-11
515.936	1	0
517.127	1	-4
518.319	1	-6
519.510	1	-8
520.701	1	1
521.892	1	-9
523.083	1	-8
524.274	1	1
525.465	1	7
526.656	1	-8
527.847	1	4
529.038	1	-1
530.229	1	1
531.419	1	1
532.610	1	-5
533.801	1	15
534.991	1	-3
536.182	1	2
537.373	1	-1
538.563	1	-5
539.754	1	3
540.944	1	-9
542.134	1	5
543.325	1	0
544.515	1	1
545.705	1	3
546.896	1	1
548.086	1	-6
549.276	1	-2
550.466	1	-6
551.656	1	1
552.846	1	-6
554.036	1	-11
555.226	1	-9
556.416	1	-1
557.606	1	-2
558.796	1	-1
559.986	1	-7
561.175	1	-1
562.365	1	1
563.555	1	2
564.744	1	5
565.934	1	7
567.123	1	10
568.313	1	7
569.502	1	1
570.692	1	0
571.881	1	3
573.070	1	6
574.260	1	5
575.449	1	-8
576.638	1	-1
577.827	1	-2
579.016	1	8
580.205	1	-9
581.394	1	-3
582.583	1	12
583.772	1	8
584.961	1	8
586.150	1	-11
587.339	1	6
588.528	1	1
589.717	1	-5
590.905	1	-6
592.094	1	2
593.283	1	-6
594.471	1	7
595.660	1	2
596.848	1	0
598.037	1	-1
599.225	1	-4
600.413	1	14
601.602	1	7
602.790	1	-6
603.978	1	1
605.166	1	2
606.355	1	12
607.543	1	4
608.731	1	1
609.919	1	9
611.107	1	-1
612.295	1	-15
613.483	1	2
614.671	1	-2
615.858	1	2
617.046	1	4
618.234	1	-9
619.422	1	-6
620.609	1	6
621.797	1	-7
622.985	1	-3
624.172	1	3
625.360	1	0
626.547	1	-2
627.735	1	-1
628.922	1	8
630.109	1	-10
631.297	1	3
632.484	1	-2
633.671	1	-3
634.858	1	-6
636.045	1	6
637.232	1	-8
638.419	1	4
639.606	1	-6
640.793	1	9
641.980	1	-3
643.167	1	-5
644.354	1	0
645.541	1	5
646.728	1	1
647.914	1	-4
649.101	1	1
650.288	1	6
651.474	1	-7
652.661	1	-5
653.847	1	10
655.034	1	7
656.220	1	-7
657.406	1	1
658.593	1	3
659.779	1	-7
660.965	1	5
662.152	1	5
663.338	1	8
664.524	1	1
665.710	1	-5
666.896	1	-3
668.082	1	1
669.268	1	-4
670.454	1	-1
671.640	1	-1
672.826	1	-3
674.011	1	-7
675.197	1	-11
676.383	1	-7
677.569	1	-13
678.754	1	-4
679.940	1	0
681.125	1	-2
682.311	1	8
683.496	1	3
684.682	1	-6
685.867	1	-2
687.053	1	0
688.238	1	0
688.746	1	0

File: GaN_sample F_spot 12_UVVIS_200 K_200um_800 ms 2x2mm1_514.txt
340.368	1	4
341.565	1	-7
342.763	1	8
343.960	1	3
345.157	1	-7
346.354	1	-7
347.552	1	-10
348.749	1	-9
349.946	1	-6
351.143	1	-7
352.340	1	-4
353.537	1	-9
354.734	1	-3
355.931	1	-5
357.127	1	3
358.324	1	-4
359.521	1	3
360.718	1	-7
361.914	1	5
363.111	1	0
364.308	1	8
365.504	1	15
366.701	1	-1
367.897	1	14
369.093	1	0
370.290	1	6
371.486	1	13
372.682	1	12
373.879	1	-5
375.075	1	-10
376.271	1	-1
377.467	1	7
378.663	1	2
379.859	1	4
381.055	1	9
382.251	1	-12
383.447	1	-1
384.643	1	9
385.839	1	-3
387.035	1	7
388.230	1	9
389.426	1	-4
390.622	1	-6
391.817	1	-4
393.013	1	3
394.208	1	7
395.404	1	1
396.599	1	-12
397.795	1	-1
398.990	1	-8
400.186	1	-4
401.381	1	-9
402.576	1	3
403.771	1	5
404.967	1	-3
406.162	1	5
407.357	1	4
408.552	1	-9
409.747	1	-4
410.942	1	3
412.137	1	3
413.332	1	-4
414.526	1	0
415.721	1	-4
416.916	1	-7
418.111	1	0
419.305	1	3
420.500	1	-10
421.695	1	-8
422.889	1	-8
424.084	1	-9
425.278	1	11
426.472	1	4
427.667	1	6
428.861	1	-9
430.055	1	-11
431.250	1	-3
432.444	1	5
433.638	1	-2
434.832	1	6
436.026	1	-4
437.220	1	-4
438.414	1	-13
439.608	1	-10
440.802	1	-4
441.996	1	6
443.190	1	-2
444.384	1	-10
445.578	1	-14
446.771	1	6
447.965	1	-1
449.159	1	-7
450.352	1	0
451.546	1	-2
452.739	1	6
453.933	1	-11
455.126	1	-12
456.320	1	-8
457.513	1	6
458.706	1	-9
459.899	1	-3
461.093	1	2
462.286	1	-4
463.479	1	-3
464.672	1	-2
465.865	1	-1
467.058	1	6
468.251	1	1
469.444	1	-6
470.637	1	3
471.830	1	-13
473.023	1	11
474.215	1	9
475.408	1	-2
476.601	1	-2
477.793	1	0
478.986	1	-4
480.179	1	-5
481.371	1	-2
482.564	1	-1
483.756	1	5
484.948	1	-2
486.141	1	1
487.333	1	0
488.525	1	4
489.718	1	1
490.910	1	6
492.102	1	1
493.294	1	-7
494.486	1	1
495.678	1	-10
496.870	1	-2
498.062	1	-4
499.254	1	-1
500.446	1	-1
501.638	1	-10
502.829	1	-2
504.021	1	1
505.213	1	7
506.404	1	-1
507.596	1	-4
508.788	1	11
509.979	1	-4
511.171	1	-3
512.362	1	-9
513.553	1	-8
514.745	1	-3
515.936	1	-8
517.127	1	-11
518.319	1	-6
519.510	1	-5
520.701	1	9
521.892	1	-6
523.083	1	-2
524.274	1	0
525.465	1	3
526.656	1	4
527.847	1	7
529.038	1	-6
530.229	1	0
531.419	1	-6
532.610	1	-7
533.801	1	3
534.991	1	-2
536.182	1	-1
537.373	1	-2
538.563	1	8
539.754	1	7
540.944	1	-10
542.134	1	1
543.325	1	-5
544.515	1	3
545.705	1	-2
546.896	1	-1
548.086	1	0
549.276	1	0
550.466	1	3
551.656	1	8
552.846	1	-9
554.036	1	-10
555.226	1	-12
556.416	1	-12
557.606	1	3
558.796	1	-8
559.986	1	-5
561.175	1	5
562.365	1	2
563.555	1	-2
564.744	1	1
565.934	1	16
567.123	1	-1
568.313	1	5
569.502	1	-13
570.692	1	5
571.881	1	13
573.070	1	3
574.260	1	6
575.449	1	-11
576.638	1	-4
577.827	1	-4
579.016	1	12
580.205	1	-6
581.394	1	-7
582.583	1	8
583.772	1	3
584.961	1	2
586.150	1	-3
587.339	1	7
588.528	1	2
589.717	1	1
590.905	1	2
592.094	1	-1
593.283	1	0
594.471	1	9
595.660	1	-5
596.848	1	-3
598.037	1	-8
599.225	1	-11
600.413	1	4
601.602	1	16
602.790	1	-1
603.978	1	2
605.166	1	3
606.355	1	3
607.543	1	0
608.731	1	-2
609.919	1	4
611.107	1	2
612.295	1	-1
613.483	1	8
614.671	1	1
615.858	1	1
617.046	1	0
618.234	1	-14
619.422	1	-1
620.609	1	3
621.797	1	-8
622.985	1	2
624.172	1	-1
625.360	1	0
626.547	1	3
627.735	1	2
628.922	1	3
630.109	1	-7
631.297	1	5
632.484	1	4
633.671	1	1
634.858	1	-2
636.045	1	4
637.232	1	2
638.419	1	-4
639.606	1	7
640.793	1	8
641.980	1	4
643.167	1	-3
644.354	1	2
645.541	1	3
646.728	1	-10
647.914	1	-5
649.101	1	-6
650.288	1	-2
651.474	1	3
652.661	1	-9
653.847	1	-1
655.034	1	4
656.220	1	-6
657.406	1	1
658.593	1	7
659.779	1	6
660.965	1	9
662.152	1	1
663.338	1	13
664.524	1	0
665.710	1	-8
666.896	1	-4
668.082	1	-2
669.268	1	-5
670.454	1	5
671.640	1	8
672.826	1	0
674.011	1	-7
675.197	1	-10
676.383	1	3
677.569	1	-6
678.754	1	-2
679.940	1	-3
681.125	1	-1
682.311	1	3
683.496	1	8
684.682	1	-13
685.867	1	-6
687.053	1	8
688.238	1	-2
688.746	1	-8

File: GaN_sample F_spot 12_UVVIS_200 K_200um_800 ms 2x2mm1_517.txt
340.368	1	5
341.565	1	-13
342.763	1	3
343.960	1	2
345.157	1	-2
346.354	1	-10
347.552	1	-1
348.749	1	-1
349.946	1	-9
351.143	1	1
352.340	1	-7
353.537	1	0
354.734	1	4
355.931	1	1
357.127	1	-2
358.324	1	4
359.521	1	5
360.718	1	0
361.914	1	5
363.111	1	10
364.308	1	5
365.504	1	4
366.701	1	-3
367.897	1	9
369.093	1	3
370.290	1	0
371.486	1	11
372.682	1	13
373.879	1	-2
375.075	1	-7
376.271	1	2
377.467	1	1
378.663	1	-6
379.859	1	7
381.055	1	1
382.251	1	-1
383.447	1	-1
384.643	1	5
385.839	1	4
387.035	1	-6
388.230	1	3
389.426	1	3
390.622	1	-12
391.817	1	9
393.013	1	-5
394.208	1	-4
395.404	1	-13
396.599	1	-4
397.795	1	-3
398.990	1	11
400.186	1	2
401.381	1	-14
402.576	1	-1
403.771	1	-5
404.967	1	-2
406.162	1	7
407.357	1	-10
408.552	1	-3
409.747	1	1
410.942	1	5
412.137	1	2
413.332	1	-4
414.526	1	-5
415.721	1	-6
416.916	1	0
418.111	1	-3
419.305	1	12
420.500	1	-2
421.695	1	-1
422.889	1	-11
424.084	1	6
425.278	1	10
426.472	1	2
427.667	1	2
428.861	1	-4
430.055	1	9
431.250	1	-3
432.444	1	-1
433.638	1	-11
434.832	1	-7
436.026	1	5
437.220	1	-6
438.414	1	-1
439.608	1	-11
440.802	1	-8
441.996	1	1
443.190	1	-6
444.384	1	-12
445.578	1	-5
446.771	1	16
447.965	1	4
449.159	1	-5
450.352	1	-1
451.546	1	-3
452.739	1	2
453.933	1	1
455.126	1	-4
456.320	1	-7
457.513	1	-1
458.706	1	-3
459.899	1	4
461.093	1	-12
462.286	1	-1
463.479	1	-4
464.672	1	6
465.865	1	-2
467.058	1	0
468.251	1	-4
469.444	1	-14
470.637	1	3
471.830	1	-1
473.023	1	-5
474.215	1	9
475.408	1	-3
476.601	1	4
477.793	1	-7
478.986	1	1
480.179	1	-1
481.371	1	5
482.564	1	4
483.756	1	4
484.948	1	-6
486.141	1	-12
487.333	1	-2
488.525	1	2
489.718	1	0
490.910	1	4
492.102	1	-7
493.294	1	-3
494.486	1	1
495.678	1	1
496.870	1	0
498.062	1	-2
499.254	1	-5
500.446	1	-11
501.638	1	-6
502.829	1	1
504.021	1	1
505.213	1	3
506.404	1	-9
507.596	1	6
508.788	1	13
509.979	1	-1
511.171	1	-1
512.362	1	-11
513.553	1	-8
514.745	1	-2
515.936	1	-8
517.127	1	-6
518.319	1	-4
519.510	1	8
520.701	1	-2
521.892	1	-2
523.083	1	-9
524.274	1	4
525.465	1	6
526.656	1	-6
527.847	1	-6
529.038	1	4
530.229	1	9
531.419	1	-2
532.610	1	-16
533.801	1	13
534.991	1	-4
536.182	1	-10
537.373	1	-2
538.563	1	14
539.754	1	-4
540.944	1	1
542.134	1	0
543.325	1	1
544.515	1	-6
545.705	1	2
546.896	1	-6
548.086	1	0
549.276	1	-3
550.466	1	3
551.656	1	2
552.846	1	-1
554.036	1	-4
555.226	1	-16
556.416	1	-4
557.606	1	0
558.796	1	-2
559.986	1	-8
561.175	1	-6
562.365	1	-3
563.555	1	-3
564.744	1	4
565.934	1	0
567.123	1	4
568.313	1	4
569.502	1	-9
570.692	1	0
571.881	1	10
573.070	1	-3
574.260	1	9
575.449	1	0
576.638	1	-10
577.827	1	-8
579.016	1	-1
580.205	1	-3
581.394	1	-9
582.583	1	5
583.772	1	1
584.961	1	-5
586.150	1	-11
587.339	1	-3
588.528	1	-1
589.717	1	2
590.905	1	-3
592.094	1	-7
593.283	1	7
594.471	1	13
595.660	1	-4
596.848	1	-2
598.037	1	-1
599.225	1	-13
600.413	1	3
601.602	1	12
602.790	1	-5
603.978	1	0
605.166	1	1
606.355	1	-3
607.543	1	-1
608.731	1	-1
609.919	1	12
611.107	1	0
612.295	1	-6
613.483	1	-1
614.671	1	4
615.858	1	0
617.046	1	4
618.234	1	-2
619.422	1	-9
620.609	1	-4
621.797	1	-2
622.985	1	0
624.172	1	5
625.360	1	-2
626.547	1	0
627.735	1	6
628.922	1	0
630.109	1	-10
631.297	1	-6
632.484	1	-11
633.671	1	-5
634.858	1	-2
636.045	1	14
637.232	1	-1
638.419	1	1
639.606	1	0
640.793	1	8
641.980	1	3
643.167	1	-13
644.354	1	1
645.541	1	4
646.728	1	-3
647.914	1	-3
649.101	1	-5
650.288	1	7
651.474	1	-2
652.661	1	-7
653.847	1	10
655.034	1	-5
656.220	1	-13
657.406	1	-1
658.593	1	10
659.779	1	-3
660.965	1	0
662.152	1	3
663.338	1	7
664.524	1	10
665.710	1	-4
666.896	1	-12
668.082	1	4
669.268	1	1
670.454	1	-1
671.640	1	6
672.826	1	4
674.011	1	-4
675.197	1	-11
676.383	1	-1
677.569	1	-2
678.754	1	1
679.940	1	3
681.125	1	10
682.311	1	0
683.496	1	4
684.682	1	-5
685.867	1	1
687.053	1	-5
688.238	1	2
688.746	1	0

File: GaN_sample F_spot 12_UVVIS_200 K_200um_800 ms 2x2mm1_520.txt
340.368	1	10
341.565	1	-5
342.763	1	8
343.960	1	0
345.157	1	-5
346.354	1	-4
347.552	1	-6
348.749	1	-2
349.946	1	-7
351.143	1	2
352.340	1	4
353.537	1	-8
354.734	1	3
355.931	1	1
357.127	1	0
358.324	1	-6
359.521	1	6
360.718	1	-2
361.914	1	3
363.111	1	-2
364.308	1	-8
365.504	1	10
366.701	1	2
367.897	1	8
369.093	1	0
370.290	1	11
371.486	1	2
372.682	1	7
373.879	1	1
375.075	1	5
376.271	1	12
377.467	1	4
378.663	1	-9
379.859	1	4
381.055	1	14
382.251	1	-7
383.447	1	3
384.643	1	7
385.839	1	2
387.035	1	1
388.230	1	14
389.426	1	-5
390.622	1	3
391.817	1	-1
393.013	1	2
394.208	1	-16
395.404	1	-6
396.599	1	-3
397.795	1	2
398.990	1	0
400.186	1	-5
401.381	1	-6
402.576	1	-2
403.771	1	-2
404.967	1	-5
406.162	1	1
407.357	1	-6
408.552	1	-3
409.747	1	-3
410.942	1	7
412.137	1	3
413.332	1	5
414.526	1	-1
415.721	1	-16
416.916	1	0
418.111	1	-3
419.305	1	7
420.500	1	-11
421.695	1	-1
422.889	1	-7
424.084	1	0
425.278	1	6
426.472	1	-3
427.667	1	3
428.861	1	-1
430.055	1	8
431.250	1	-3
432.444	1	-2
433.638	1	-6
434.832	1	-3
436.026	1	7
437.220	1	1
438.414	1	-6
439.608	1	-10
440.802	1	4
441.996	1	0
443.190	1	-1
444.384	1	-7
445.578	1	-15
446.771	1	19
447.965	1	-1
449.159	1	-7
450.352	1	-10
451.546	1	-7
452.739	1	0
453.933	1	-8
455.126	1	-9
456.320	1	-3
457.513	1	3
458.706	1	1
459.899	1	0
461.093	1	-6
462.286	1	1
463.479	1	-3
464.672	1	0
465.865	1	-5
467.058	1	2
468.251	1	1
469.444	1	-8
470.637	1	-2
471.830	1	-5
473.023	1	4
474.215	1	9
475.408	1	0
476.601	1	-8
477.793	1	-6
478.986	1	-3
480.179	1	3
481.371	1	2
482.564	1	-5
483.756	1	2
484.948	1	-7
486.141	1	-6
487.333	1	-6
488.525	1	-1
489.718	1	-5
490.910	1	8
492.102	1	-13
493.294	1	-3
494.486	1	-2
495.678	1	2
496.870	1	2
498.062	1	1
499.254	1	-1
500.446	1	-15
501.638	1	-1
502.829	1	-5
504.021	1	-3
505.213	1	-1
506.404	1	1
507.596	1	5
508.788	1	15
509.979	1	0
511.171	1	-10
512.362	1	4
513.553	1	-17
514.745	1	-4
515.936	1	-6
517.127	1	0
518.319	1	-5
519.510	1	3
520.701	1	-3
521.892	1	2
523.083	1	-7
524.274	1	4
525.465	1	11
526.656	1	4
527.847	1	3
529.038	1	4
530.229	1	3
531.419	1	0
532.610	1	-1
533.801	1	4
534.991	1	-7
536.182	1	-3
537.373	1	-6
538.563	1	0
539.754	1	9
540.944	1	-2
542.134	1	10
543.325	1	-2
544.515	1	-9
545.705	1	-3
546.896	1	-8
548.086	1	-1
549.276	1	-4
550.466	1	0
551.656	1	0
552.846	1	-5
554.036	1	0
555.226	1	-4
556.416	1	-9
557.606	1	4
558.796	1	4
559.986	1	-6
561.175	1	4
562.365	1	7
563.555	1	-7
564.744	1	5
565.934	1	4
567.123	1	2
568.313	1	3
569.502	1	-9
570.692	1	2
571.881	1	9
573.070	1	0
574.260	1	6
575.449	1	-1
576.638	1	-6
577.827	1	-8
579.016	1	5
580.205	1	-1
581.394	1	-8
582.583	1	7
583.772	1	10
584.961	1	3
586.150	1	-1
587.339	1	-4
588.528	1	9
589.717	1	-1
590.905	1	-3
592.094	1	-8
593.283	1	-8
594.471	1	10
595.660	1	0
596.848	1	2
598.037	1	-3
599.225	1	-13
600.413	1	7
601.602	1	7
602.790	1	-7
603.978	1	9
605.166	1	4
606.355	1	-4
607.543	1	-3
608.731	1	4
609.919	1	9
611.107	1	-10
612.295	1	-5
613.483	1	0
614.671	1	0
615.858	1	0
617.046	1	-2
618.234	1	-3
619.422	1	-8
620.609	1	3
621.797	1	-6
622.985	1	1
624.172	1	-6
625.360	1	4
626.547	1	2
627.735	1	1
628.922	1	7
630.109	1	-15
631.297	1	8
632.484	1	-1
633.671	1	0
634.858	1	4
636.045	1	4
637.232	1	-2
638.419	1	-8
639.606	1	6
640.793	1	9
641.980	1	4
643.167	1	-6
644.354	1	7
645.541	1	-9
646.728	1	-6
647.914	1	-1
649.101	1	-4
650.288	1	6
651.474	1	-4
652.661	1	4
653.847	1	7
655.034	1	1
656.220	1	-7
657.406	1	0
658.593	1	2
659.779	1	1
660.965	1	6
662.152	1	2
663.338	1	-4
664.524	1	9
665.710	1	1
666.896	1	-2
668.082	1	2
669.268	1	-2
670.454	1	-1
671.640	1	0
672.826	1	-7
674.011	1	-6
675.197	1	-8
676.383	1	1
677.569	1	-5
678.754	1	-6
679.940	1	-4
681.125	1	2
682.311	1	8
683.496	1	1
684.682	1	-9
685.867	1	-4
687.053	1	3
688.238	1	1
688.746	1	-11