Folder: cryo-il_analysis/Data/GaN_200K_800ms (part 15)

File: GaN_sample F_spot 12_UVVIS_200 K_200um_800 ms 2x2mm1_107.txt
340.368	1	9
341.565	1	-9
342.763	1	8
343.960	1	6
345.157	1	-9
346.354	1	8
347.552	1	4
348.749	1	-7
349.946	1	-4
351.143	1	2
352.340	1	8
353.537	1	6
354.734	1	10
355.931	1	10
357.127	1	8
358.324	1	10
359.521	1	15
360.718	1	24
361.914	1	30
363.111	1	19
364.308	1	39
365.504	1	67
366.701	1	73
367.897	1	90
369.093	1	84
370.290	1	79
371.486	1	95
372.682	1	78
373.879	1	57
375.075	1	58
376.271	1	46
377.467	1	44
378.663	1	30
379.859	1	30
381.055	1	35
382.251	1	17
383.447	1	19
384.643	1	15
385.839	1	12
387.035	1	14
388.230	1	16
389.426	1	9
390.622	1	10
391.817	1	5
393.013	1	11
394.208	1	7
395.404	1	-1
396.599	1	0
397.795	1	9
398.990	1	3
400.186	1	13
401.381	1	2
402.576	1	3
403.771	1	11
404.967	1	5
406.162	1	14
407.357	1	3
408.552	1	-1
409.747	1	2
410.942	1	13
412.137	1	9
413.332	1	-3
414.526	1	-2
415.721	1	3
416.916	1	-5
418.111	1	2
419.305	1	5
420.500	1	0
421.695	1	6
422.889	1	-6
424.084	1	4
425.278	1	9
426.472	1	2
427.667	1	7
428.861	1	-2
430.055	1	-1
431.250	1	3
432.444	1	11
433.638	1	2
434.832	1	3
436.026	1	8
437.220	1	8
438.414	1	-6
439.608	1	-7
440.802	1	-3
441.996	1	2
443.190	1	7
444.384	1	-4
445.578	1	-5
446.771	1	3
447.965	1	8
449.159	1	-1
450.352	1	-5
451.546	1	3
452.739	1	-1
453.933	1	-4
455.126	1	-2
456.320	1	5
457.513	1	9
458.706	1	3
459.899	1	2
461.093	1	5
462.286	1	3
463.479	1	-1
464.672	1	4
465.865	1	1
467.058	1	-2
468.251	1	-5
469.444	1	2
470.637	1	1
471.830	1	1
473.023	1	8
474.215	1	16
475.408	1	10
476.601	1	5
477.793	1	1
478.986	1	1
480.179	1	-4
481.371	1	1
482.564	1	-2
483.756	1	20
484.948	1	3
486.141	1	-3
487.333	1	2
488.525	1	12
489.718	1	0
490.910	1	8
492.102	1	-1
493.294	1	3
494.486	1	15
495.678	1	3
496.870	1	4
498.062	1	-2
499.254	1	8
500.446	1	2
501.638	1	-5
502.829	1	10
504.021	1	6
505.213	1	6
506.404	1	7
507.596	1	11
508.788	1	17
509.979	1	6
511.171	1	4
512.362	1	-2
513.553	1	-6
514.745	1	5
515.936	1	2
517.127	1	10
518.319	1	7
519.510	1	14
520.701	1	10
521.892	1	1
523.083	1	14
524.274	1	-2
525.465	1	8
526.656	1	8
527.847	1	10
529.038	1	9
530.229	1	11
531.419	1	18
532.610	1	12
533.801	1	16
534.991	1	16
536.182	1	5
537.373	1	12
538.563	1	16
539.754	1	11
540.944	1	7
542.134	1	10
543.325	1	10
544.515	1	1
545.705	1	10
546.896	1	10
548.086	1	8
549.276	1	11
550.466	1	9
551.656	1	19
552.846	1	7
554.036	1	4
555.226	1	7
556.416	1	6
557.606	1	14
558.796	1	12
559.986	1	-1
561.175	1	12
562.365	1	8
563.555	1	5
564.744	1	14
565.934	1	14
567.123	1	18
568.313	1	18
569.502	1	8
570.692	1	21
571.881	1	21
573.070	1	10
574.260	1	17
575.449	1	19
576.638	1	4
577.827	1	0
579.016	1	12
580.205	1	4
581.394	1	10
582.583	1	15
583.772	1	16
584.961	1	9
586.150	1	4
587.339	1	8
588.528	1	8
589.717	1	12
590.905	1	4
592.094	1	11
593.283	1	4
594.471	1	10
595.660	1	5
596.848	1	13
598.037	1	3
599.225	1	4
600.413	1	12
601.602	1	19
602.790	1	12
603.978	1	9
605.166	1	10
606.355	1	9
607.543	1	-1
608.731	1	8
609.919	1	18
611.107	1	0
612.295	1	2
613.483	1	5
614.671	1	7
615.858	1	13
617.046	1	6
618.234	1	6
619.422	1	-10
620.609	1	12
621.797	1	-5
622.985	1	0
624.172	1	12
625.360	1	11
626.547	1	13
627.735	1	2
628.922	1	10
630.109	1	-11
631.297	1	6
632.484	1	2
633.671	1	-8
634.858	1	-2
636.045	1	13
637.232	1	5
638.419	1	-2
639.606	1	8
640.793	1	11
641.980	1	16
643.167	1	3
644.354	1	5
645.541	1	5
646.728	1	-2
647.914	1	5
649.101	1	-2
650.288	1	10
651.474	1	1
652.661	1	-1
653.847	1	14
655.034	1	5
656.220	1	-1
657.406	1	7
658.593	1	16
659.779	1	0
660.965	1	8
662.152	1	9
663.338	1	11
664.524	1	1
665.710	1	7
666.896	1	-4
668.082	1	2
669.268	1	1
670.454	1	11
671.640	1	4
672.826	1	5
674.011	1	7
675.197	1	2
676.383	1	5
677.569	1	-3
678.754	1	3
679.940	1	1
681.125	1	2
682.311	1	5
683.496	1	5
684.682	1	1
685.867	1	9
687.053	1	2
688.238	1	15
688.746	1	8

File: GaN_sample F_spot 12_UVVIS_200 K_200um_800 ms 2x2mm1_108.txt
340.368	1	7
341.565	1	-4
342.763	1	2
343.960	1	9
345.157	1	-1
346.354	1	-2
347.552	1	-2
348.749	1	0
349.946	1	0
351.143	1	2
352.340	1	7
353.537	1	0
354.734	1	9
355.931	1	9
357.127	1	8
358.324	1	12
359.521	1	23
360.718	1	22
361.914	1	24
363.111	1	29
364.308	1	39
365.504	1	55
366.701	1	69
367.897	1	84
369.093	1	85
370.290	1	87
371.486	1	87
372.682	1	71
373.879	1	53
375.075	1	50
376.271	1	55
377.467	1	35
378.663	1	28
379.859	1	25
381.055	1	32
382.251	1	18
383.447	1	24
384.643	1	30
385.839	1	10
387.035	1	3
388.230	1	29
389.426	1	12
390.622	1	7
391.817	1	6
393.013	1	6
394.208	1	14
395.404	1	3
396.599	1	-3
397.795	1	9
398.990	1	13
400.186	1	-2
401.381	1	4
402.576	1	0
403.771	1	3
404.967	1	3
406.162	1	15
407.357	1	-1
408.552	1	0
409.747	1	14
410.942	1	6
412.137	1	7
413.332	1	7
414.526	1	12
415.721	1	9
416.916	1	7
418.111	1	0
419.305	1	1
420.500	1	-4
421.695	1	-2
422.889	1	2
424.084	1	9
425.278	1	15
426.472	1	1
427.667	1	18
428.861	1	7
430.055	1	-4
431.250	1	-3
432.444	1	8
433.638	1	-1
434.832	1	1
436.026	1	19
437.220	1	8
438.414	1	-3
439.608	1	-7
440.802	1	0
441.996	1	6
443.190	1	1
444.384	1	-8
445.578	1	-8
446.771	1	16
447.965	1	-9
449.159	1	-9
450.352	1	3
451.546	1	-1
452.739	1	-4
453.933	1	-1
455.126	1	-7
456.320	1	-2
457.513	1	15
458.706	1	2
459.899	1	-1
461.093	1	9
462.286	1	2
463.479	1	-3
464.672	1	4
465.865	1	-1
467.058	1	-3
468.251	1	-3
469.444	1	1
470.637	1	1
471.830	1	-1
473.023	1	5
474.215	1	20
475.408	1	0
476.601	1	6
477.793	1	1
478.986	1	5
480.179	1	5
481.371	1	6
482.564	1	7
483.756	1	11
484.948	1	-3
486.141	1	-1
487.333	1	-3
488.525	1	-3
489.718	1	-2
490.910	1	5
492.102	1	5
493.294	1	2
494.486	1	8
495.678	1	-2
496.870	1	9
498.062	1	2
499.254	1	8
500.446	1	-5
501.638	1	2
502.829	1	1
504.021	1	5
505.213	1	8
506.404	1	6
507.596	1	7
508.788	1	19
509.979	1	5
511.171	1	10
512.362	1	3
513.553	1	-4
514.745	1	-3
515.936	1	6
517.127	1	4
518.319	1	3
519.510	1	12
520.701	1	13
521.892	1	6
523.083	1	9
524.274	1	7
525.465	1	8
526.656	1	6
527.847	1	0
529.038	1	11
530.229	1	8
531.419	1	8
532.610	1	-13
533.801	1	28
534.991	1	11
536.182	1	2
537.373	1	5
538.563	1	11
539.754	1	11
540.944	1	1
542.134	1	15
543.325	1	6
544.515	1	0
545.705	1	8
546.896	1	10
548.086	1	18
549.276	1	-2
550.466	1	17
551.656	1	13
552.846	1	5
554.036	1	8
555.226	1	4
556.416	1	7
557.606	1	8
558.796	1	13
559.986	1	8
561.175	1	6
562.365	1	5
563.555	1	5
564.744	1	13
565.934	1	16
567.123	1	13
568.313	1	13
569.502	1	3
570.692	1	16
571.881	1	17
573.070	1	5
574.260	1	17
575.449	1	10
576.638	1	5
577.827	1	-5
579.016	1	15
580.205	1	2
581.394	1	6
582.583	1	18
583.772	1	12
584.961	1	6
586.150	1	10
587.339	1	9
588.528	1	7
589.717	1	10
590.905	1	0
592.094	1	5
593.283	1	5
594.471	1	1
595.660	1	3
596.848	1	14
598.037	1	-4
599.225	1	-3
600.413	1	19
601.602	1	17
602.790	1	12
603.978	1	4
605.166	1	9
606.355	1	20
607.543	1	8
608.731	1	9
609.919	1	8
611.107	1	9
612.295	1	2
613.483	1	9
614.671	1	11
615.858	1	12
617.046	1	5
618.234	1	7
619.422	1	-7
620.609	1	13
621.797	1	4
622.985	1	3
624.172	1	9
625.360	1	-3
626.547	1	5
627.735	1	7
628.922	1	11
630.109	1	-7
631.297	1	1
632.484	1	-3
633.671	1	4
634.858	1	4
636.045	1	14
637.232	1	3
638.419	1	-2
639.606	1	12
640.793	1	11
641.980	1	5
643.167	1	3
644.354	1	10
645.541	1	16
646.728	1	8
647.914	1	0
649.101	1	4
650.288	1	7
651.474	1	8
652.661	1	9
653.847	1	7
655.034	1	5
656.220	1	-9
657.406	1	13
658.593	1	13
659.779	1	8
660.965	1	11
662.152	1	12
663.338	1	3
664.524	1	6
665.710	1	9
666.896	1	3
668.082	1	12
669.268	1	-7
670.454	1	8
671.640	1	4
672.826	1	3
674.011	1	5
675.197	1	-3
676.383	1	6
677.569	1	9
678.754	1	-8
679.940	1	3
681.125	1	10
682.311	1	4
683.496	1	10
684.682	1	7
685.867	1	-9
687.053	1	1
688.238	1	15
688.746	1	2

File: GaN_sample F_spot 12_UVVIS_200 K_200um_800 ms 2x2mm1_109.txt
340.368	1	9
341.565	1	-12
342.763	1	15
343.960	1	3
345.157	1	-3
346.354	1	8
347.552	1	-8
348.749	1	1
349.946	1	2
351.143	1	2
352.340	1	10
353.537	1	6
354.734	1	9
355.931	1	-1
357.127	1	10
358.324	1	9
359.521	1	20
360.718	1	19
361.914	1	33
363.111	1	15
364.308	1	41
365.504	1	56
366.701	1	69
367.897	1	72
369.093	1	70
370.290	1	75
371.486	1	80
372.682	1	71
373.879	1	49
375.075	1	42
376.271	1	43
377.467	1	40
378.663	1	35
379.859	1	41
381.055	1	29
382.251	1	13
383.447	1	19
384.643	1	22
385.839	1	10
387.035	1	14
388.230	1	15
389.426	1	4
390.622	1	9
391.817	1	12
393.013	1	11
394.208	1	8
395.404	1	-4
396.599	1	4
397.795	1	4
398.990	1	5
400.186	1	-1
401.381	1	3
402.576	1	1
403.771	1	10
404.967	1	2
406.162	1	6
407.357	1	-3
408.552	1	3
409.747	1	7
410.942	1	23
412.137	1	9
413.332	1	8
414.526	1	-5
415.721	1	3
416.916	1	1
418.111	1	2
419.305	1	9
420.500	1	5
421.695	1	-3
422.889	1	-13
424.084	1	2
425.278	1	14
426.472	1	-3
427.667	1	2
428.861	1	-3
430.055	1	2
431.250	1	5
432.444	1	3
433.638	1	-2
434.832	1	8
436.026	1	13
437.220	1	4
438.414	1	0
439.608	1	-10
440.802	1	-5
441.996	1	7
443.190	1	-5
444.384	1	-6
445.578	1	-8
446.771	1	13
447.965	1	4
449.159	1	-10
450.352	1	0
451.546	1	5
452.739	1	8
453.933	1	-5
455.126	1	-4
456.320	1	-8
457.513	1	17
458.706	1	6
459.899	1	7
461.093	1	0
462.286	1	3
463.479	1	2
464.672	1	0
465.865	1	7
467.058	1	6
468.251	1	7
469.444	1	-7
470.637	1	4
471.830	1	-3
473.023	1	4
474.215	1	10
475.408	1	4
476.601	1	10
477.793	1	1
478.986	1	-2
480.179	1	5
481.371	1	6
482.564	1	3
483.756	1	14
484.948	1	-6
486.141	1	0
487.333	1	4
488.525	1	6
489.718	1	5
490.910	1	2
492.102	1	1
493.294	1	-2
494.486	1	1
495.678	1	1
496.870	1	8
498.062	1	8
499.254	1	5
500.446	1	-2
501.638	1	-11
502.829	1	3
504.021	1	10
505.213	1	1
506.404	1	6
507.596	1	8
508.788	1	24
509.979	1	4
511.171	1	-1
512.362	1	-1
513.553	1	-7
514.745	1	2
515.936	1	9
517.127	1	13
518.319	1	9
519.510	1	0
520.701	1	8
521.892	1	14
523.083	1	-1
524.274	1	19
525.465	1	12
526.656	1	2
527.847	1	18
529.038	1	13
530.229	1	13
531.419	1	5
532.610	1	-8
533.801	1	19
534.991	1	13
536.182	1	8
537.373	1	7
538.563	1	10
539.754	1	10
540.944	1	3
542.134	1	4
543.325	1	4
544.515	1	12
545.705	1	7
546.896	1	9
548.086	1	8
549.276	1	6
550.466	1	12
551.656	1	18
552.846	1	9
554.036	1	14
555.226	1	4
556.416	1	6
557.606	1	14
558.796	1	7
559.986	1	4
561.175	1	9
562.365	1	10
563.555	1	5
564.744	1	13
565.934	1	13
567.123	1	9
568.313	1	15
569.502	1	16
570.692	1	15
571.881	1	23
573.070	1	7
574.260	1	16
575.449	1	5
576.638	1	8
577.827	1	0
579.016	1	24
580.205	1	7
581.394	1	8
582.583	1	21
583.772	1	17
584.961	1	10
586.150	1	6
587.339	1	8
588.528	1	13
589.717	1	6
590.905	1	5
592.094	1	7
593.283	1	15
594.471	1	15
595.660	1	4
596.848	1	8
598.037	1	9
599.225	1	2
600.413	1	17
601.602	1	17
602.790	1	10
603.978	1	5
605.166	1	8
606.355	1	13
607.543	1	0
608.731	1	6
609.919	1	13
611.107	1	5
612.295	1	-1
613.483	1	4
614.671	1	12
615.858	1	16
617.046	1	3
618.234	1	8
619.422	1	-7
620.609	1	8
621.797	1	8
622.985	1	6
624.172	1	8
625.360	1	11
626.547	1	4
627.735	1	6
628.922	1	10
630.109	1	-4
631.297	1	-3
632.484	1	1
633.671	1	2
634.858	1	3
636.045	1	8
637.232	1	4
638.419	1	5
639.606	1	5
640.793	1	21
641.980	1	17
643.167	1	1
644.354	1	3
645.541	1	2
646.728	1	12
647.914	1	-2
649.101	1	5
650.288	1	2
651.474	1	-2
652.661	1	-5
653.847	1	3
655.034	1	0
656.220	1	2
657.406	1	8
658.593	1	3
659.779	1	4
660.965	1	7
662.152	1	6
663.338	1	10
664.524	1	6
665.710	1	5
666.896	1	4
668.082	1	4
669.268	1	4
670.454	1	10
671.640	1	7
672.826	1	5
674.011	1	1
675.197	1	-2
676.383	1	11
677.569	1	-7
678.754	1	-1
679.940	1	-3
681.125	1	6
682.311	1	7
683.496	1	4
684.682	1	-8
685.867	1	2
687.053	1	11
688.238	1	-1
688.746	1	4

File: GaN_sample F_spot 12_UVVIS_200 K_200um_800 ms 2x2mm1_110.txt
340.368	1	10
341.565	1	-6
342.763	1	3
343.960	1	10
345.157	1	-3
346.354	1	3
347.552	1	-2
348.749	1	-8
349.946	1	6
351.143	1	9
352.340	1	7
353.537	1	4
354.734	1	8
355.931	1	7
357.127	1	9
358.324	1	11
359.521	1	13
360.718	1	18
361.914	1	28
363.111	1	24
364.308	1	36
365.504	1	54
366.701	1	58
367.897	1	77
369.093	1	79
370.290	1	87
371.486	1	75
372.682	1	77
373.879	1	49
375.075	1	49
376.271	1	46
377.467	1	39
378.663	1	29
379.859	1	37
381.055	1	23
382.251	1	13
383.447	1	20
384.643	1	30
385.839	1	19
387.035	1	21
388.230	1	18
389.426	1	4
390.622	1	14
391.817	1	14
393.013	1	6
394.208	1	8
395.404	1	1
396.599	1	1
397.795	1	12
398.990	1	7
400.186	1	7
401.381	1	-6
402.576	1	4
403.771	1	8
404.967	1	4
406.162	1	20
407.357	1	1
408.552	1	0
409.747	1	-1
410.942	1	1
412.137	1	13
413.332	1	8
414.526	1	13
415.721	1	-4
416.916	1	-8
418.111	1	7
419.305	1	5
420.500	1	-4
421.695	1	0
422.889	1	-2
424.084	1	5
425.278	1	8
426.472	1	-2
427.667	1	3
428.861	1	5
430.055	1	8
431.250	1	4
432.444	1	4
433.638	1	7
434.832	1	8
436.026	1	13
437.220	1	10
438.414	1	-13
439.608	1	-8
440.802	1	-1
441.996	1	2
443.190	1	1
444.384	1	-5
445.578	1	0
446.771	1	18
447.965	1	-3
449.159	1	0
450.352	1	-3
451.546	1	-4
452.739	1	12
453.933	1	-2
455.126	1	-4
456.320	1	-1
457.513	1	4
458.706	1	12
459.899	1	11
461.093	1	-1
462.286	1	-1
463.479	1	1
464.672	1	-5
465.865	1	3
467.058	1	9
468.251	1	1
469.444	1	-7
470.637	1	3
471.830	1	7
473.023	1	0
474.215	1	9
475.408	1	2
476.601	1	-2
477.793	1	10
478.986	1	1
480.179	1	4
481.371	1	-4
482.564	1	-1
483.756	1	11
484.948	1	1
486.141	1	-3
487.333	1	4
488.525	1	5
489.718	1	7
490.910	1	7
492.102	1	-5
493.294	1	-3
494.486	1	9
495.678	1	6
496.870	1	1
498.062	1	-1
499.254	1	6
500.446	1	-8
501.638	1	-2
502.829	1	5
504.021	1	5
505.213	1	12
506.404	1	2
507.596	1	9
508.788	1	23
509.979	1	10
511.171	1	3
512.362	1	3
513.553	1	3
514.745	1	8
515.936	1	-1
517.127	1	0
518.319	1	-1
519.510	1	15
520.701	1	3
521.892	1	8
523.083	1	3
524.274	1	10
525.465	1	21
526.656	1	7
527.847	1	11
529.038	1	6
530.229	1	9
531.419	1	10
532.610	1	-1
533.801	1	18
534.991	1	-1
536.182	1	2
537.373	1	5
538.563	1	16
539.754	1	15
540.944	1	1
542.134	1	6
543.325	1	2
544.515	1	2
545.705	1	13
546.896	1	6
548.086	1	9
549.276	1	11
550.466	1	2
551.656	1	8
552.846	1	8
554.036	1	12
555.226	1	-3
556.416	1	6
557.606	1	6
558.796	1	11
559.986	1	1
561.175	1	4
562.365	1	6
563.555	1	7
564.744	1	5
565.934	1	10
567.123	1	15
568.313	1	8
569.502	1	8
570.692	1	9
571.881	1	17
573.070	1	7
574.260	1	26
575.449	1	4
576.638	1	2
577.827	1	-1
579.016	1	13
580.205	1	10
581.394	1	10
582.583	1	17
583.772	1	11
584.961	1	3
586.150	1	17
587.339	1	14
588.528	1	17
589.717	1	15
590.905	1	4
592.094	1	4
593.283	1	5
594.471	1	15
595.660	1	12
596.848	1	1
598.037	1	10
599.225	1	-4
600.413	1	11
601.602	1	21
602.790	1	5
603.978	1	1
605.166	1	12
606.355	1	18
607.543	1	15
608.731	1	6
609.919	1	9
611.107	1	5
612.295	1	5
613.483	1	10
614.671	1	5
615.858	1	10
617.046	1	12
618.234	1	7
619.422	1	-3
620.609	1	10
621.797	1	0
622.985	1	8
624.172	1	6
625.360	1	8
626.547	1	6
627.735	1	3
628.922	1	1
630.109	1	-5
631.297	1	3
632.484	1	-2
633.671	1	0
634.858	1	5
636.045	1	11
637.232	1	2
638.419	1	1
639.606	1	12
640.793	1	8
641.980	1	10
643.167	1	2
644.354	1	6
645.541	1	-3
646.728	1	3
647.914	1	1
649.101	1	7
650.288	1	7
651.474	1	-5
652.661	1	7
653.847	1	10
655.034	1	8
656.220	1	6
657.406	1	9
658.593	1	4
659.779	1	5
660.965	1	6
662.152	1	-4
663.338	1	7
664.524	1	6
665.710	1	6
666.896	1	3
668.082	1	0
669.268	1	6
670.454	1	0
671.640	1	9
672.826	1	3
674.011	1	-1
675.197	1	2
676.383	1	7
677.569	1	1
678.754	1	-5
679.940	1	5
681.125	1	6
682.311	1	8
683.496	1	15
684.682	1	-10
685.867	1	-3
687.053	1	16
688.238	1	8
688.746	1	5

File: GaN_sample F_spot 12_UVVIS_200 K_200um_800 ms 2x2mm1_111.txt
340.368	1	4
341.565	1	-9
342.763	1	9
343.960	1	0
345.157	1	-7
346.354	1	7
347.552	1	-3
348.749	1	1
349.946	1	-3
351.143	1	7
352.340	1	6
353.537	1	5
354.734	1	5
355.931	1	9
357.127	1	5
358.324	1	4
359.521	1	21
360.718	1	16
361.914	1	26
363.111	1	24
364.308	1	37
365.504	1	56
366.701	1	65
367.897	1	78
369.093	1	83
370.290	1	79
371.486	1	70
372.682	1	66
373.879	1	65
375.075	1	49
376.271	1	51
377.467	1	42
378.663	1	34
379.859	1	29
381.055	1	29
382.251	1	18
383.447	1	20
384.643	1	14
385.839	1	19
387.035	1	9
388.230	1	16
389.426	1	7
390.622	1	14
391.817	1	3
393.013	1	11
394.208	1	13
395.404	1	8
396.599	1	-8
397.795	1	9
398.990	1	3
400.186	1	5
401.381	1	-3
402.576	1	0
403.771	1	10
404.967	1	3
406.162	1	7
407.357	1	3
408.552	1	-2
409.747	1	-4
410.942	1	5
412.137	1	8
413.332	1	-1
414.526	1	2
415.721	1	3
416.916	1	-6
418.111	1	8
419.305	1	0
420.500	1	-3
421.695	1	5
422.889	1	-4
424.084	1	6
425.278	1	14
426.472	1	-2
427.667	1	3
428.861	1	2
430.055	1	0
431.250	1	2
432.444	1	4
433.638	1	3
434.832	1	9
436.026	1	7
437.220	1	10
438.414	1	-2
439.608	1	-8
440.802	1	-5
441.996	1	9
443.190	1	4
444.384	1	-11
445.578	1	-14
446.771	1	15
447.965	1	-2
449.159	1	6
450.352	1	-1
451.546	1	8
452.739	1	4
453.933	1	5
455.126	1	-4
456.320	1	4
457.513	1	3
458.706	1	9
459.899	1	0
461.093	1	11
462.286	1	3
463.479	1	0
464.672	1	5
465.865	1	6
467.058	1	3
468.251	1	-4
469.444	1	6
470.637	1	0
471.830	1	-4
473.023	1	7
474.215	1	7
475.408	1	6
476.601	1	-1
477.793	1	0
478.986	1	7
480.179	1	1
481.371	1	10
482.564	1	2
483.756	1	2
484.948	1	1
486.141	1	2
487.333	1	4
488.525	1	5
489.718	1	4
490.910	1	-5
492.102	1	3
493.294	1	-2
494.486	1	11
495.678	1	5
496.870	1	9
498.062	1	-1
499.254	1	3
500.446	1	6
501.638	1	-9
502.829	1	-2
504.021	1	1
505.213	1	5
506.404	1	8
507.596	1	7
508.788	1	29
509.979	1	1
511.171	1	-2
512.362	1	7
513.553	1	-9
514.745	1	0
515.936	1	0
517.127	1	3
518.319	1	3
519.510	1	8
520.701	1	16
521.892	1	4
523.083	1	3
524.274	1	9
525.465	1	20
526.656	1	1
527.847	1	14
529.038	1	10
530.229	1	9
531.419	1	8
532.610	1	-1
533.801	1	20
534.991	1	3
536.182	1	4
537.373	1	10
538.563	1	11
539.754	1	13
540.944	1	6
542.134	1	8
543.325	1	10
544.515	1	5
545.705	1	1
546.896	1	12
548.086	1	4
549.276	1	8
550.466	1	14
551.656	1	19
552.846	1	6
554.036	1	13
555.226	1	1
556.416	1	7
557.606	1	5
558.796	1	9
559.986	1	4
561.175	1	12
562.365	1	10
563.555	1	3
564.744	1	11
565.934	1	15
567.123	1	3
568.313	1	11
569.502	1	3
570.692	1	9
571.881	1	15
573.070	1	8
574.260	1	18
575.449	1	10
576.638	1	7
577.827	1	11
579.016	1	25
580.205	1	1
581.394	1	2
582.583	1	25
583.772	1	8
584.961	1	11
586.150	1	6
587.339	1	4
588.528	1	6
589.717	1	16
590.905	1	4
592.094	1	6
593.283	1	8
594.471	1	15
595.660	1	14
596.848	1	2
598.037	1	-3
599.225	1	-10
600.413	1	14
601.602	1	5
602.790	1	4
603.978	1	7
605.166	1	6
606.355	1	15
607.543	1	9
608.731	1	5
609.919	1	9
611.107	1	3
612.295	1	-1
613.483	1	10
614.671	1	1
615.858	1	10
617.046	1	10
618.234	1	2
619.422	1	0
620.609	1	6
621.797	1	6
622.985	1	6
624.172	1	-1
625.360	1	5
626.547	1	2
627.735	1	4
628.922	1	4
630.109	1	-15
631.297	1	10
632.484	1	7
633.671	1	-3
634.858	1	7
636.045	1	18
637.232	1	-3
638.419	1	1
639.606	1	12
640.793	1	16
641.980	1	10
643.167	1	-8
644.354	1	-4
645.541	1	4
646.728	1	12
647.914	1	0
649.101	1	8
650.288	1	7
651.474	1	13
652.661	1	-5
653.847	1	14
655.034	1	10
656.220	1	2
657.406	1	9
658.593	1	8
659.779	1	12
660.965	1	8
662.152	1	10
663.338	1	14
664.524	1	1
665.710	1	4
666.896	1	-1
668.082	1	9
669.268	1	9
670.454	1	-3
671.640	1	12
672.826	1	2
674.011	1	11
675.197	1	5
676.383	1	8
677.569	1	5
678.754	1	-2
679.940	1	-4
681.125	1	4
682.311	1	2
683.496	1	9
684.682	1	-7
685.867	1	3
687.053	1	2
688.238	1	12
688.746	1	13

File: GaN_sample F_spot 12_UVVIS_200 K_200um_800 ms 2x2mm1_112.txt
340.368	1	4
341.565	1	-12
342.763	1	6
343.960	1	2
345.157	1	-5
346.354	1	3
347.552	1	-1
348.749	1	3
349.946	1	-10
351.143	1	9
352.340	1	0
353.537	1	-3
354.734	1	16
355.931	1	4
357.127	1	8
358.324	1	7
359.521	1	22
360.718	1	15
361.914	1	23
363.111	1	22
364.308	1	51
365.504	1	50
366.701	1	52
367.897	1	72
369.093	1	85
370.290	1	71
371.486	1	86
372.682	1	67
373.879	1	55
375.075	1	27
376.271	1	51
377.467	1	41
378.663	1	21
379.859	1	36
381.055	1	27
382.251	1	18
383.447	1	16
384.643	1	16
385.839	1	15
387.035	1	14
388.230	1	22
389.426	1	8
390.622	1	6
391.817	1	15
393.013	1	3
394.208	1	12
395.404	1	8
396.599	1	7
397.795	1	4
398.990	1	12
400.186	1	8
401.381	1	4
402.576	1	0
403.771	1	2
404.967	1	9
406.162	1	7
407.357	1	1
408.552	1	4
409.747	1	2
410.942	1	15
412.137	1	10
413.332	1	12
414.526	1	0
415.721	1	10
416.916	1	4
418.111	1	0
419.305	1	7
420.500	1	-2
421.695	1	0
422.889	1	-12
424.084	1	3
425.278	1	12
426.472	1	-10
427.667	1	15
428.861	1	5
430.055	1	3
431.250	1	-1
432.444	1	6
433.638	1	3
434.832	1	3
436.026	1	7
437.220	1	5
438.414	1	-10
439.608	1	-11
440.802	1	-3
441.996	1	4
443.190	1	4
444.384	1	-7
445.578	1	-9
446.771	1	12
447.965	1	1
449.159	1	-5
450.352	1	0
451.546	1	-3
452.739	1	3
453.933	1	-1
455.126	1	-11
456.320	1	-1
457.513	1	7
458.706	1	7
459.899	1	5
461.093	1	1
462.286	1	2
463.479	1	-2
464.672	1	-3
465.865	1	-5
467.058	1	2
468.251	1	5
469.444	1	-8
470.637	1	3
471.830	1	-7
473.023	1	-1
474.215	1	7
475.408	1	3
476.601	1	-5
477.793	1	0
478.986	1	3
480.179	1	1
481.371	1	9
482.564	1	1
483.756	1	6
484.948	1	-7
486.141	1	-6
487.333	1	5
488.525	1	7
489.718	1	4
490.910	1	5
492.102	1	-1
493.294	1	-1
494.486	1	12
495.678	1	10
496.870	1	2
498.062	1	3
499.254	1	-1
500.446	1	-3
501.638	1	1
502.829	1	-4
504.021	1	5
505.213	1	11
506.404	1	0
507.596	1	-2
508.788	1	19
509.979	1	3
511.171	1	-2
512.362	1	-6
513.553	1	1
514.745	1	1
515.936	1	8
517.127	1	5
518.319	1	3
519.510	1	1
520.701	1	7
521.892	1	8
523.083	1	4
524.274	1	14
525.465	1	2
526.656	1	0
527.847	1	20
529.038	1	7
530.229	1	13
531.419	1	15
532.610	1	-1
533.801	1	16
534.991	1	5
536.182	1	0
537.373	1	8
538.563	1	9
539.754	1	6
540.944	1	-1
542.134	1	12
543.325	1	5
544.515	1	1
545.705	1	8
546.896	1	7
548.086	1	12
549.276	1	3
550.466	1	12
551.656	1	17
552.846	1	11
554.036	1	-1
555.226	1	9
556.416	1	6
557.606	1	13
558.796	1	3
559.986	1	9
561.175	1	7
562.365	1	11
563.555	1	5
564.744	1	7
565.934	1	14
567.123	1	16
568.313	1	17
569.502	1	10
570.692	1	9
571.881	1	11
573.070	1	14
574.260	1	12
575.449	1	4
576.638	1	-2
577.827	1	2
579.016	1	19
580.205	1	5
581.394	1	-4
582.583	1	30
583.772	1	7
584.961	1	6
586.150	1	8
587.339	1	9
588.528	1	9
589.717	1	12
590.905	1	9
592.094	1	4
593.283	1	6
594.471	1	14
595.660	1	3
596.848	1	5
598.037	1	3
599.225	1	1
600.413	1	11
601.602	1	16
602.790	1	8
603.978	1	6
605.166	1	16
606.355	1	12
607.543	1	7
608.731	1	4
609.919	1	17
611.107	1	6
612.295	1	5
613.483	1	14
614.671	1	6
615.858	1	9
617.046	1	6
618.234	1	1
619.422	1	-6
620.609	1	10
621.797	1	2
622.985	1	0
624.172	1	1
625.360	1	6
626.547	1	10
627.735	1	8
628.922	1	19
630.109	1	0
631.297	1	1
632.484	1	5
633.671	1	0
634.858	1	-7
636.045	1	19
637.232	1	0
638.419	1	8
639.606	1	3
640.793	1	13
641.980	1	9
643.167	1	-8
644.354	1	6
645.541	1	1
646.728	1	6
647.914	1	-9
649.101	1	-6
650.288	1	7
651.474	1	-4
652.661	1	4
653.847	1	7
655.034	1	14
656.220	1	7
657.406	1	3
658.593	1	1
659.779	1	9
660.965	1	3
662.152	1	11
663.338	1	16
664.524	1	14
665.710	1	3
666.896	1	-3
668.082	1	8
669.268	1	-3
670.454	1	0
671.640	1	3
672.826	1	2
674.011	1	5
675.197	1	-1
676.383	1	-2
677.569	1	1
678.754	1	0
679.940	1	-11
681.125	1	6
682.311	1	7
683.496	1	10
684.682	1	-4
685.867	1	1
687.053	1	4
688.238	1	11
688.746	1	0