Folder: cryo-il_analysis/Data/GaN_150K_450ms (part 5)

File: GaN_sample D_spot15_UVVIS_150 K_200um_450 ms 2x2mm1_60.txt
340.368	1	-3
341.565	1	3
342.763	1	3
343.960	1	16
345.157	1	20
346.354	1	9
347.552	1	18
348.749	1	10
349.946	1	8
351.143	1	4
352.340	1	5
353.537	1	-2
354.734	1	23
355.931	1	18
357.127	1	34
358.324	1	41
359.521	1	48
360.718	1	60
361.914	1	88
363.111	1	122
364.308	1	216
365.504	1	306
366.701	1	403
367.897	1	481
369.093	1	467
370.290	1	380
371.486	1	307
372.682	1	247
373.879	1	203
375.075	1	138
376.271	1	138
377.467	1	108
378.663	1	99
379.859	1	83
381.055	1	72
382.251	1	64
383.447	1	58
384.643	1	70
385.839	1	51
387.035	1	52
388.230	1	52
389.426	1	43
390.622	1	43
391.817	1	32
393.013	1	38
394.208	1	32
395.404	1	35
396.599	1	40
397.795	1	30
398.990	1	38
400.186	1	30
401.381	1	29
402.576	1	26
403.771	1	20
404.967	1	20
406.162	1	22
407.357	1	22
408.552	1	26
409.747	1	22
410.942	1	29
412.137	1	15
413.332	1	17
414.526	1	3
415.721	1	18
416.916	1	18
418.111	1	30
419.305	1	28
420.500	1	18
421.695	1	25
422.889	1	16
424.084	1	18
425.278	1	18
426.472	1	30
427.667	1	35
428.861	1	22
430.055	1	30
431.250	1	26
432.444	1	15
433.638	1	19
434.832	1	8
436.026	1	16
437.220	1	23
438.414	1	18
439.608	1	11
440.802	1	14
441.996	1	13
443.190	1	15
444.384	1	18
445.578	1	14
446.771	1	20
447.965	1	18
449.159	1	9
450.352	1	9
451.546	1	13
452.739	1	21
453.933	1	11
455.126	1	17
456.320	1	21
457.513	1	16
458.706	1	14
459.899	1	11
461.093	1	24
462.286	1	15
463.479	1	8
464.672	1	14
465.865	1	22
467.058	1	22
468.251	1	8
469.444	1	13
470.637	1	18
471.830	1	20
473.023	1	15
474.215	1	14
475.408	1	25
476.601	1	14
477.793	1	7
478.986	1	20
480.179	1	14
481.371	1	12
482.564	1	34
483.756	1	25
484.948	1	25
486.141	1	28
487.333	1	22
488.525	1	20
489.718	1	33
490.910	1	41
492.102	1	48
493.294	1	31
494.486	1	45
495.678	1	41
496.870	1	43
498.062	1	38
499.254	1	58
500.446	1	49
501.638	1	63
502.829	1	55
504.021	1	70
505.213	1	55
506.404	1	73
507.596	1	79
508.788	1	74
509.979	1	70
511.171	1	75
512.362	1	85
513.553	1	94
514.745	1	78
515.936	1	81
517.127	1	92
518.319	1	95
519.510	1	93
520.701	1	99
521.892	1	94
523.083	1	94
524.274	1	99
525.465	1	101
526.656	1	101
527.847	1	89
529.038	1	105
530.229	1	115
531.419	1	107
532.610	1	106
533.801	1	102
534.991	1	107
536.182	1	95
537.373	1	98
538.563	1	92
539.754	1	89
540.944	1	97
542.134	1	89
543.325	1	94
544.515	1	88
545.705	1	94
546.896	1	89
548.086	1	92
549.276	1	98
550.466	1	82
551.656	1	80
552.846	1	82
554.036	1	83
555.226	1	64
556.416	1	69
557.606	1	55
558.796	1	72
559.986	1	71
561.175	1	70
562.365	1	69
563.555	1	68
564.744	1	67
565.934	1	73
567.123	1	55
568.313	1	62
569.502	1	57
570.692	1	57
571.881	1	59
573.070	1	58
574.260	1	40
575.449	1	44
576.638	1	53
577.827	1	39
579.016	1	44
580.205	1	50
581.394	1	50
582.583	1	54
583.772	1	49
584.961	1	39
586.150	1	46
587.339	1	43
588.528	1	30
589.717	1	29
590.905	1	30
592.094	1	42
593.283	1	30
594.471	1	29
595.660	1	39
596.848	1	28
598.037	1	35
599.225	1	26
600.413	1	25
601.602	1	31
602.790	1	22
603.978	1	37
605.166	1	26
606.355	1	19
607.543	1	26
608.731	1	27
609.919	1	18
611.107	1	41
612.295	1	19
613.483	1	23
614.671	1	17
615.858	1	8
617.046	1	6
618.234	1	18
619.422	1	30
620.609	1	11
621.797	1	16
622.985	1	19
624.172	1	21
625.360	1	22
626.547	1	14
627.735	1	6
628.922	1	21
630.109	1	15
631.297	1	20
632.484	1	17
633.671	1	28
634.858	1	18
636.045	1	3
637.232	1	16
638.419	1	11
639.606	1	18
640.793	1	15
641.980	1	23
643.167	1	22
644.354	1	17
645.541	1	6
646.728	1	15
647.914	1	15
649.101	1	7
650.288	1	17
651.474	1	19
652.661	1	11
653.847	1	18
655.034	1	14
656.220	1	15
657.406	1	11
658.593	1	18
659.779	1	7
660.965	1	16
662.152	1	3
663.338	1	14
664.524	1	24
665.710	1	18
666.896	1	15
668.082	1	12
669.268	1	18
670.454	1	18
671.640	1	20
672.826	1	29
674.011	1	15
675.197	1	14
676.383	1	12
677.569	1	24
678.754	1	11
679.940	1	11
681.125	1	11
682.311	1	14
683.496	1	14
684.682	1	19
685.867	1	14
687.053	1	25
688.238	1	17
688.746	1	12

File: GaN_sample D_spot15_UVVIS_150 K_200um_450 ms 2x2mm1_61.txt
340.368	1	2
341.565	1	9
342.763	1	10
343.960	1	11
345.157	1	8
346.354	1	6
347.552	1	22
348.749	1	23
349.946	1	4
351.143	1	19
352.340	1	9
353.537	1	16
354.734	1	15
355.931	1	24
357.127	1	36
358.324	1	27
359.521	1	48
360.718	1	60
361.914	1	91
363.111	1	125
364.308	1	184
365.504	1	280
366.701	1	370
367.897	1	435
369.093	1	417
370.290	1	351
371.486	1	279
372.682	1	228
373.879	1	193
375.075	1	148
376.271	1	125
377.467	1	117
378.663	1	95
379.859	1	86
381.055	1	66
382.251	1	57
383.447	1	48
384.643	1	52
385.839	1	59
387.035	1	54
388.230	1	42
389.426	1	32
390.622	1	35
391.817	1	30
393.013	1	35
394.208	1	35
395.404	1	34
396.599	1	30
397.795	1	32
398.990	1	34
400.186	1	30
401.381	1	20
402.576	1	23
403.771	1	13
404.967	1	19
406.162	1	14
407.357	1	25
408.552	1	21
409.747	1	17
410.942	1	28
412.137	1	16
413.332	1	20
414.526	1	13
415.721	1	19
416.916	1	20
418.111	1	24
419.305	1	16
420.500	1	16
421.695	1	21
422.889	1	23
424.084	1	19
425.278	1	16
426.472	1	23
427.667	1	23
428.861	1	23
430.055	1	18
431.250	1	20
432.444	1	24
433.638	1	28
434.832	1	8
436.026	1	14
437.220	1	18
438.414	1	20
439.608	1	11
440.802	1	20
441.996	1	13
443.190	1	12
444.384	1	16
445.578	1	9
446.771	1	18
447.965	1	17
449.159	1	11
450.352	1	9
451.546	1	7
452.739	1	19
453.933	1	3
455.126	1	11
456.320	1	22
457.513	1	4
458.706	1	19
459.899	1	6
461.093	1	18
462.286	1	9
463.479	1	22
464.672	1	4
465.865	1	13
467.058	1	14
468.251	1	10
469.444	1	14
470.637	1	15
471.830	1	15
473.023	1	18
474.215	1	20
475.408	1	19
476.601	1	19
477.793	1	15
478.986	1	31
480.179	1	16
481.371	1	11
482.564	1	10
483.756	1	20
484.948	1	23
486.141	1	36
487.333	1	18
488.525	1	27
489.718	1	23
490.910	1	35
492.102	1	35
493.294	1	26
494.486	1	33
495.678	1	38
496.870	1	42
498.062	1	47
499.254	1	47
500.446	1	43
501.638	1	59
502.829	1	53
504.021	1	53
505.213	1	69
506.404	1	78
507.596	1	70
508.788	1	64
509.979	1	71
511.171	1	77
512.362	1	87
513.553	1	70
514.745	1	68
515.936	1	90
517.127	1	87
518.319	1	85
519.510	1	91
520.701	1	94
521.892	1	104
523.083	1	85
524.274	1	93
525.465	1	100
526.656	1	87
527.847	1	92
529.038	1	99
530.229	1	100
531.419	1	102
532.610	1	97
533.801	1	92
534.991	1	101
536.182	1	98
537.373	1	86
538.563	1	78
539.754	1	83
540.944	1	82
542.134	1	84
543.325	1	83
544.515	1	88
545.705	1	80
546.896	1	82
548.086	1	84
549.276	1	84
550.466	1	83
551.656	1	78
552.846	1	78
554.036	1	87
555.226	1	73
556.416	1	81
557.606	1	55
558.796	1	73
559.986	1	74
561.175	1	59
562.365	1	62
563.555	1	72
564.744	1	57
565.934	1	60
567.123	1	59
568.313	1	59
569.502	1	49
570.692	1	52
571.881	1	43
573.070	1	61
574.260	1	51
575.449	1	50
576.638	1	44
577.827	1	36
579.016	1	50
580.205	1	30
581.394	1	40
582.583	1	43
583.772	1	50
584.961	1	31
586.150	1	41
587.339	1	39
588.528	1	31
589.717	1	24
590.905	1	34
592.094	1	31
593.283	1	41
594.471	1	17
595.660	1	42
596.848	1	25
598.037	1	30
599.225	1	35
600.413	1	14
601.602	1	23
602.790	1	31
603.978	1	26
605.166	1	17
606.355	1	16
607.543	1	19
608.731	1	12
609.919	1	20
611.107	1	29
612.295	1	30
613.483	1	16
614.671	1	22
615.858	1	10
617.046	1	16
618.234	1	9
619.422	1	31
620.609	1	12
621.797	1	16
622.985	1	13
624.172	1	27
625.360	1	8
626.547	1	5
627.735	1	14
628.922	1	22
630.109	1	15
631.297	1	18
632.484	1	16
633.671	1	16
634.858	1	18
636.045	1	10
637.232	1	13
638.419	1	16
639.606	1	14
640.793	1	17
641.980	1	19
643.167	1	15
644.354	1	21
645.541	1	8
646.728	1	10
647.914	1	15
649.101	1	9
650.288	1	18
651.474	1	22
652.661	1	18
653.847	1	22
655.034	1	9
656.220	1	19
657.406	1	6
658.593	1	12
659.779	1	13
660.965	1	13
662.152	1	13
663.338	1	8
664.524	1	18
665.710	1	14
666.896	1	14
668.082	1	10
669.268	1	11
670.454	1	13
671.640	1	18
672.826	1	9
674.011	1	14
675.197	1	15
676.383	1	11
677.569	1	24
678.754	1	15
679.940	1	11
681.125	1	15
682.311	1	17
683.496	1	13
684.682	1	26
685.867	1	13
687.053	1	32
688.238	1	17
688.746	1	17

File: GaN_sample D_spot15_UVVIS_150 K_200um_450 ms 2x2mm1_62.txt
340.368	1	3
341.565	1	0
342.763	1	4
343.960	1	6
345.157	1	3
346.354	1	11
347.552	1	17
348.749	1	19
349.946	1	5
351.143	1	8
352.340	1	19
353.537	1	5
354.734	1	9
355.931	1	22
357.127	1	21
358.324	1	36
359.521	1	48
360.718	1	50
361.914	1	81
363.111	1	120
364.308	1	190
365.504	1	258
366.701	1	355
367.897	1	402
369.093	1	402
370.290	1	344
371.486	1	275
372.682	1	224
373.879	1	181
375.075	1	142
376.271	1	124
377.467	1	117
378.663	1	91
379.859	1	78
381.055	1	57
382.251	1	55
383.447	1	53
384.643	1	49
385.839	1	54
387.035	1	45
388.230	1	35
389.426	1	33
390.622	1	26
391.817	1	21
393.013	1	37
394.208	1	37
395.404	1	31
396.599	1	31
397.795	1	30
398.990	1	31
400.186	1	21
401.381	1	15
402.576	1	21
403.771	1	10
404.967	1	17
406.162	1	13
407.357	1	19
408.552	1	20
409.747	1	20
410.942	1	24
412.137	1	13
413.332	1	11
414.526	1	12
415.721	1	28
416.916	1	17
418.111	1	14
419.305	1	28
420.500	1	17
421.695	1	19
422.889	1	15
424.084	1	19
425.278	1	22
426.472	1	18
427.667	1	17
428.861	1	22
430.055	1	17
431.250	1	21
432.444	1	23
433.638	1	20
434.832	1	14
436.026	1	1
437.220	1	22
438.414	1	19
439.608	1	12
440.802	1	12
441.996	1	16
443.190	1	17
444.384	1	12
445.578	1	7
446.771	1	13
447.965	1	12
449.159	1	9
450.352	1	5
451.546	1	9
452.739	1	14
453.933	1	11
455.126	1	9
456.320	1	12
457.513	1	10
458.706	1	19
459.899	1	7
461.093	1	15
462.286	1	8
463.479	1	5
464.672	1	15
465.865	1	5
467.058	1	10
468.251	1	11
469.444	1	11
470.637	1	7
471.830	1	10
473.023	1	13
474.215	1	18
475.408	1	31
476.601	1	18
477.793	1	13
478.986	1	11
480.179	1	20
481.371	1	8
482.564	1	13
483.756	1	28
484.948	1	35
486.141	1	34
487.333	1	14
488.525	1	29
489.718	1	16
490.910	1	33
492.102	1	35
493.294	1	29
494.486	1	40
495.678	1	34
496.870	1	40
498.062	1	38
499.254	1	42
500.446	1	40
501.638	1	52
502.829	1	48
504.021	1	61
505.213	1	63
506.404	1	66
507.596	1	76
508.788	1	61
509.979	1	65
511.171	1	67
512.362	1	77
513.553	1	78
514.745	1	75
515.936	1	67
517.127	1	84
518.319	1	83
519.510	1	71
520.701	1	86
521.892	1	89
523.083	1	86
524.274	1	74
525.465	1	92
526.656	1	84
527.847	1	85
529.038	1	96
530.229	1	99
531.419	1	103
532.610	1	100
533.801	1	99
534.991	1	95
536.182	1	80
537.373	1	76
538.563	1	79
539.754	1	73
540.944	1	88
542.134	1	86
543.325	1	79
544.515	1	82
545.705	1	70
546.896	1	82
548.086	1	91
549.276	1	85
550.466	1	72
551.656	1	81
552.846	1	79
554.036	1	72
555.226	1	67
556.416	1	74
557.606	1	52
558.796	1	67
559.986	1	64
561.175	1	58
562.365	1	53
563.555	1	50
564.744	1	60
565.934	1	69
567.123	1	45
568.313	1	56
569.502	1	53
570.692	1	49
571.881	1	47
573.070	1	50
574.260	1	51
575.449	1	31
576.638	1	51
577.827	1	41
579.016	1	42
580.205	1	37
581.394	1	39
582.583	1	45
583.772	1	44
584.961	1	31
586.150	1	33
587.339	1	32
588.528	1	26
589.717	1	31
590.905	1	29
592.094	1	38
593.283	1	31
594.471	1	23
595.660	1	23
596.848	1	34
598.037	1	23
599.225	1	21
600.413	1	24
601.602	1	17
602.790	1	24
603.978	1	27
605.166	1	28
606.355	1	12
607.543	1	30
608.731	1	19
609.919	1	25
611.107	1	29
612.295	1	20
613.483	1	10
614.671	1	21
615.858	1	12
617.046	1	15
618.234	1	16
619.422	1	30
620.609	1	7
621.797	1	22
622.985	1	9
624.172	1	10
625.360	1	10
626.547	1	8
627.735	1	20
628.922	1	25
630.109	1	9
631.297	1	15
632.484	1	19
633.671	1	17
634.858	1	20
636.045	1	-6
637.232	1	12
638.419	1	13
639.606	1	19
640.793	1	6
641.980	1	23
643.167	1	13
644.354	1	19
645.541	1	13
646.728	1	12
647.914	1	13
649.101	1	16
650.288	1	22
651.474	1	19
652.661	1	13
653.847	1	13
655.034	1	12
656.220	1	10
657.406	1	12
658.593	1	25
659.779	1	16
660.965	1	0
662.152	1	10
663.338	1	11
664.524	1	23
665.710	1	15
666.896	1	9
668.082	1	12
669.268	1	10
670.454	1	21
671.640	1	23
672.826	1	10
674.011	1	12
675.197	1	10
676.383	1	15
677.569	1	18
678.754	1	20
679.940	1	8
681.125	1	5
682.311	1	19
683.496	1	5
684.682	1	11
685.867	1	19
687.053	1	24
688.238	1	29
688.746	1	7

File: GaN_sample D_spot15_UVVIS_150 K_200um_450 ms 2x2mm1_63.txt
340.368	1	2
341.565	1	5
342.763	1	6
343.960	1	10
345.157	1	18
346.354	1	3
347.552	1	26
348.749	1	20
349.946	1	12
351.143	1	11
352.340	1	12
353.537	1	8
354.734	1	16
355.931	1	19
357.127	1	29
358.324	1	32
359.521	1	51
360.718	1	62
361.914	1	85
363.111	1	114
364.308	1	187
365.504	1	251
366.701	1	349
367.897	1	380
369.093	1	369
370.290	1	311
371.486	1	265
372.682	1	214
373.879	1	163
375.075	1	124
376.271	1	103
377.467	1	109
378.663	1	91
379.859	1	71
381.055	1	68
382.251	1	50
383.447	1	50
384.643	1	57
385.839	1	46
387.035	1	48
388.230	1	45
389.426	1	29
390.622	1	39
391.817	1	27
393.013	1	32
394.208	1	25
395.404	1	30
396.599	1	28
397.795	1	30
398.990	1	39
400.186	1	27
401.381	1	22
402.576	1	15
403.771	1	24
404.967	1	22
406.162	1	8
407.357	1	21
408.552	1	10
409.747	1	14
410.942	1	15
412.137	1	10
413.332	1	16
414.526	1	6
415.721	1	21
416.916	1	21
418.111	1	21
419.305	1	15
420.500	1	23
421.695	1	20
422.889	1	17
424.084	1	21
425.278	1	16
426.472	1	19
427.667	1	14
428.861	1	24
430.055	1	24
431.250	1	22
432.444	1	12
433.638	1	12
434.832	1	12
436.026	1	7
437.220	1	16
438.414	1	22
439.608	1	8
440.802	1	17
441.996	1	13
443.190	1	12
444.384	1	17
445.578	1	12
446.771	1	13
447.965	1	11
449.159	1	3
450.352	1	0
451.546	1	7
452.739	1	11
453.933	1	12
455.126	1	7
456.320	1	11
457.513	1	16
458.706	1	26
459.899	1	9
461.093	1	10
462.286	1	12
463.479	1	7
464.672	1	18
465.865	1	10
467.058	1	15
468.251	1	5
469.444	1	18
470.637	1	19
471.830	1	20
473.023	1	15
474.215	1	9
475.408	1	10
476.601	1	19
477.793	1	16
478.986	1	19
480.179	1	24
481.371	1	9
482.564	1	23
483.756	1	22
484.948	1	20
486.141	1	29
487.333	1	19
488.525	1	19
489.718	1	18
490.910	1	41
492.102	1	28
493.294	1	18
494.486	1	30
495.678	1	34
496.870	1	42
498.062	1	41
499.254	1	36
500.446	1	49
501.638	1	54
502.829	1	47
504.021	1	65
505.213	1	65
506.404	1	66
507.596	1	69
508.788	1	65
509.979	1	66
511.171	1	67
512.362	1	66
513.553	1	70
514.745	1	67
515.936	1	68
517.127	1	89
518.319	1	76
519.510	1	74
520.701	1	78
521.892	1	76
523.083	1	85
524.274	1	77
525.465	1	88
526.656	1	88
527.847	1	74
529.038	1	79
530.229	1	94
531.419	1	88
532.610	1	90
533.801	1	91
534.991	1	81
536.182	1	75
537.373	1	67
538.563	1	59
539.754	1	72
540.944	1	83
542.134	1	74
543.325	1	77
544.515	1	81
545.705	1	73
546.896	1	79
548.086	1	77
549.276	1	76
550.466	1	74
551.656	1	79
552.846	1	66
554.036	1	66
555.226	1	80
556.416	1	65
557.606	1	49
558.796	1	65
559.986	1	63
561.175	1	55
562.365	1	56
563.555	1	63
564.744	1	61
565.934	1	66
567.123	1	46
568.313	1	57
569.502	1	45
570.692	1	56
571.881	1	39
573.070	1	51
574.260	1	43
575.449	1	41
576.638	1	56
577.827	1	35
579.016	1	36
580.205	1	34
581.394	1	31
582.583	1	30
583.772	1	41
584.961	1	28
586.150	1	35
587.339	1	26
588.528	1	35
589.717	1	36
590.905	1	30
592.094	1	27
593.283	1	27
594.471	1	20
595.660	1	28
596.848	1	30
598.037	1	16
599.225	1	18
600.413	1	22
601.602	1	35
602.790	1	36
603.978	1	18
605.166	1	29
606.355	1	19
607.543	1	21
608.731	1	11
609.919	1	14
611.107	1	23
612.295	1	25
613.483	1	20
614.671	1	20
615.858	1	3
617.046	1	14
618.234	1	17
619.422	1	26
620.609	1	7
621.797	1	17
622.985	1	18
624.172	1	23
625.360	1	16
626.547	1	11
627.735	1	10
628.922	1	17
630.109	1	8
631.297	1	24
632.484	1	19
633.671	1	16
634.858	1	9
636.045	1	6
637.232	1	12
638.419	1	11
639.606	1	18
640.793	1	6
641.980	1	11
643.167	1	20
644.354	1	25
645.541	1	15
646.728	1	21
647.914	1	3
649.101	1	14
650.288	1	19
651.474	1	17
652.661	1	20
653.847	1	13
655.034	1	7
656.220	1	13
657.406	1	7
658.593	1	22
659.779	1	19
660.965	1	10
662.152	1	13
663.338	1	11
664.524	1	11
665.710	1	15
666.896	1	15
668.082	1	6
669.268	1	10
670.454	1	16
671.640	1	16
672.826	1	2
674.011	1	11
675.197	1	18
676.383	1	8
677.569	1	10
678.754	1	14
679.940	1	7
681.125	1	6
682.311	1	20
683.496	1	12
684.682	1	14
685.867	1	8
687.053	1	24
688.238	1	16
688.746	1	8

File: GaN_sample D_spot15_UVVIS_150 K_200um_450 ms 2x2mm1_64.txt
340.368	1	-1
341.565	1	4
342.763	1	9
343.960	1	12
345.157	1	7
346.354	1	10
347.552	1	12
348.749	1	13
349.946	1	2
351.143	1	10
352.340	1	12
353.537	1	3
354.734	1	15
355.931	1	27
357.127	1	25
358.324	1	34
359.521	1	42
360.718	1	61
361.914	1	83
363.111	1	99
364.308	1	165
365.504	1	222
366.701	1	291
367.897	1	353
369.093	1	346
370.290	1	304
371.486	1	233
372.682	1	180
373.879	1	149
375.075	1	119
376.271	1	104
377.467	1	98
378.663	1	77
379.859	1	66
381.055	1	60
382.251	1	54
383.447	1	54
384.643	1	49
385.839	1	42
387.035	1	44
388.230	1	32
389.426	1	30
390.622	1	28
391.817	1	19
393.013	1	26
394.208	1	32
395.404	1	34
396.599	1	21
397.795	1	19
398.990	1	39
400.186	1	21
401.381	1	17
402.576	1	22
403.771	1	7
404.967	1	25
406.162	1	26
407.357	1	19
408.552	1	16
409.747	1	15
410.942	1	40
412.137	1	17
413.332	1	24
414.526	1	15
415.721	1	22
416.916	1	13
418.111	1	13
419.305	1	24
420.500	1	30
421.695	1	27
422.889	1	15
424.084	1	15
425.278	1	31
426.472	1	26
427.667	1	14
428.861	1	37
430.055	1	27
431.250	1	14
432.444	1	21
433.638	1	22
434.832	1	17
436.026	1	6
437.220	1	21
438.414	1	21
439.608	1	9
440.802	1	16
441.996	1	13
443.190	1	23
444.384	1	18
445.578	1	11
446.771	1	6
447.965	1	16
449.159	1	1
450.352	1	14
451.546	1	19
452.739	1	11
453.933	1	0
455.126	1	8
456.320	1	13
457.513	1	10
458.706	1	21
459.899	1	7
461.093	1	18
462.286	1	11
463.479	1	12
464.672	1	12
465.865	1	9
467.058	1	9
468.251	1	5
469.444	1	14
470.637	1	21
471.830	1	9
473.023	1	13
474.215	1	12
475.408	1	7
476.601	1	12
477.793	1	6
478.986	1	15
480.179	1	19
481.371	1	4
482.564	1	14
483.756	1	21
484.948	1	26
486.141	1	25
487.333	1	12
488.525	1	19
489.718	1	18
490.910	1	41
492.102	1	31
493.294	1	31
494.486	1	43
495.678	1	31
496.870	1	31
498.062	1	39
499.254	1	29
500.446	1	43
501.638	1	58
502.829	1	45
504.021	1	52
505.213	1	53
506.404	1	55
507.596	1	61
508.788	1	64
509.979	1	64
511.171	1	59
512.362	1	70
513.553	1	75
514.745	1	59
515.936	1	65
517.127	1	74
518.319	1	66
519.510	1	67
520.701	1	75
521.892	1	71
523.083	1	77
524.274	1	85
525.465	1	87
526.656	1	87
527.847	1	79
529.038	1	82
530.229	1	87
531.419	1	86
532.610	1	91
533.801	1	79
534.991	1	77
536.182	1	76
537.373	1	71
538.563	1	75
539.754	1	61
540.944	1	74
542.134	1	66
543.325	1	76
544.515	1	71
545.705	1	72
546.896	1	65
548.086	1	73
549.276	1	72
550.466	1	66
551.656	1	63
552.846	1	63
554.036	1	79
555.226	1	62
556.416	1	73
557.606	1	54
558.796	1	64
559.986	1	55
561.175	1	39
562.365	1	46
563.555	1	57
564.744	1	57
565.934	1	48
567.123	1	40
568.313	1	54
569.502	1	44
570.692	1	48
571.881	1	40
573.070	1	31
574.260	1	36
575.449	1	31
576.638	1	44
577.827	1	41
579.016	1	34
580.205	1	40
581.394	1	40
582.583	1	29
583.772	1	43
584.961	1	24
586.150	1	29
587.339	1	38
588.528	1	25
589.717	1	30
590.905	1	34
592.094	1	21
593.283	1	26
594.471	1	20
595.660	1	17
596.848	1	14
598.037	1	23
599.225	1	24
600.413	1	21
601.602	1	31
602.790	1	18
603.978	1	27
605.166	1	18
606.355	1	4
607.543	1	25
608.731	1	13
609.919	1	10
611.107	1	23
612.295	1	18
613.483	1	15
614.671	1	26
615.858	1	11
617.046	1	8
618.234	1	10
619.422	1	26
620.609	1	6
621.797	1	10
622.985	1	13
624.172	1	16
625.360	1	8
626.547	1	4
627.735	1	19
628.922	1	19
630.109	1	-1
631.297	1	18
632.484	1	28
633.671	1	19
634.858	1	13
636.045	1	6
637.232	1	16
638.419	1	16
639.606	1	18
640.793	1	22
641.980	1	14
643.167	1	19
644.354	1	17
645.541	1	15
646.728	1	22
647.914	1	9
649.101	1	13
650.288	1	25
651.474	1	16
652.661	1	18
653.847	1	13
655.034	1	13
656.220	1	9
657.406	1	1
658.593	1	16
659.779	1	16
660.965	1	8
662.152	1	14
663.338	1	8
664.524	1	18
665.710	1	13
666.896	1	13
668.082	1	3
669.268	1	1
670.454	1	20
671.640	1	6
672.826	1	12
674.011	1	15
675.197	1	15
676.383	1	7
677.569	1	22
678.754	1	6
679.940	1	5
681.125	1	12
682.311	1	14
683.496	1	9
684.682	1	22
685.867	1	16
687.053	1	32
688.238	1	17
688.746	1	19

File: GaN_sample D_spot15_UVVIS_150 K_200um_450 ms 2x2mm1_65.txt
340.368	1	4
341.565	1	12
342.763	1	6
343.960	1	8
345.157	1	7
346.354	1	7
347.552	1	18
348.749	1	21
349.946	1	3
351.143	1	12
352.340	1	9
353.537	1	4
354.734	1	18
355.931	1	24
357.127	1	32
358.324	1	24
359.521	1	42
360.718	1	59
361.914	1	70
363.111	1	91
364.308	1	143
365.504	1	205
366.701	1	288
367.897	1	324
369.093	1	328
370.290	1	282
371.486	1	223
372.682	1	165
373.879	1	146
375.075	1	116
376.271	1	102
377.467	1	92
378.663	1	74
379.859	1	54
381.055	1	41
382.251	1	48
383.447	1	45
384.643	1	43
385.839	1	48
387.035	1	36
388.230	1	35
389.426	1	24
390.622	1	20
391.817	1	26
393.013	1	39
394.208	1	31
395.404	1	36
396.599	1	22
397.795	1	22
398.990	1	30
400.186	1	24
401.381	1	24
402.576	1	23
403.771	1	7
404.967	1	24
406.162	1	12
407.357	1	29
408.552	1	8
409.747	1	10
410.942	1	17
412.137	1	27
413.332	1	18
414.526	1	17
415.721	1	16
416.916	1	16
418.111	1	14
419.305	1	18
420.500	1	23
421.695	1	24
422.889	1	19
424.084	1	16
425.278	1	17
426.472	1	13
427.667	1	26
428.861	1	29
430.055	1	21
431.250	1	24
432.444	1	16
433.638	1	17
434.832	1	10
436.026	1	19
437.220	1	28
438.414	1	14
439.608	1	2
440.802	1	16
441.996	1	13
443.190	1	18
444.384	1	17
445.578	1	7
446.771	1	11
447.965	1	17
449.159	1	6
450.352	1	0
451.546	1	10
452.739	1	11
453.933	1	4
455.126	1	17
456.320	1	12
457.513	1	18
458.706	1	26
459.899	1	9
461.093	1	21
462.286	1	15
463.479	1	11
464.672	1	5
465.865	1	13
467.058	1	19
468.251	1	-2
469.444	1	9
470.637	1	11
471.830	1	10
473.023	1	23
474.215	1	14
475.408	1	16
476.601	1	8
477.793	1	14
478.986	1	15
480.179	1	17
481.371	1	13
482.564	1	22
483.756	1	16
484.948	1	13
486.141	1	20
487.333	1	24
488.525	1	21
489.718	1	18
490.910	1	26
492.102	1	21
493.294	1	23
494.486	1	37
495.678	1	29
496.870	1	41
498.062	1	37
499.254	1	20
500.446	1	33
501.638	1	53
502.829	1	41
504.021	1	47
505.213	1	50
506.404	1	63
507.596	1	58
508.788	1	56
509.979	1	58
511.171	1	59
512.362	1	67
513.553	1	67
514.745	1	68
515.936	1	71
517.127	1	78
518.319	1	58
519.510	1	62
520.701	1	74
521.892	1	78
523.083	1	70
524.274	1	69
525.465	1	84
526.656	1	72
527.847	1	67
529.038	1	81
530.229	1	76
531.419	1	76
532.610	1	79
533.801	1	78
534.991	1	74
536.182	1	79
537.373	1	69
538.563	1	60
539.754	1	61
540.944	1	70
542.134	1	72
543.325	1	78
544.515	1	71
545.705	1	69
546.896	1	67
548.086	1	64
549.276	1	68
550.466	1	65
551.656	1	55
552.846	1	66
554.036	1	68
555.226	1	47
556.416	1	57
557.606	1	48
558.796	1	55
559.986	1	52
561.175	1	43
562.365	1	41
563.555	1	46
564.744	1	57
565.934	1	53
567.123	1	39
568.313	1	46
569.502	1	39
570.692	1	36
571.881	1	31
573.070	1	41
574.260	1	33
575.449	1	40
576.638	1	42
577.827	1	34
579.016	1	35
580.205	1	29
581.394	1	34
582.583	1	24
583.772	1	31
584.961	1	25
586.150	1	42
587.339	1	30
588.528	1	16
589.717	1	26
590.905	1	16
592.094	1	12
593.283	1	25
594.471	1	17
595.660	1	18
596.848	1	18
598.037	1	14
599.225	1	19
600.413	1	20
601.602	1	35
602.790	1	28
603.978	1	15
605.166	1	25
606.355	1	3
607.543	1	15
608.731	1	7
609.919	1	7
611.107	1	20
612.295	1	22
613.483	1	17
614.671	1	15
615.858	1	10
617.046	1	12
618.234	1	7
619.422	1	20
620.609	1	7
621.797	1	14
622.985	1	4
624.172	1	12
625.360	1	18
626.547	1	10
627.735	1	17
628.922	1	15
630.109	1	-5
631.297	1	17
632.484	1	21
633.671	1	19
634.858	1	13
636.045	1	13
637.232	1	16
638.419	1	5
639.606	1	19
640.793	1	9
641.980	1	11
643.167	1	17
644.354	1	15
645.541	1	6
646.728	1	23
647.914	1	14
649.101	1	-3
650.288	1	32
651.474	1	7
652.661	1	18
653.847	1	17
655.034	1	3
656.220	1	9
657.406	1	6
658.593	1	13
659.779	1	17
660.965	1	3
662.152	1	7
663.338	1	9
664.524	1	12
665.710	1	16
666.896	1	7
668.082	1	14
669.268	1	10
670.454	1	17
671.640	1	15
672.826	1	10
674.011	1	11
675.197	1	16
676.383	1	9
677.569	1	20
678.754	1	5
679.940	1	7
681.125	1	4
682.311	1	17
683.496	1	4
684.682	1	13
685.867	1	4
687.053	1	27
688.238	1	14
688.746	1	8