Folder: cryo-il_analysis/Data/GaN_170K_550ms (part 10)

File: GaN_sample D_spot 18_UVVIS_170 K_200um_550 ms 2x2mm1_97.txt
340.368	1	2
341.565	1	3
342.763	1	5
343.960	1	-2
345.157	1	3
346.354	1	1
347.552	1	8
348.749	1	12
349.946	1	12
351.143	1	10
352.340	1	16
353.537	1	4
354.734	1	18
355.931	1	10
357.127	1	8
358.324	1	10
359.521	1	25
360.718	1	13
361.914	1	28
363.111	1	45
364.308	1	53
365.504	1	71
366.701	1	90
367.897	1	105
369.093	1	96
370.290	1	90
371.486	1	79
372.682	1	70
373.879	1	63
375.075	1	53
376.271	1	45
377.467	1	48
378.663	1	31
379.859	1	28
381.055	1	22
382.251	1	38
383.447	1	35
384.643	1	12
385.839	1	16
387.035	1	19
388.230	1	6
389.426	1	17
390.622	1	10
391.817	1	9
393.013	1	10
394.208	1	15
395.404	1	18
396.599	1	3
397.795	1	5
398.990	1	-3
400.186	1	4
401.381	1	11
402.576	1	1
403.771	1	3
404.967	1	4
406.162	1	12
407.357	1	4
408.552	1	-3
409.747	1	9
410.942	1	4
412.137	1	-5
413.332	1	-3
414.526	1	11
415.721	1	0
416.916	1	-4
418.111	1	8
419.305	1	2
420.500	1	-2
421.695	1	0
422.889	1	-1
424.084	1	13
425.278	1	5
426.472	1	-3
427.667	1	5
428.861	1	-6
430.055	1	0
431.250	1	10
432.444	1	4
433.638	1	5
434.832	1	3
436.026	1	5
437.220	1	0
438.414	1	6
439.608	1	-1
440.802	1	11
441.996	1	4
443.190	1	8
444.384	1	-1
445.578	1	10
446.771	1	-4
447.965	1	7
449.159	1	6
450.352	1	-5
451.546	1	3
452.739	1	-1
453.933	1	2
455.126	1	4
456.320	1	2
457.513	1	11
458.706	1	13
459.899	1	3
461.093	1	14
462.286	1	1
463.479	1	0
464.672	1	0
465.865	1	12
467.058	1	10
468.251	1	7
469.444	1	0
470.637	1	-4
471.830	1	4
473.023	1	10
474.215	1	5
475.408	1	-9
476.601	1	1
477.793	1	13
478.986	1	1
480.179	1	3
481.371	1	8
482.564	1	1
483.756	1	12
484.948	1	-3
486.141	1	16
487.333	1	2
488.525	1	8
489.718	1	9
490.910	1	6
492.102	1	6
493.294	1	0
494.486	1	18
495.678	1	2
496.870	1	4
498.062	1	8
499.254	1	22
500.446	1	3
501.638	1	-2
502.829	1	17
504.021	1	9
505.213	1	11
506.404	1	5
507.596	1	10
508.788	1	-4
509.979	1	10
511.171	1	14
512.362	1	9
513.553	1	16
514.745	1	16
515.936	1	8
517.127	1	20
518.319	1	22
519.510	1	23
520.701	1	22
521.892	1	15
523.083	1	11
524.274	1	17
525.465	1	14
526.656	1	18
527.847	1	15
529.038	1	9
530.229	1	27
531.419	1	22
532.610	1	23
533.801	1	20
534.991	1	15
536.182	1	17
537.373	1	16
538.563	1	14
539.754	1	2
540.944	1	11
542.134	1	16
543.325	1	14
544.515	1	8
545.705	1	21
546.896	1	15
548.086	1	11
549.276	1	12
550.466	1	24
551.656	1	14
552.846	1	9
554.036	1	12
555.226	1	10
556.416	1	11
557.606	1	10
558.796	1	10
559.986	1	8
561.175	1	4
562.365	1	14
563.555	1	8
564.744	1	10
565.934	1	9
567.123	1	8
568.313	1	3
569.502	1	5
570.692	1	24
571.881	1	7
573.070	1	9
574.260	1	18
575.449	1	16
576.638	1	14
577.827	1	9
579.016	1	5
580.205	1	0
581.394	1	12
582.583	1	7
583.772	1	11
584.961	1	9
586.150	1	4
587.339	1	10
588.528	1	8
589.717	1	12
590.905	1	8
592.094	1	8
593.283	1	16
594.471	1	9
595.660	1	7
596.848	1	1
598.037	1	1
599.225	1	0
600.413	1	3
601.602	1	12
602.790	1	9
603.978	1	6
605.166	1	15
606.355	1	5
607.543	1	9
608.731	1	14
609.919	1	4
611.107	1	2
612.295	1	0
613.483	1	2
614.671	1	3
615.858	1	2
617.046	1	-1
618.234	1	5
619.422	1	-1
620.609	1	18
621.797	1	9
622.985	1	11
624.172	1	2
625.360	1	1
626.547	1	-1
627.735	1	-11
628.922	1	3
630.109	1	-3
631.297	1	-1
632.484	1	-1
633.671	1	15
634.858	1	-2
636.045	1	12
637.232	1	6
638.419	1	-2
639.606	1	-6
640.793	1	-1
641.980	1	-1
643.167	1	6
644.354	1	8
645.541	1	11
646.728	1	9
647.914	1	-2
649.101	1	1
650.288	1	-2
651.474	1	12
652.661	1	7
653.847	1	1
655.034	1	12
656.220	1	2
657.406	1	5
658.593	1	5
659.779	1	6
660.965	1	14
662.152	1	1
663.338	1	12
664.524	1	12
665.710	1	5
666.896	1	5
668.082	1	6
669.268	1	2
670.454	1	-4
671.640	1	8
672.826	1	7
674.011	1	8
675.197	1	10
676.383	1	14
677.569	1	-4
678.754	1	4
679.940	1	11
681.125	1	14
682.311	1	5
683.496	1	6
684.682	1	10
685.867	1	9
687.053	1	-10
688.238	1	-5
688.746	1	3

File: GaN_sample D_spot 18_UVVIS_170 K_200um_550 ms 2x2mm1_98.txt
340.368	1	-1
341.565	1	6
342.763	1	9
343.960	1	0
345.157	1	4
346.354	1	0
347.552	1	3
348.749	1	2
349.946	1	11
351.143	1	5
352.340	1	6
353.537	1	8
354.734	1	7
355.931	1	7
357.127	1	8
358.324	1	24
359.521	1	19
360.718	1	23
361.914	1	30
363.111	1	49
364.308	1	48
365.504	1	69
366.701	1	79
367.897	1	83
369.093	1	85
370.290	1	90
371.486	1	75
372.682	1	69
373.879	1	65
375.075	1	47
376.271	1	39
377.467	1	44
378.663	1	39
379.859	1	23
381.055	1	26
382.251	1	28
383.447	1	24
384.643	1	10
385.839	1	4
387.035	1	22
388.230	1	8
389.426	1	10
390.622	1	7
391.817	1	19
393.013	1	4
394.208	1	18
395.404	1	20
396.599	1	0
397.795	1	2
398.990	1	0
400.186	1	0
401.381	1	15
402.576	1	-3
403.771	1	6
404.967	1	-1
406.162	1	10
407.357	1	-2
408.552	1	3
409.747	1	-1
410.942	1	6
412.137	1	-8
413.332	1	-4
414.526	1	5
415.721	1	1
416.916	1	-5
418.111	1	9
419.305	1	6
420.500	1	-3
421.695	1	-3
422.889	1	8
424.084	1	11
425.278	1	-2
426.472	1	7
427.667	1	14
428.861	1	2
430.055	1	3
431.250	1	12
432.444	1	15
433.638	1	7
434.832	1	2
436.026	1	4
437.220	1	0
438.414	1	-5
439.608	1	-2
440.802	1	13
441.996	1	1
443.190	1	-4
444.384	1	5
445.578	1	-2
446.771	1	-2
447.965	1	7
449.159	1	-5
450.352	1	-4
451.546	1	-5
452.739	1	3
453.933	1	4
455.126	1	7
456.320	1	6
457.513	1	12
458.706	1	10
459.899	1	0
461.093	1	11
462.286	1	0
463.479	1	2
464.672	1	1
465.865	1	-1
467.058	1	17
468.251	1	3
469.444	1	-1
470.637	1	6
471.830	1	-3
473.023	1	9
474.215	1	3
475.408	1	-1
476.601	1	10
477.793	1	16
478.986	1	-8
480.179	1	-5
481.371	1	8
482.564	1	10
483.756	1	8
484.948	1	-2
486.141	1	14
487.333	1	1
488.525	1	7
489.718	1	12
490.910	1	8
492.102	1	9
493.294	1	0
494.486	1	15
495.678	1	10
496.870	1	8
498.062	1	6
499.254	1	9
500.446	1	3
501.638	1	-2
502.829	1	5
504.021	1	11
505.213	1	-1
506.404	1	19
507.596	1	16
508.788	1	15
509.979	1	12
511.171	1	20
512.362	1	3
513.553	1	16
514.745	1	12
515.936	1	11
517.127	1	15
518.319	1	21
519.510	1	17
520.701	1	19
521.892	1	7
523.083	1	6
524.274	1	10
525.465	1	11
526.656	1	24
527.847	1	17
529.038	1	11
530.229	1	24
531.419	1	21
532.610	1	25
533.801	1	24
534.991	1	12
536.182	1	18
537.373	1	2
538.563	1	16
539.754	1	9
540.944	1	10
542.134	1	16
543.325	1	10
544.515	1	13
545.705	1	17
546.896	1	15
548.086	1	12
549.276	1	11
550.466	1	22
551.656	1	13
552.846	1	9
554.036	1	14
555.226	1	8
556.416	1	1
557.606	1	12
558.796	1	8
559.986	1	19
561.175	1	3
562.365	1	9
563.555	1	3
564.744	1	12
565.934	1	10
567.123	1	4
568.313	1	13
569.502	1	10
570.692	1	21
571.881	1	1
573.070	1	8
574.260	1	13
575.449	1	8
576.638	1	12
577.827	1	11
579.016	1	15
580.205	1	7
581.394	1	7
582.583	1	2
583.772	1	10
584.961	1	7
586.150	1	-1
587.339	1	7
588.528	1	2
589.717	1	4
590.905	1	16
592.094	1	11
593.283	1	5
594.471	1	16
595.660	1	4
596.848	1	6
598.037	1	1
599.225	1	2
600.413	1	-2
601.602	1	12
602.790	1	7
603.978	1	4
605.166	1	9
606.355	1	13
607.543	1	7
608.731	1	2
609.919	1	6
611.107	1	1
612.295	1	8
613.483	1	-3
614.671	1	15
615.858	1	-4
617.046	1	-2
618.234	1	5
619.422	1	-3
620.609	1	8
621.797	1	4
622.985	1	6
624.172	1	-3
625.360	1	2
626.547	1	-4
627.735	1	-5
628.922	1	-4
630.109	1	5
631.297	1	3
632.484	1	4
633.671	1	8
634.858	1	2
636.045	1	5
637.232	1	6
638.419	1	-1
639.606	1	-5
640.793	1	8
641.980	1	3
643.167	1	6
644.354	1	-4
645.541	1	13
646.728	1	0
647.914	1	0
649.101	1	-1
650.288	1	-3
651.474	1	-3
652.661	1	1
653.847	1	8
655.034	1	-3
656.220	1	3
657.406	1	-1
658.593	1	2
659.779	1	0
660.965	1	18
662.152	1	4
663.338	1	8
664.524	1	9
665.710	1	-4
666.896	1	10
668.082	1	11
669.268	1	3
670.454	1	1
671.640	1	8
672.826	1	6
674.011	1	12
675.197	1	7
676.383	1	5
677.569	1	-5
678.754	1	11
679.940	1	23
681.125	1	10
682.311	1	2
683.496	1	8
684.682	1	5
685.867	1	3
687.053	1	1
688.238	1	5
688.746	1	2

File: GaN_sample D_spot 18_UVVIS_170 K_200um_550 ms 2x2mm1_99.txt
340.368	1	-2
341.565	1	8
342.763	1	14
343.960	1	0
345.157	1	7
346.354	1	4
347.552	1	23
348.749	1	5
349.946	1	8
351.143	1	0
352.340	1	15
353.537	1	7
354.734	1	12
355.931	1	5
357.127	1	11
358.324	1	19
359.521	1	15
360.718	1	31
361.914	1	36
363.111	1	45
364.308	1	56
365.504	1	64
366.701	1	75
367.897	1	102
369.093	1	91
370.290	1	69
371.486	1	79
372.682	1	72
373.879	1	60
375.075	1	47
376.271	1	52
377.467	1	43
378.663	1	24
379.859	1	38
381.055	1	24
382.251	1	19
383.447	1	24
384.643	1	14
385.839	1	10
387.035	1	0
388.230	1	4
389.426	1	15
390.622	1	13
391.817	1	11
393.013	1	7
394.208	1	21
395.404	1	0
396.599	1	-2
397.795	1	1
398.990	1	-2
400.186	1	-1
401.381	1	12
402.576	1	4
403.771	1	15
404.967	1	13
406.162	1	4
407.357	1	-8
408.552	1	7
409.747	1	3
410.942	1	9
412.137	1	4
413.332	1	-8
414.526	1	1
415.721	1	3
416.916	1	0
418.111	1	9
419.305	1	2
420.500	1	9
421.695	1	-13
422.889	1	3
424.084	1	15
425.278	1	-3
426.472	1	15
427.667	1	6
428.861	1	7
430.055	1	0
431.250	1	14
432.444	1	8
433.638	1	1
434.832	1	2
436.026	1	1
437.220	1	4
438.414	1	-3
439.608	1	6
440.802	1	25
441.996	1	0
443.190	1	0
444.384	1	3
445.578	1	11
446.771	1	-14
447.965	1	1
449.159	1	5
450.352	1	-3
451.546	1	3
452.739	1	-3
453.933	1	1
455.126	1	16
456.320	1	7
457.513	1	5
458.706	1	4
459.899	1	12
461.093	1	5
462.286	1	-2
463.479	1	1
464.672	1	-5
465.865	1	6
467.058	1	10
468.251	1	6
469.444	1	5
470.637	1	7
471.830	1	3
473.023	1	6
474.215	1	6
475.408	1	5
476.601	1	7
477.793	1	9
478.986	1	3
480.179	1	-1
481.371	1	3
482.564	1	-4
483.756	1	4
484.948	1	7
486.141	1	13
487.333	1	1
488.525	1	15
489.718	1	13
490.910	1	10
492.102	1	0
493.294	1	2
494.486	1	13
495.678	1	13
496.870	1	0
498.062	1	-4
499.254	1	6
500.446	1	7
501.638	1	2
502.829	1	11
504.021	1	15
505.213	1	11
506.404	1	12
507.596	1	15
508.788	1	9
509.979	1	10
511.171	1	9
512.362	1	9
513.553	1	16
514.745	1	13
515.936	1	11
517.127	1	22
518.319	1	19
519.510	1	21
520.701	1	15
521.892	1	15
523.083	1	11
524.274	1	6
525.465	1	15
526.656	1	13
527.847	1	14
529.038	1	6
530.229	1	17
531.419	1	30
532.610	1	20
533.801	1	13
534.991	1	18
536.182	1	14
537.373	1	6
538.563	1	18
539.754	1	8
540.944	1	15
542.134	1	15
543.325	1	17
544.515	1	16
545.705	1	16
546.896	1	11
548.086	1	17
549.276	1	22
550.466	1	13
551.656	1	15
552.846	1	12
554.036	1	8
555.226	1	0
556.416	1	10
557.606	1	11
558.796	1	8
559.986	1	15
561.175	1	2
562.365	1	9
563.555	1	6
564.744	1	8
565.934	1	15
567.123	1	14
568.313	1	11
569.502	1	13
570.692	1	19
571.881	1	2
573.070	1	10
574.260	1	3
575.449	1	6
576.638	1	13
577.827	1	-4
579.016	1	10
580.205	1	5
581.394	1	11
582.583	1	7
583.772	1	10
584.961	1	12
586.150	1	7
587.339	1	-3
588.528	1	2
589.717	1	1
590.905	1	2
592.094	1	14
593.283	1	5
594.471	1	15
595.660	1	4
596.848	1	6
598.037	1	3
599.225	1	16
600.413	1	-2
601.602	1	-1
602.790	1	6
603.978	1	10
605.166	1	1
606.355	1	7
607.543	1	9
608.731	1	3
609.919	1	11
611.107	1	3
612.295	1	0
613.483	1	2
614.671	1	7
615.858	1	-2
617.046	1	0
618.234	1	5
619.422	1	2
620.609	1	14
621.797	1	5
622.985	1	3
624.172	1	1
625.360	1	5
626.547	1	3
627.735	1	1
628.922	1	-3
630.109	1	-3
631.297	1	-5
632.484	1	5
633.671	1	9
634.858	1	4
636.045	1	10
637.232	1	9
638.419	1	0
639.606	1	-3
640.793	1	-4
641.980	1	-5
643.167	1	1
644.354	1	1
645.541	1	6
646.728	1	2
647.914	1	-2
649.101	1	6
650.288	1	6
651.474	1	9
652.661	1	5
653.847	1	3
655.034	1	-1
656.220	1	-4
657.406	1	0
658.593	1	6
659.779	1	2
660.965	1	8
662.152	1	1
663.338	1	6
664.524	1	6
665.710	1	8
666.896	1	3
668.082	1	9
669.268	1	-1
670.454	1	-9
671.640	1	11
672.826	1	1
674.011	1	9
675.197	1	9
676.383	1	3
677.569	1	-5
678.754	1	13
679.940	1	3
681.125	1	6
682.311	1	3
683.496	1	11
684.682	1	4
685.867	1	12
687.053	1	-2
688.238	1	0
688.746	1	0

File: GaN_sample D_spot 18_UVVIS_170 K_200um_550 ms 2x2mm1_100.txt
340.368	1	2
341.565	1	5
342.763	1	5
343.960	1	5
345.157	1	3
346.354	1	-6
347.552	1	10
348.749	1	14
349.946	1	13
351.143	1	6
352.340	1	7
353.537	1	7
354.734	1	15
355.931	1	15
357.127	1	10
358.324	1	17
359.521	1	23
360.718	1	25
361.914	1	33
363.111	1	38
364.308	1	55
365.504	1	63
366.701	1	75
367.897	1	84
369.093	1	82
370.290	1	90
371.486	1	70
372.682	1	62
373.879	1	66
375.075	1	54
376.271	1	50
377.467	1	37
378.663	1	28
379.859	1	34
381.055	1	26
382.251	1	28
383.447	1	24
384.643	1	10
385.839	1	7
387.035	1	11
388.230	1	2
389.426	1	15
390.622	1	6
391.817	1	5
393.013	1	9
394.208	1	17
395.404	1	7
396.599	1	2
397.795	1	-5
398.990	1	-14
400.186	1	3
401.381	1	20
402.576	1	4
403.771	1	3
404.967	1	-1
406.162	1	5
407.357	1	0
408.552	1	2
409.747	1	8
410.942	1	1
412.137	1	3
413.332	1	-4
414.526	1	6
415.721	1	0
416.916	1	-3
418.111	1	9
419.305	1	9
420.500	1	-1
421.695	1	-3
422.889	1	10
424.084	1	9
425.278	1	4
426.472	1	1
427.667	1	7
428.861	1	10
430.055	1	4
431.250	1	8
432.444	1	6
433.638	1	5
434.832	1	8
436.026	1	-3
437.220	1	-1
438.414	1	-3
439.608	1	-1
440.802	1	4
441.996	1	3
443.190	1	-2
444.384	1	6
445.578	1	17
446.771	1	-12
447.965	1	5
449.159	1	-12
450.352	1	1
451.546	1	-2
452.739	1	12
453.933	1	-2
455.126	1	11
456.320	1	-4
457.513	1	19
458.706	1	6
459.899	1	0
461.093	1	4
462.286	1	-3
463.479	1	-5
464.672	1	-5
465.865	1	5
467.058	1	6
468.251	1	2
469.444	1	-3
470.637	1	10
471.830	1	4
473.023	1	9
474.215	1	8
475.408	1	-3
476.601	1	9
477.793	1	14
478.986	1	2
480.179	1	-11
481.371	1	-5
482.564	1	-1
483.756	1	4
484.948	1	-1
486.141	1	14
487.333	1	2
488.525	1	2
489.718	1	4
490.910	1	15
492.102	1	7
493.294	1	2
494.486	1	12
495.678	1	9
496.870	1	7
498.062	1	4
499.254	1	22
500.446	1	9
501.638	1	3
502.829	1	7
504.021	1	14
505.213	1	6
506.404	1	13
507.596	1	15
508.788	1	2
509.979	1	8
511.171	1	20
512.362	1	12
513.553	1	15
514.745	1	7
515.936	1	5
517.127	1	16
518.319	1	13
519.510	1	18
520.701	1	7
521.892	1	14
523.083	1	15
524.274	1	17
525.465	1	10
526.656	1	21
527.847	1	9
529.038	1	7
530.229	1	20
531.419	1	18
532.610	1	19
533.801	1	16
534.991	1	17
536.182	1	7
537.373	1	11
538.563	1	3
539.754	1	12
540.944	1	6
542.134	1	5
543.325	1	15
544.515	1	15
545.705	1	22
546.896	1	19
548.086	1	15
549.276	1	15
550.466	1	12
551.656	1	12
552.846	1	6
554.036	1	13
555.226	1	2
556.416	1	11
557.606	1	13
558.796	1	5
559.986	1	17
561.175	1	-1
562.365	1	5
563.555	1	16
564.744	1	9
565.934	1	11
567.123	1	11
568.313	1	6
569.502	1	7
570.692	1	20
571.881	1	5
573.070	1	2
574.260	1	18
575.449	1	15
576.638	1	6
577.827	1	6
579.016	1	6
580.205	1	0
581.394	1	14
582.583	1	9
583.772	1	12
584.961	1	13
586.150	1	3
587.339	1	11
588.528	1	8
589.717	1	14
590.905	1	8
592.094	1	7
593.283	1	5
594.471	1	12
595.660	1	3
596.848	1	3
598.037	1	3
599.225	1	8
600.413	1	5
601.602	1	1
602.790	1	8
603.978	1	13
605.166	1	14
606.355	1	10
607.543	1	13
608.731	1	7
609.919	1	-3
611.107	1	-3
612.295	1	4
613.483	1	5
614.671	1	4
615.858	1	1
617.046	1	-6
618.234	1	6
619.422	1	0
620.609	1	24
621.797	1	7
622.985	1	10
624.172	1	7
625.360	1	5
626.547	1	1
627.735	1	-7
628.922	1	-9
630.109	1	-8
631.297	1	-3
632.484	1	4
633.671	1	15
634.858	1	4
636.045	1	7
637.232	1	0
638.419	1	0
639.606	1	-1
640.793	1	-2
641.980	1	5
643.167	1	-2
644.354	1	14
645.541	1	12
646.728	1	4
647.914	1	-1
649.101	1	-1
650.288	1	3
651.474	1	-2
652.661	1	1
653.847	1	6
655.034	1	1
656.220	1	7
657.406	1	9
658.593	1	12
659.779	1	18
660.965	1	6
662.152	1	7
663.338	1	2
664.524	1	11
665.710	1	4
666.896	1	-1
668.082	1	12
669.268	1	-7
670.454	1	-7
671.640	1	5
672.826	1	7
674.011	1	3
675.197	1	5
676.383	1	5
677.569	1	0
678.754	1	12
679.940	1	14
681.125	1	14
682.311	1	5
683.496	1	10
684.682	1	8
685.867	1	11
687.053	1	-7
688.238	1	-5
688.746	1	-2

File: GaN_sample D_spot 18_UVVIS_170 K_200um_550 ms 2x2mm1_101.txt
340.368	1	5
341.565	1	9
342.763	1	8
343.960	1	1
345.157	1	1
346.354	1	0
347.552	1	20
348.749	1	5
349.946	1	10
351.143	1	-3
352.340	1	6
353.537	1	12
354.734	1	10
355.931	1	6
357.127	1	4
358.324	1	20
359.521	1	18
360.718	1	25
361.914	1	35
363.111	1	48
364.308	1	51
365.504	1	62
366.701	1	71
367.897	1	86
369.093	1	83
370.290	1	83
371.486	1	58
372.682	1	73
373.879	1	55
375.075	1	53
376.271	1	42
377.467	1	33
378.663	1	40
379.859	1	32
381.055	1	20
382.251	1	13
383.447	1	20
384.643	1	20
385.839	1	14
387.035	1	17
388.230	1	14
389.426	1	17
390.622	1	10
391.817	1	5
393.013	1	2
394.208	1	15
395.404	1	3
396.599	1	-1
397.795	1	13
398.990	1	2
400.186	1	-1
401.381	1	9
402.576	1	5
403.771	1	6
404.967	1	5
406.162	1	13
407.357	1	-3
408.552	1	-2
409.747	1	7
410.942	1	10
412.137	1	-5
413.332	1	0
414.526	1	12
415.721	1	1
416.916	1	-5
418.111	1	9
419.305	1	5
420.500	1	10
421.695	1	-3
422.889	1	2
424.084	1	15
425.278	1	1
426.472	1	0
427.667	1	3
428.861	1	3
430.055	1	9
431.250	1	13
432.444	1	0
433.638	1	8
434.832	1	9
436.026	1	-2
437.220	1	7
438.414	1	0
439.608	1	-6
440.802	1	11
441.996	1	5
443.190	1	4
444.384	1	5
445.578	1	9
446.771	1	-12
447.965	1	3
449.159	1	0
450.352	1	-7
451.546	1	-11
452.739	1	7
453.933	1	-3
455.126	1	7
456.320	1	2
457.513	1	6
458.706	1	10
459.899	1	0
461.093	1	7
462.286	1	0
463.479	1	-2
464.672	1	-10
465.865	1	3
467.058	1	8
468.251	1	3
469.444	1	7
470.637	1	-2
471.830	1	3
473.023	1	6
474.215	1	-1
475.408	1	2
476.601	1	1
477.793	1	11
478.986	1	-5
480.179	1	-1
481.371	1	4
482.564	1	-1
483.756	1	5
484.948	1	0
486.141	1	12
487.333	1	-7
488.525	1	4
489.718	1	13
490.910	1	8
492.102	1	3
493.294	1	5
494.486	1	12
495.678	1	6
496.870	1	1
498.062	1	4
499.254	1	11
500.446	1	8
501.638	1	5
502.829	1	14
504.021	1	15
505.213	1	7
506.404	1	16
507.596	1	20
508.788	1	3
509.979	1	9
511.171	1	17
512.362	1	13
513.553	1	10
514.745	1	10
515.936	1	18
517.127	1	22
518.319	1	13
519.510	1	13
520.701	1	13
521.892	1	9
523.083	1	17
524.274	1	18
525.465	1	15
526.656	1	31
527.847	1	9
529.038	1	2
530.229	1	23
531.419	1	19
532.610	1	20
533.801	1	28
534.991	1	8
536.182	1	16
537.373	1	4
538.563	1	24
539.754	1	13
540.944	1	10
542.134	1	15
543.325	1	9
544.515	1	4
545.705	1	17
546.896	1	9
548.086	1	15
549.276	1	12
550.466	1	11
551.656	1	12
552.846	1	7
554.036	1	12
555.226	1	14
556.416	1	21
557.606	1	10
558.796	1	9
559.986	1	10
561.175	1	-5
562.365	1	12
563.555	1	3
564.744	1	15
565.934	1	6
567.123	1	10
568.313	1	8
569.502	1	10
570.692	1	14
571.881	1	2
573.070	1	1
574.260	1	8
575.449	1	10
576.638	1	9
577.827	1	-5
579.016	1	11
580.205	1	-2
581.394	1	12
582.583	1	10
583.772	1	1
584.961	1	1
586.150	1	-4
587.339	1	-2
588.528	1	-1
589.717	1	11
590.905	1	6
592.094	1	14
593.283	1	10
594.471	1	17
595.660	1	12
596.848	1	4
598.037	1	3
599.225	1	4
600.413	1	-5
601.602	1	7
602.790	1	10
603.978	1	10
605.166	1	15
606.355	1	4
607.543	1	4
608.731	1	6
609.919	1	2
611.107	1	0
612.295	1	-11
613.483	1	-2
614.671	1	11
615.858	1	1
617.046	1	-3
618.234	1	8
619.422	1	-1
620.609	1	8
621.797	1	7
622.985	1	8
624.172	1	10
625.360	1	2
626.547	1	4
627.735	1	-4
628.922	1	-2
630.109	1	2
631.297	1	4
632.484	1	-3
633.671	1	-1
634.858	1	-3
636.045	1	8
637.232	1	1
638.419	1	-6
639.606	1	-10
640.793	1	-1
641.980	1	-1
643.167	1	-1
644.354	1	-1
645.541	1	9
646.728	1	5
647.914	1	6
649.101	1	8
650.288	1	7
651.474	1	15
652.661	1	-1
653.847	1	1
655.034	1	10
656.220	1	10
657.406	1	-1
658.593	1	-2
659.779	1	9
660.965	1	10
662.152	1	1
663.338	1	-1
664.524	1	7
665.710	1	3
666.896	1	8
668.082	1	22
669.268	1	-1
670.454	1	-6
671.640	1	11
672.826	1	7
674.011	1	8
675.197	1	5
676.383	1	1
677.569	1	-9
678.754	1	9
679.940	1	11
681.125	1	8
682.311	1	4
683.496	1	12
684.682	1	12
685.867	1	13
687.053	1	0
688.238	1	0
688.746	1	-1

File: GaN_sample D_spot 18_UVVIS_170 K_200um_550 ms 2x2mm1_103.txt
340.368	1	6
341.565	1	8
342.763	1	-2
343.960	1	2
345.157	1	5
346.354	1	-2
347.552	1	9
348.749	1	3
349.946	1	7
351.143	1	7
352.340	1	12
353.537	1	-1
354.734	1	11
355.931	1	1
357.127	1	8
358.324	1	17
359.521	1	20
360.718	1	13
361.914	1	32
363.111	1	36
364.308	1	46
365.504	1	56
366.701	1	76
367.897	1	79
369.093	1	73
370.290	1	75
371.486	1	59
372.682	1	66
373.879	1	55
375.075	1	41
376.271	1	41
377.467	1	37
378.663	1	31
379.859	1	25
381.055	1	17
382.251	1	14
383.447	1	23
384.643	1	10
385.839	1	4
387.035	1	12
388.230	1	9
389.426	1	10
390.622	1	6
391.817	1	9
393.013	1	3
394.208	1	14
395.404	1	14
396.599	1	1
397.795	1	1
398.990	1	-5
400.186	1	1
401.381	1	12
402.576	1	-2
403.771	1	1
404.967	1	2
406.162	1	3
407.357	1	2
408.552	1	0
409.747	1	4
410.942	1	3
412.137	1	7
413.332	1	0
414.526	1	7
415.721	1	0
416.916	1	10
418.111	1	6
419.305	1	8
420.500	1	9
421.695	1	-2
422.889	1	-4
424.084	1	19
425.278	1	4
426.472	1	8
427.667	1	12
428.861	1	0
430.055	1	2
431.250	1	17
432.444	1	11
433.638	1	0
434.832	1	11
436.026	1	-5
437.220	1	0
438.414	1	-2
439.608	1	-3
440.802	1	13
441.996	1	1
443.190	1	1
444.384	1	-5
445.578	1	6
446.771	1	-5
447.965	1	3
449.159	1	3
450.352	1	-6
451.546	1	-3
452.739	1	6
453.933	1	4
455.126	1	6
456.320	1	1
457.513	1	3
458.706	1	2
459.899	1	4
461.093	1	11
462.286	1	4
463.479	1	5
464.672	1	-3
465.865	1	2
467.058	1	8
468.251	1	1
469.444	1	-1
470.637	1	2
471.830	1	0
473.023	1	6
474.215	1	-2
475.408	1	-2
476.601	1	4
477.793	1	9
478.986	1	-8
480.179	1	3
481.371	1	-1
482.564	1	4
483.756	1	12
484.948	1	7
486.141	1	15
487.333	1	0
488.525	1	20
489.718	1	8
490.910	1	3
492.102	1	11
493.294	1	5
494.486	1	14
495.678	1	8
496.870	1	8
498.062	1	15
499.254	1	9
500.446	1	15
501.638	1	0
502.829	1	18
504.021	1	15
505.213	1	8
506.404	1	15
507.596	1	18
508.788	1	7
509.979	1	8
511.171	1	1
512.362	1	10
513.553	1	11
514.745	1	2
515.936	1	3
517.127	1	16
518.319	1	14
519.510	1	20
520.701	1	15
521.892	1	10
523.083	1	17
524.274	1	12
525.465	1	10
526.656	1	22
527.847	1	11
529.038	1	9
530.229	1	19
531.419	1	31
532.610	1	11
533.801	1	18
534.991	1	7
536.182	1	5
537.373	1	5
538.563	1	11
539.754	1	18
540.944	1	8
542.134	1	6
543.325	1	14
544.515	1	12
545.705	1	13
546.896	1	7
548.086	1	18
549.276	1	10
550.466	1	5
551.656	1	17
552.846	1	5
554.036	1	8
555.226	1	-1
556.416	1	11
557.606	1	15
558.796	1	13
559.986	1	15
561.175	1	-4
562.365	1	9
563.555	1	7
564.744	1	17
565.934	1	5
567.123	1	9
568.313	1	6
569.502	1	14
570.692	1	18
571.881	1	3
573.070	1	10
574.260	1	11
575.449	1	11
576.638	1	9
577.827	1	4
579.016	1	13
580.205	1	12
581.394	1	11
582.583	1	18
583.772	1	5
584.961	1	8
586.150	1	-3
587.339	1	7
588.528	1	6
589.717	1	6
590.905	1	8
592.094	1	18
593.283	1	9
594.471	1	8
595.660	1	7
596.848	1	8
598.037	1	4
599.225	1	10
600.413	1	-2
601.602	1	9
602.790	1	19
603.978	1	10
605.166	1	14
606.355	1	13
607.543	1	18
608.731	1	5
609.919	1	5
611.107	1	4
612.295	1	-1
613.483	1	-9
614.671	1	6
615.858	1	2
617.046	1	-4
618.234	1	10
619.422	1	3
620.609	1	-3
621.797	1	2
622.985	1	12
624.172	1	-2
625.360	1	5
626.547	1	6
627.735	1	-5
628.922	1	-2
630.109	1	2
631.297	1	2
632.484	1	-7
633.671	1	12
634.858	1	7
636.045	1	9
637.232	1	9
638.419	1	-6
639.606	1	-6
640.793	1	-2
641.980	1	-3
643.167	1	-3
644.354	1	1
645.541	1	2
646.728	1	0
647.914	1	9
649.101	1	4
650.288	1	0
651.474	1	8
652.661	1	3
653.847	1	7
655.034	1	-3
656.220	1	2
657.406	1	13
658.593	1	10
659.779	1	4
660.965	1	10
662.152	1	-1
663.338	1	7
664.524	1	2
665.710	1	7
666.896	1	4
668.082	1	2
669.268	1	0
670.454	1	-8
671.640	1	7
672.826	1	-5
674.011	1	13
675.197	1	14
676.383	1	4
677.569	1	0
678.754	1	-1
679.940	1	9
681.125	1	8
682.311	1	5
683.496	1	11
684.682	1	13
685.867	1	4
687.053	1	-8
688.238	1	1
688.746	1	0