Folder: cryo-il_analysis/Data/GaN_170K_550ms (part 25)

File: GaN_sample D_spot 18_UVVIS_170 K_200um_550 ms 2x2mm1_303.txt
340.368	1	1
341.565	1	2
342.763	1	1
343.960	1	-2
345.157	1	0
346.354	1	-6
347.552	1	11
348.749	1	9
349.946	1	1
351.143	1	-2
352.340	1	0
353.537	1	2
354.734	1	9
355.931	1	1
357.127	1	0
358.324	1	9
359.521	1	11
360.718	1	-4
361.914	1	3
363.111	1	20
364.308	1	6
365.504	1	-8
366.701	1	9
367.897	1	5
369.093	1	6
370.290	1	11
371.486	1	-1
372.682	1	5
373.879	1	11
375.075	1	3
376.271	1	11
377.467	1	12
378.663	1	-3
379.859	1	2
381.055	1	-5
382.251	1	-1
383.447	1	10
384.643	1	-6
385.839	1	-3
387.035	1	-2
388.230	1	-3
389.426	1	9
390.622	1	0
391.817	1	2
393.013	1	2
394.208	1	8
395.404	1	13
396.599	1	-4
397.795	1	-2
398.990	1	-13
400.186	1	-13
401.381	1	14
402.576	1	2
403.771	1	5
404.967	1	1
406.162	1	-3
407.357	1	-2
408.552	1	-2
409.747	1	4
410.942	1	-2
412.137	1	0
413.332	1	0
414.526	1	4
415.721	1	-14
416.916	1	-2
418.111	1	9
419.305	1	5
420.500	1	4
421.695	1	-5
422.889	1	-3
424.084	1	7
425.278	1	1
426.472	1	6
427.667	1	-3
428.861	1	5
430.055	1	3
431.250	1	12
432.444	1	0
433.638	1	12
434.832	1	2
436.026	1	1
437.220	1	1
438.414	1	-4
439.608	1	-3
440.802	1	13
441.996	1	0
443.190	1	1
444.384	1	2
445.578	1	5
446.771	1	-15
447.965	1	7
449.159	1	-3
450.352	1	-5
451.546	1	-10
452.739	1	-2
453.933	1	-2
455.126	1	9
456.320	1	-1
457.513	1	5
458.706	1	2
459.899	1	7
461.093	1	3
462.286	1	3
463.479	1	-1
464.672	1	-2
465.865	1	0
467.058	1	-1
468.251	1	-1
469.444	1	-4
470.637	1	1
471.830	1	2
473.023	1	1
474.215	1	-1
475.408	1	-4
476.601	1	8
477.793	1	0
478.986	1	-5
480.179	1	-6
481.371	1	-2
482.564	1	-3
483.756	1	-5
484.948	1	4
486.141	1	9
487.333	1	-12
488.525	1	4
489.718	1	8
490.910	1	-7
492.102	1	2
493.294	1	1
494.486	1	4
495.678	1	-1
496.870	1	1
498.062	1	-4
499.254	1	7
500.446	1	0
501.638	1	-2
502.829	1	1
504.021	1	9
505.213	1	-15
506.404	1	5
507.596	1	3
508.788	1	-10
509.979	1	3
511.171	1	-4
512.362	1	-7
513.553	1	1
514.745	1	-1
515.936	1	7
517.127	1	-3
518.319	1	11
519.510	1	5
520.701	1	8
521.892	1	8
523.083	1	1
524.274	1	-1
525.465	1	10
526.656	1	10
527.847	1	-2
529.038	1	-9
530.229	1	9
531.419	1	15
532.610	1	3
533.801	1	-8
534.991	1	-1
536.182	1	-8
537.373	1	1
538.563	1	-6
539.754	1	1
540.944	1	-4
542.134	1	2
543.325	1	5
544.515	1	-3
545.705	1	7
546.896	1	4
548.086	1	2
549.276	1	4
550.466	1	0
551.656	1	8
552.846	1	1
554.036	1	7
555.226	1	-9
556.416	1	0
557.606	1	3
558.796	1	2
559.986	1	8
561.175	1	-1
562.365	1	6
563.555	1	6
564.744	1	8
565.934	1	-1
567.123	1	0
568.313	1	0
569.502	1	-3
570.692	1	9
571.881	1	-6
573.070	1	-6
574.260	1	1
575.449	1	4
576.638	1	8
577.827	1	-1
579.016	1	3
580.205	1	-9
581.394	1	0
582.583	1	0
583.772	1	-5
584.961	1	-5
586.150	1	-5
587.339	1	-5
588.528	1	0
589.717	1	-3
590.905	1	10
592.094	1	8
593.283	1	8
594.471	1	8
595.660	1	4
596.848	1	5
598.037	1	5
599.225	1	5
600.413	1	-4
601.602	1	3
602.790	1	11
603.978	1	-3
605.166	1	6
606.355	1	7
607.543	1	6
608.731	1	4
609.919	1	-6
611.107	1	-5
612.295	1	3
613.483	1	-5
614.671	1	11
615.858	1	3
617.046	1	3
618.234	1	8
619.422	1	-7
620.609	1	2
621.797	1	4
622.985	1	0
624.172	1	0
625.360	1	-5
626.547	1	-11
627.735	1	-10
628.922	1	-8
630.109	1	-5
631.297	1	-11
632.484	1	-3
633.671	1	5
634.858	1	4
636.045	1	5
637.232	1	-1
638.419	1	-8
639.606	1	-1
640.793	1	-6
641.980	1	-6
643.167	1	-9
644.354	1	7
645.541	1	8
646.728	1	-8
647.914	1	4
649.101	1	-6
650.288	1	3
651.474	1	8
652.661	1	0
653.847	1	1
655.034	1	-9
656.220	1	3
657.406	1	-1
658.593	1	-12
659.779	1	4
660.965	1	11
662.152	1	2
663.338	1	-2
664.524	1	3
665.710	1	12
666.896	1	-6
668.082	1	5
669.268	1	-2
670.454	1	-7
671.640	1	5
672.826	1	1
674.011	1	4
675.197	1	2
676.383	1	-6
677.569	1	0
678.754	1	1
679.940	1	11
681.125	1	6
682.311	1	-2
683.496	1	2
684.682	1	3
685.867	1	4
687.053	1	-3
688.238	1	0
688.746	1	-5

File: GaN_sample D_spot 18_UVVIS_170 K_200um_550 ms 2x2mm1_304.txt
340.368	1	1
341.565	1	11
342.763	1	-2
343.960	1	0
345.157	1	-2
346.354	1	-6
347.552	1	10
348.749	1	-4
349.946	1	4
351.143	1	-11
352.340	1	3
353.537	1	3
354.734	1	2
355.931	1	3
357.127	1	-2
358.324	1	2
359.521	1	9
360.718	1	0
361.914	1	-2
363.111	1	12
364.308	1	13
365.504	1	7
366.701	1	14
367.897	1	12
369.093	1	-4
370.290	1	7
371.486	1	-5
372.682	1	7
373.879	1	10
375.075	1	5
376.271	1	6
377.467	1	10
378.663	1	-3
379.859	1	6
381.055	1	9
382.251	1	5
383.447	1	8
384.643	1	0
385.839	1	-10
387.035	1	0
388.230	1	-9
389.426	1	9
390.622	1	-3
391.817	1	10
393.013	1	-4
394.208	1	4
395.404	1	6
396.599	1	-4
397.795	1	-2
398.990	1	-3
400.186	1	1
401.381	1	5
402.576	1	0
403.771	1	1
404.967	1	9
406.162	1	8
407.357	1	-8
408.552	1	1
409.747	1	-9
410.942	1	6
412.137	1	-8
413.332	1	0
414.526	1	-1
415.721	1	-5
416.916	1	-5
418.111	1	7
419.305	1	4
420.500	1	-2
421.695	1	-8
422.889	1	-3
424.084	1	9
425.278	1	-1
426.472	1	-2
427.667	1	4
428.861	1	1
430.055	1	-4
431.250	1	14
432.444	1	5
433.638	1	1
434.832	1	9
436.026	1	-5
437.220	1	-2
438.414	1	1
439.608	1	-5
440.802	1	5
441.996	1	6
443.190	1	4
444.384	1	5
445.578	1	10
446.771	1	-11
447.965	1	8
449.159	1	4
450.352	1	-2
451.546	1	-4
452.739	1	1
453.933	1	6
455.126	1	15
456.320	1	-2
457.513	1	12
458.706	1	11
459.899	1	-2
461.093	1	11
462.286	1	0
463.479	1	-3
464.672	1	-15
465.865	1	-6
467.058	1	6
468.251	1	5
469.444	1	4
470.637	1	1
471.830	1	0
473.023	1	3
474.215	1	1
475.408	1	-10
476.601	1	6
477.793	1	11
478.986	1	0
480.179	1	-11
481.371	1	0
482.564	1	-2
483.756	1	-4
484.948	1	-6
486.141	1	14
487.333	1	-5
488.525	1	6
489.718	1	-1
490.910	1	4
492.102	1	-5
493.294	1	-4
494.486	1	5
495.678	1	-1
496.870	1	-10
498.062	1	3
499.254	1	3
500.446	1	-5
501.638	1	-8
502.829	1	-7
504.021	1	4
505.213	1	3
506.404	1	0
507.596	1	11
508.788	1	-3
509.979	1	4
511.171	1	8
512.362	1	-7
513.553	1	8
514.745	1	2
515.936	1	-3
517.127	1	4
518.319	1	5
519.510	1	5
520.701	1	5
521.892	1	1
523.083	1	-2
524.274	1	0
525.465	1	5
526.656	1	6
527.847	1	7
529.038	1	-7
530.229	1	10
531.419	1	17
532.610	1	10
533.801	1	4
534.991	1	0
536.182	1	-2
537.373	1	-6
538.563	1	-3
539.754	1	-1
540.944	1	-2
542.134	1	1
543.325	1	6
544.515	1	2
545.705	1	3
546.896	1	2
548.086	1	-1
549.276	1	8
550.466	1	-7
551.656	1	-2
552.846	1	0
554.036	1	1
555.226	1	-2
556.416	1	9
557.606	1	-1
558.796	1	-4
559.986	1	-1
561.175	1	-7
562.365	1	2
563.555	1	2
564.744	1	12
565.934	1	3
567.123	1	6
568.313	1	3
569.502	1	-4
570.692	1	13
571.881	1	-6
573.070	1	-9
574.260	1	11
575.449	1	2
576.638	1	8
577.827	1	-3
579.016	1	5
580.205	1	-4
581.394	1	2
582.583	1	-3
583.772	1	3
584.961	1	4
586.150	1	-6
587.339	1	-4
588.528	1	-3
589.717	1	7
590.905	1	3
592.094	1	4
593.283	1	-2
594.471	1	-4
595.660	1	0
596.848	1	0
598.037	1	-2
599.225	1	4
600.413	1	-10
601.602	1	3
602.790	1	-1
603.978	1	5
605.166	1	10
606.355	1	-3
607.543	1	9
608.731	1	-1
609.919	1	-1
611.107	1	-3
612.295	1	1
613.483	1	-2
614.671	1	-1
615.858	1	-2
617.046	1	1
618.234	1	-5
619.422	1	-10
620.609	1	-4
621.797	1	-3
622.985	1	10
624.172	1	-5
625.360	1	0
626.547	1	-1
627.735	1	-14
628.922	1	-4
630.109	1	3
631.297	1	-9
632.484	1	-5
633.671	1	2
634.858	1	4
636.045	1	12
637.232	1	10
638.419	1	-13
639.606	1	-9
640.793	1	4
641.980	1	-12
643.167	1	-2
644.354	1	13
645.541	1	-2
646.728	1	6
647.914	1	-1
649.101	1	7
650.288	1	2
651.474	1	8
652.661	1	3
653.847	1	5
655.034	1	0
656.220	1	1
657.406	1	0
658.593	1	-4
659.779	1	3
660.965	1	5
662.152	1	-8
663.338	1	7
664.524	1	4
665.710	1	-4
666.896	1	-2
668.082	1	5
669.268	1	1
670.454	1	-3
671.640	1	3
672.826	1	-5
674.011	1	2
675.197	1	1
676.383	1	5
677.569	1	-4
678.754	1	8
679.940	1	5
681.125	1	7
682.311	1	-3
683.496	1	1
684.682	1	1
685.867	1	3
687.053	1	-5
688.238	1	-10
688.746	1	-9

File: GaN_sample D_spot 18_UVVIS_170 K_200um_550 ms 2x2mm1_305.txt
340.368	1	3
341.565	1	4
342.763	1	3
343.960	1	4
345.157	1	-5
346.354	1	-9
347.552	1	8
348.749	1	8
349.946	1	4
351.143	1	-7
352.340	1	3
353.537	1	4
354.734	1	8
355.931	1	-2
357.127	1	-9
358.324	1	8
359.521	1	7
360.718	1	9
361.914	1	7
363.111	1	12
364.308	1	8
365.504	1	4
366.701	1	9
367.897	1	3
369.093	1	-1
370.290	1	3
371.486	1	1
372.682	1	2
373.879	1	12
375.075	1	4
376.271	1	11
377.467	1	6
378.663	1	0
379.859	1	-4
381.055	1	8
382.251	1	1
383.447	1	12
384.643	1	0
385.839	1	-6
387.035	1	-4
388.230	1	3
389.426	1	1
390.622	1	10
391.817	1	3
393.013	1	-1
394.208	1	4
395.404	1	2
396.599	1	-7
397.795	1	-9
398.990	1	-7
400.186	1	1
401.381	1	3
402.576	1	-3
403.771	1	-2
404.967	1	8
406.162	1	8
407.357	1	4
408.552	1	-2
409.747	1	-1
410.942	1	4
412.137	1	-10
413.332	1	-8
414.526	1	2
415.721	1	-2
416.916	1	-3
418.111	1	4
419.305	1	-7
420.500	1	-5
421.695	1	-8
422.889	1	3
424.084	1	4
425.278	1	0
426.472	1	1
427.667	1	0
428.861	1	-1
430.055	1	-3
431.250	1	15
432.444	1	-1
433.638	1	4
434.832	1	4
436.026	1	-1
437.220	1	-6
438.414	1	-12
439.608	1	5
440.802	1	2
441.996	1	-2
443.190	1	3
444.384	1	6
445.578	1	4
446.771	1	-5
447.965	1	2
449.159	1	-2
450.352	1	-3
451.546	1	-3
452.739	1	2
453.933	1	-2
455.126	1	14
456.320	1	0
457.513	1	9
458.706	1	6
459.899	1	-2
461.093	1	1
462.286	1	-6
463.479	1	-6
464.672	1	2
465.865	1	-2
467.058	1	-2
468.251	1	2
469.444	1	0
470.637	1	1
471.830	1	3
473.023	1	5
474.215	1	11
475.408	1	-3
476.601	1	7
477.793	1	10
478.986	1	-7
480.179	1	0
481.371	1	10
482.564	1	3
483.756	1	5
484.948	1	1
486.141	1	7
487.333	1	-4
488.525	1	10
489.718	1	6
490.910	1	-2
492.102	1	0
493.294	1	-3
494.486	1	16
495.678	1	4
496.870	1	3
498.062	1	-2
499.254	1	10
500.446	1	10
501.638	1	-6
502.829	1	-2
504.021	1	2
505.213	1	2
506.404	1	7
507.596	1	10
508.788	1	-6
509.979	1	1
511.171	1	2
512.362	1	1
513.553	1	4
514.745	1	1
515.936	1	4
517.127	1	9
518.319	1	8
519.510	1	6
520.701	1	5
521.892	1	-2
523.083	1	5
524.274	1	1
525.465	1	-2
526.656	1	9
527.847	1	4
529.038	1	-3
530.229	1	2
531.419	1	9
532.610	1	9
533.801	1	-4
534.991	1	3
536.182	1	-1
537.373	1	-1
538.563	1	-3
539.754	1	1
540.944	1	-4
542.134	1	4
543.325	1	0
544.515	1	3
545.705	1	12
546.896	1	-6
548.086	1	8
549.276	1	4
550.466	1	-3
551.656	1	7
552.846	1	-4
554.036	1	2
555.226	1	-4
556.416	1	-8
557.606	1	1
558.796	1	7
559.986	1	1
561.175	1	-7
562.365	1	2
563.555	1	3
564.744	1	0
565.934	1	11
567.123	1	-6
568.313	1	-7
569.502	1	8
570.692	1	2
571.881	1	-13
573.070	1	2
574.260	1	1
575.449	1	1
576.638	1	7
577.827	1	-4
579.016	1	6
580.205	1	0
581.394	1	1
582.583	1	2
583.772	1	-1
584.961	1	0
586.150	1	-9
587.339	1	1
588.528	1	-5
589.717	1	0
590.905	1	4
592.094	1	3
593.283	1	3
594.471	1	8
595.660	1	-3
596.848	1	4
598.037	1	-3
599.225	1	6
600.413	1	-11
601.602	1	8
602.790	1	9
603.978	1	3
605.166	1	7
606.355	1	1
607.543	1	1
608.731	1	2
609.919	1	-2
611.107	1	-6
612.295	1	-2
613.483	1	-3
614.671	1	8
615.858	1	5
617.046	1	-7
618.234	1	-4
619.422	1	-10
620.609	1	-1
621.797	1	2
622.985	1	4
624.172	1	0
625.360	1	4
626.547	1	-4
627.735	1	-11
628.922	1	-2
630.109	1	-1
631.297	1	0
632.484	1	-2
633.671	1	0
634.858	1	-1
636.045	1	4
637.232	1	-2
638.419	1	-11
639.606	1	-8
640.793	1	-13
641.980	1	4
643.167	1	-5
644.354	1	2
645.541	1	-1
646.728	1	10
647.914	1	3
649.101	1	1
650.288	1	0
651.474	1	6
652.661	1	-1
653.847	1	3
655.034	1	-3
656.220	1	-5
657.406	1	4
658.593	1	-5
659.779	1	3
660.965	1	15
662.152	1	4
663.338	1	11
664.524	1	-5
665.710	1	-6
666.896	1	-2
668.082	1	9
669.268	1	-7
670.454	1	-11
671.640	1	1
672.826	1	0
674.011	1	-1
675.197	1	5
676.383	1	-8
677.569	1	-12
678.754	1	-2
679.940	1	3
681.125	1	5
682.311	1	-4
683.496	1	8
684.682	1	3
685.867	1	5
687.053	1	-9
688.238	1	-2
688.746	1	-9

File: GaN_sample D_spot 18_UVVIS_170 K_200um_550 ms 2x2mm1_307.txt
340.368	1	-7
341.565	1	6
342.763	1	-9
343.960	1	-1
345.157	1	0
346.354	1	-4
347.552	1	13
348.749	1	2
349.946	1	5
351.143	1	-2
352.340	1	3
353.537	1	-3
354.734	1	4
355.931	1	-5
357.127	1	6
358.324	1	8
359.521	1	7
360.718	1	-6
361.914	1	5
363.111	1	7
364.308	1	7
365.504	1	4
366.701	1	11
367.897	1	7
369.093	1	-2
370.290	1	4
371.486	1	1
372.682	1	-4
373.879	1	12
375.075	1	6
376.271	1	13
377.467	1	6
378.663	1	3
379.859	1	6
381.055	1	2
382.251	1	2
383.447	1	10
384.643	1	1
385.839	1	0
387.035	1	-2
388.230	1	-2
389.426	1	5
390.622	1	-14
391.817	1	-2
393.013	1	0
394.208	1	13
395.404	1	3
396.599	1	-5
397.795	1	2
398.990	1	-3
400.186	1	-2
401.381	1	6
402.576	1	-9
403.771	1	1
404.967	1	0
406.162	1	7
407.357	1	-3
408.552	1	3
409.747	1	0
410.942	1	-1
412.137	1	-7
413.332	1	-7
414.526	1	3
415.721	1	-1
416.916	1	-11
418.111	1	15
419.305	1	4
420.500	1	-4
421.695	1	-1
422.889	1	1
424.084	1	21
425.278	1	-4
426.472	1	5
427.667	1	3
428.861	1	1
430.055	1	6
431.250	1	15
432.444	1	3
433.638	1	9
434.832	1	-3
436.026	1	-9
437.220	1	0
438.414	1	-12
439.608	1	-1
440.802	1	2
441.996	1	-2
443.190	1	8
444.384	1	6
445.578	1	11
446.771	1	-5
447.965	1	1
449.159	1	6
450.352	1	-2
451.546	1	-8
452.739	1	9
453.933	1	-1
455.126	1	17
456.320	1	0
457.513	1	10
458.706	1	7
459.899	1	-2
461.093	1	9
462.286	1	2
463.479	1	3
464.672	1	1
465.865	1	-2
467.058	1	-3
468.251	1	11
469.444	1	-2
470.637	1	-7
471.830	1	4
473.023	1	6
474.215	1	3
475.408	1	-3
476.601	1	2
477.793	1	5
478.986	1	-9
480.179	1	-2
481.371	1	3
482.564	1	-2
483.756	1	2
484.948	1	-5
486.141	1	7
487.333	1	-5
488.525	1	1
489.718	1	0
490.910	1	2
492.102	1	-8
493.294	1	1
494.486	1	8
495.678	1	7
496.870	1	0
498.062	1	-7
499.254	1	13
500.446	1	9
501.638	1	-9
502.829	1	3
504.021	1	8
505.213	1	1
506.404	1	1
507.596	1	1
508.788	1	-7
509.979	1	-1
511.171	1	2
512.362	1	-1
513.553	1	-1
514.745	1	-7
515.936	1	-10
517.127	1	-5
518.319	1	5
519.510	1	4
520.701	1	5
521.892	1	3
523.083	1	-1
524.274	1	1
525.465	1	-2
526.656	1	2
527.847	1	4
529.038	1	-1
530.229	1	12
531.419	1	11
532.610	1	7
533.801	1	2
534.991	1	-3
536.182	1	-4
537.373	1	-4
538.563	1	-1
539.754	1	0
540.944	1	-6
542.134	1	0
543.325	1	-1
544.515	1	-1
545.705	1	8
546.896	1	10
548.086	1	14
549.276	1	-2
550.466	1	5
551.656	1	-2
552.846	1	-1
554.036	1	7
555.226	1	-1
556.416	1	-4
557.606	1	-2
558.796	1	-1
559.986	1	2
561.175	1	-3
562.365	1	1
563.555	1	6
564.744	1	2
565.934	1	4
567.123	1	1
568.313	1	-2
569.502	1	7
570.692	1	6
571.881	1	-3
573.070	1	-1
574.260	1	3
575.449	1	6
576.638	1	2
577.827	1	0
579.016	1	8
580.205	1	-3
581.394	1	3
582.583	1	-7
583.772	1	4
584.961	1	-6
586.150	1	-5
587.339	1	0
588.528	1	-3
589.717	1	3
590.905	1	7
592.094	1	4
593.283	1	12
594.471	1	5
595.660	1	-2
596.848	1	9
598.037	1	5
599.225	1	-4
600.413	1	-18
601.602	1	3
602.790	1	11
603.978	1	9
605.166	1	7
606.355	1	4
607.543	1	5
608.731	1	4
609.919	1	0
611.107	1	2
612.295	1	2
613.483	1	0
614.671	1	9
615.858	1	-2
617.046	1	-5
618.234	1	-3
619.422	1	-12
620.609	1	4
621.797	1	2
622.985	1	-2
624.172	1	-10
625.360	1	0
626.547	1	-5
627.735	1	-8
628.922	1	-17
630.109	1	-3
631.297	1	-9
632.484	1	-1
633.671	1	10
634.858	1	-8
636.045	1	7
637.232	1	-4
638.419	1	-3
639.606	1	-7
640.793	1	-1
641.980	1	-6
643.167	1	-4
644.354	1	9
645.541	1	2
646.728	1	8
647.914	1	0
649.101	1	-1
650.288	1	-1
651.474	1	3
652.661	1	8
653.847	1	-1
655.034	1	2
656.220	1	5
657.406	1	-6
658.593	1	-6
659.779	1	-1
660.965	1	8
662.152	1	-3
663.338	1	8
664.524	1	1
665.710	1	-2
666.896	1	1
668.082	1	10
669.268	1	-5
670.454	1	-7
671.640	1	8
672.826	1	-2
674.011	1	18
675.197	1	3
676.383	1	1
677.569	1	-3
678.754	1	5
679.940	1	11
681.125	1	8
682.311	1	1
683.496	1	6
684.682	1	3
685.867	1	8
687.053	1	-10
688.238	1	-7
688.746	1	3

File: GaN_sample D_spot 18_UVVIS_170 K_200um_550 ms 2x2mm1_310.txt
340.368	1	0
341.565	1	6
342.763	1	2
343.960	1	4
345.157	1	1
346.354	1	1
347.552	1	5
348.749	1	10
349.946	1	6
351.143	1	-1
352.340	1	1
353.537	1	1
354.734	1	4
355.931	1	-8
357.127	1	0
358.324	1	0
359.521	1	3
360.718	1	-1
361.914	1	5
363.111	1	12
364.308	1	9
365.504	1	8
366.701	1	12
367.897	1	6
369.093	1	-1
370.290	1	5
371.486	1	-1
372.682	1	6
373.879	1	3
375.075	1	6
376.271	1	1
377.467	1	10
378.663	1	-6
379.859	1	2
381.055	1	4
382.251	1	2
383.447	1	11
384.643	1	-2
385.839	1	-6
387.035	1	-1
388.230	1	-6
389.426	1	1
390.622	1	2
391.817	1	-1
393.013	1	0
394.208	1	11
395.404	1	6
396.599	1	-6
397.795	1	-3
398.990	1	-14
400.186	1	-6
401.381	1	6
402.576	1	-1
403.771	1	2
404.967	1	10
406.162	1	6
407.357	1	-3
408.552	1	-3
409.747	1	5
410.942	1	-2
412.137	1	1
413.332	1	2
414.526	1	1
415.721	1	-8
416.916	1	-8
418.111	1	11
419.305	1	-3
420.500	1	1
421.695	1	-5
422.889	1	-7
424.084	1	13
425.278	1	7
426.472	1	-1
427.667	1	1
428.861	1	5
430.055	1	9
431.250	1	4
432.444	1	-3
433.638	1	8
434.832	1	10
436.026	1	1
437.220	1	-5
438.414	1	-12
439.608	1	-8
440.802	1	6
441.996	1	-3
443.190	1	-4
444.384	1	-2
445.578	1	5
446.771	1	-9
447.965	1	-8
449.159	1	0
450.352	1	-4
451.546	1	-6
452.739	1	11
453.933	1	-9
455.126	1	10
456.320	1	4
457.513	1	-4
458.706	1	5
459.899	1	1
461.093	1	4
462.286	1	2
463.479	1	1
464.672	1	1
465.865	1	5
467.058	1	5
468.251	1	0
469.444	1	4
470.637	1	3
471.830	1	-2
473.023	1	3
474.215	1	-4
475.408	1	0
476.601	1	-3
477.793	1	4
478.986	1	-2
480.179	1	-11
481.371	1	4
482.564	1	1
483.756	1	0
484.948	1	-5
486.141	1	4
487.333	1	-5
488.525	1	7
489.718	1	3
490.910	1	-9
492.102	1	-3
493.294	1	3
494.486	1	13
495.678	1	8
496.870	1	-3
498.062	1	2
499.254	1	5
500.446	1	2
501.638	1	-10
502.829	1	6
504.021	1	1
505.213	1	-7
506.404	1	-4
507.596	1	9
508.788	1	-8
509.979	1	-2
511.171	1	0
512.362	1	0
513.553	1	-2
514.745	1	-8
515.936	1	6
517.127	1	5
518.319	1	11
519.510	1	10
520.701	1	2
521.892	1	-2
523.083	1	5
524.274	1	0
525.465	1	3
526.656	1	10
527.847	1	2
529.038	1	-3
530.229	1	9
531.419	1	7
532.610	1	2
533.801	1	5
534.991	1	-6
536.182	1	0
537.373	1	-7
538.563	1	-1
539.754	1	1
540.944	1	-2
542.134	1	-1
543.325	1	-4
544.515	1	-1
545.705	1	1
546.896	1	8
548.086	1	1
549.276	1	5
550.466	1	-7
551.656	1	8
552.846	1	7
554.036	1	4
555.226	1	2
556.416	1	-1
557.606	1	13
558.796	1	6
559.986	1	-4
561.175	1	-9
562.365	1	-3
563.555	1	-6
564.744	1	10
565.934	1	1
567.123	1	1
568.313	1	-6
569.502	1	-3
570.692	1	0
571.881	1	-8
573.070	1	4
574.260	1	4
575.449	1	1
576.638	1	6
577.827	1	2
579.016	1	2
580.205	1	-1
581.394	1	8
582.583	1	-6
583.772	1	-1
584.961	1	1
586.150	1	-2
587.339	1	0
588.528	1	-8
589.717	1	4
590.905	1	13
592.094	1	11
593.283	1	4
594.471	1	19
595.660	1	3
596.848	1	7
598.037	1	0
599.225	1	-5
600.413	1	0
601.602	1	7
602.790	1	6
603.978	1	4
605.166	1	12
606.355	1	4
607.543	1	9
608.731	1	-6
609.919	1	2
611.107	1	2
612.295	1	-6
613.483	1	1
614.671	1	7
615.858	1	-6
617.046	1	-6
618.234	1	8
619.422	1	-16
620.609	1	2
621.797	1	12
622.985	1	8
624.172	1	6
625.360	1	2
626.547	1	-9
627.735	1	-4
628.922	1	-10
630.109	1	-6
631.297	1	3
632.484	1	-7
633.671	1	3
634.858	1	6
636.045	1	4
637.232	1	1
638.419	1	-9
639.606	1	-8
640.793	1	-6
641.980	1	-7
643.167	1	-6
644.354	1	-6
645.541	1	-3
646.728	1	0
647.914	1	5
649.101	1	-1
650.288	1	-1
651.474	1	2
652.661	1	-1
653.847	1	4
655.034	1	-3
656.220	1	3
657.406	1	1
658.593	1	-3
659.779	1	0
660.965	1	12
662.152	1	4
663.338	1	7
664.524	1	-1
665.710	1	2
666.896	1	-3
668.082	1	8
669.268	1	-3
670.454	1	-9
671.640	1	-4
672.826	1	5
674.011	1	8
675.197	1	10
676.383	1	5
677.569	1	-4
678.754	1	5
679.940	1	3
681.125	1	5
682.311	1	4
683.496	1	-1
684.682	1	5
685.867	1	10
687.053	1	-6
688.238	1	-6
688.746	1	-8

File: GaN_sample D_spot 18_UVVIS_170 K_200um_550 ms 2x2mm1_311.txt
340.368	1	-2
341.565	1	6
342.763	1	3
343.960	1	4
345.157	1	-5
346.354	1	-9
347.552	1	3
348.749	1	8
349.946	1	9
351.143	1	1
352.340	1	3
353.537	1	9
354.734	1	2
355.931	1	2
357.127	1	1
358.324	1	12
359.521	1	3
360.718	1	5
361.914	1	-5
363.111	1	11
364.308	1	4
365.504	1	2
366.701	1	7
367.897	1	8
369.093	1	-7
370.290	1	9
371.486	1	-3
372.682	1	9
373.879	1	15
375.075	1	2
376.271	1	3
377.467	1	7
378.663	1	3
379.859	1	18
381.055	1	1
382.251	1	-2
383.447	1	10
384.643	1	2
385.839	1	-7
387.035	1	1
388.230	1	4
389.426	1	10
390.622	1	0
391.817	1	6
393.013	1	-1
394.208	1	5
395.404	1	11
396.599	1	-6
397.795	1	4
398.990	1	1
400.186	1	-5
401.381	1	5
402.576	1	2
403.771	1	-3
404.967	1	7
406.162	1	6
407.357	1	-9
408.552	1	1
409.747	1	-3
410.942	1	6
412.137	1	-9
413.332	1	-7
414.526	1	7
415.721	1	-1
416.916	1	-7
418.111	1	11
419.305	1	4
420.500	1	-1
421.695	1	-12
422.889	1	-7
424.084	1	4
425.278	1	-4
426.472	1	3
427.667	1	5
428.861	1	-1
430.055	1	-7
431.250	1	12
432.444	1	5
433.638	1	6
434.832	1	8
436.026	1	-9
437.220	1	0
438.414	1	-10
439.608	1	-3
440.802	1	4
441.996	1	1
443.190	1	-6
444.384	1	1
445.578	1	0
446.771	1	-10
447.965	1	10
449.159	1	-2
450.352	1	-4
451.546	1	-6
452.739	1	-2
453.933	1	-1
455.126	1	7
456.320	1	2
457.513	1	4
458.706	1	-4
459.899	1	-3
461.093	1	4
462.286	1	-3
463.479	1	0
464.672	1	-10
465.865	1	1
467.058	1	16
468.251	1	4
469.444	1	10
470.637	1	-6
471.830	1	0
473.023	1	4
474.215	1	5
475.408	1	-5
476.601	1	2
477.793	1	3
478.986	1	-2
480.179	1	-6
481.371	1	0
482.564	1	2
483.756	1	1
484.948	1	-8
486.141	1	10
487.333	1	-4
488.525	1	2
489.718	1	2
490.910	1	-1
492.102	1	-3
493.294	1	3
494.486	1	8
495.678	1	5
496.870	1	6
498.062	1	0
499.254	1	10
500.446	1	3
501.638	1	-5
502.829	1	0
504.021	1	-5
505.213	1	-9
506.404	1	-4
507.596	1	4
508.788	1	-8
509.979	1	2
511.171	1	4
512.362	1	-4
513.553	1	0
514.745	1	-3
515.936	1	-1
517.127	1	6
518.319	1	4
519.510	1	-1
520.701	1	3
521.892	1	-3
523.083	1	1
524.274	1	1
525.465	1	6
526.656	1	11
527.847	1	0
529.038	1	-3
530.229	1	7
531.419	1	4
532.610	1	-1
533.801	1	6
534.991	1	1
536.182	1	-4
537.373	1	-2
538.563	1	0
539.754	1	2
540.944	1	2
542.134	1	4
543.325	1	8
544.515	1	-1
545.705	1	9
546.896	1	2
548.086	1	1
549.276	1	3
550.466	1	-2
551.656	1	-3
552.846	1	-2
554.036	1	8
555.226	1	-11
556.416	1	-6
557.606	1	9
558.796	1	0
559.986	1	1
561.175	1	-3
562.365	1	10
563.555	1	-2
564.744	1	-1
565.934	1	8
567.123	1	-3
568.313	1	1
569.502	1	8
570.692	1	10
571.881	1	2
573.070	1	2
574.260	1	13
575.449	1	0
576.638	1	8
577.827	1	3
579.016	1	2
580.205	1	-11
581.394	1	-1
582.583	1	10
583.772	1	-4
584.961	1	2
586.150	1	-3
587.339	1	-4
588.528	1	0
589.717	1	5
590.905	1	8
592.094	1	-1
593.283	1	7
594.471	1	5
595.660	1	7
596.848	1	5
598.037	1	-1
599.225	1	0
600.413	1	-4
601.602	1	-4
602.790	1	8
603.978	1	5
605.166	1	6
606.355	1	2
607.543	1	9
608.731	1	6
609.919	1	3
611.107	1	-11
612.295	1	-2
613.483	1	-5
614.671	1	5
615.858	1	-3
617.046	1	4
618.234	1	3
619.422	1	-8
620.609	1	2
621.797	1	1
622.985	1	2
624.172	1	1
625.360	1	-4
626.547	1	-1
627.735	1	-9
628.922	1	-9
630.109	1	3
631.297	1	-4
632.484	1	-5
633.671	1	-5
634.858	1	1
636.045	1	0
637.232	1	-2
638.419	1	-5
639.606	1	-5
640.793	1	0
641.980	1	-4
643.167	1	4
644.354	1	7
645.541	1	3
646.728	1	2
647.914	1	4
649.101	1	-2
650.288	1	3
651.474	1	7
652.661	1	6
653.847	1	-1
655.034	1	-7
656.220	1	-1
657.406	1	-2
658.593	1	-1
659.779	1	3
660.965	1	16
662.152	1	-1
663.338	1	12
664.524	1	12
665.710	1	-4
666.896	1	-4
668.082	1	8
669.268	1	-1
670.454	1	-6
671.640	1	4
672.826	1	4
674.011	1	7
675.197	1	3
676.383	1	-2
677.569	1	-2
678.754	1	8
679.940	1	9
681.125	1	1
682.311	1	2
683.496	1	1
684.682	1	11
685.867	1	8
687.053	1	-8
688.238	1	-4
688.746	1	-6