Folder: cryo-il_analysis/Data/GaN_130K_350ms (part 17)

File: GaN_sample F_spot6_UVVIS_130 K_200um_350 ms 2x2mm1_212.txt
340.368	1	4
341.565	1	-4
342.763	1	8
343.960	1	-9
345.157	1	-7
346.354	1	8
347.552	1	-1
348.749	1	6
349.946	1	0
351.143	1	1
352.340	1	15
353.537	1	1
354.734	1	-4
355.931	1	9
357.127	1	7
358.324	1	-2
359.521	1	0
360.718	1	19
361.914	1	10
363.111	1	15
364.308	1	20
365.504	1	25
366.701	1	15
367.897	1	10
369.093	1	15
370.290	1	15
371.486	1	13
372.682	1	12
373.879	1	14
375.075	1	13
376.271	1	4
377.467	1	21
378.663	1	12
379.859	1	3
381.055	1	8
382.251	1	8
383.447	1	8
384.643	1	5
385.839	1	5
387.035	1	16
388.230	1	-1
389.426	1	9
390.622	1	5
391.817	1	13
393.013	1	1
394.208	1	1
395.404	1	0
396.599	1	11
397.795	1	4
398.990	1	5
400.186	1	4
401.381	1	9
402.576	1	0
403.771	1	4
404.967	1	4
406.162	1	-7
407.357	1	1
408.552	1	-4
409.747	1	-2
410.942	1	9
412.137	1	-10
413.332	1	-1
414.526	1	7
415.721	1	7
416.916	1	1
418.111	1	4
419.305	1	7
420.500	1	5
421.695	1	0
422.889	1	4
424.084	1	5
425.278	1	2
426.472	1	1
427.667	1	17
428.861	1	2
430.055	1	4
431.250	1	18
432.444	1	7
433.638	1	7
434.832	1	-2
436.026	1	15
437.220	1	-5
438.414	1	-7
439.608	1	19
440.802	1	-6
441.996	1	9
443.190	1	3
444.384	1	-10
445.578	1	-3
446.771	1	9
447.965	1	0
449.159	1	7
450.352	1	10
451.546	1	14
452.739	1	10
453.933	1	2
455.126	1	-8
456.320	1	-3
457.513	1	-8
458.706	1	1
459.899	1	4
461.093	1	6
462.286	1	6
463.479	1	5
464.672	1	12
465.865	1	-11
467.058	1	12
468.251	1	4
469.444	1	-1
470.637	1	4
471.830	1	6
473.023	1	10
474.215	1	6
475.408	1	8
476.601	1	3
477.793	1	3
478.986	1	-3
480.179	1	1
481.371	1	5
482.564	1	1
483.756	1	-6
484.948	1	1
486.141	1	3
487.333	1	-4
488.525	1	8
489.718	1	6
490.910	1	2
492.102	1	13
493.294	1	8
494.486	1	18
495.678	1	10
496.870	1	-2
498.062	1	-3
499.254	1	8
500.446	1	13
501.638	1	6
502.829	1	10
504.021	1	-2
505.213	1	4
506.404	1	4
507.596	1	-4
508.788	1	-2
509.979	1	2
511.171	1	14
512.362	1	3
513.553	1	7
514.745	1	10
515.936	1	8
517.127	1	9
518.319	1	1
519.510	1	3
520.701	1	5
521.892	1	4
523.083	1	4
524.274	1	3
525.465	1	7
526.656	1	4
527.847	1	10
529.038	1	-8
530.229	1	9
531.419	1	16
532.610	1	12
533.801	1	18
534.991	1	4
536.182	1	11
537.373	1	4
538.563	1	16
539.754	1	7
540.944	1	8
542.134	1	2
543.325	1	11
544.515	1	6
545.705	1	1
546.896	1	3
548.086	1	0
549.276	1	0
550.466	1	10
551.656	1	10
552.846	1	-2
554.036	1	-2
555.226	1	12
556.416	1	9
557.606	1	5
558.796	1	18
559.986	1	4
561.175	1	13
562.365	1	15
563.555	1	13
564.744	1	6
565.934	1	6
567.123	1	7
568.313	1	-5
569.502	1	2
570.692	1	6
571.881	1	7
573.070	1	-3
574.260	1	-3
575.449	1	12
576.638	1	-4
577.827	1	-5
579.016	1	4
580.205	1	-5
581.394	1	5
582.583	1	14
583.772	1	13
584.961	1	5
586.150	1	17
587.339	1	2
588.528	1	5
589.717	1	-2
590.905	1	5
592.094	1	-1
593.283	1	-2
594.471	1	7
595.660	1	-1
596.848	1	-4
598.037	1	8
599.225	1	4
600.413	1	10
601.602	1	-9
602.790	1	-2
603.978	1	6
605.166	1	12
606.355	1	6
607.543	1	9
608.731	1	7
609.919	1	12
611.107	1	4
612.295	1	12
613.483	1	-1
614.671	1	0
615.858	1	0
617.046	1	12
618.234	1	2
619.422	1	-3
620.609	1	-12
621.797	1	-3
622.985	1	0
624.172	1	8
625.360	1	-2
626.547	1	1
627.735	1	2
628.922	1	-2
630.109	1	7
631.297	1	7
632.484	1	1
633.671	1	-1
634.858	1	4
636.045	1	16
637.232	1	4
638.419	1	1
639.606	1	8
640.793	1	-10
641.980	1	0
643.167	1	2
644.354	1	2
645.541	1	1
646.728	1	-7
647.914	1	-5
649.101	1	4
650.288	1	0
651.474	1	2
652.661	1	3
653.847	1	-4
655.034	1	7
656.220	1	1
657.406	1	7
658.593	1	4
659.779	1	7
660.965	1	5
662.152	1	6
663.338	1	-4
664.524	1	-6
665.710	1	3
666.896	1	8
668.082	1	-2
669.268	1	-4
670.454	1	5
671.640	1	0
672.826	1	3
674.011	1	5
675.197	1	3
676.383	1	1
677.569	1	-4
678.754	1	3
679.940	1	2
681.125	1	14
682.311	1	-3
683.496	1	-4
684.682	1	-3
685.867	1	-5
687.053	1	1
688.238	1	5
688.746	1	9

File: GaN_sample F_spot6_UVVIS_130 K_200um_350 ms 2x2mm1_213.txt
340.368	1	2
341.565	1	2
342.763	1	14
343.960	1	-5
345.157	1	-9
346.354	1	-10
347.552	1	-1
348.749	1	10
349.946	1	5
351.143	1	1
352.340	1	15
353.537	1	6
354.734	1	2
355.931	1	12
357.127	1	6
358.324	1	4
359.521	1	0
360.718	1	5
361.914	1	12
363.111	1	18
364.308	1	15
365.504	1	17
366.701	1	16
367.897	1	5
369.093	1	21
370.290	1	17
371.486	1	21
372.682	1	14
373.879	1	11
375.075	1	14
376.271	1	11
377.467	1	11
378.663	1	8
379.859	1	4
381.055	1	11
382.251	1	9
383.447	1	6
384.643	1	7
385.839	1	12
387.035	1	19
388.230	1	0
389.426	1	18
390.622	1	-1
391.817	1	12
393.013	1	11
394.208	1	2
395.404	1	-6
396.599	1	6
397.795	1	5
398.990	1	3
400.186	1	2
401.381	1	4
402.576	1	8
403.771	1	10
404.967	1	-4
406.162	1	2
407.357	1	6
408.552	1	1
409.747	1	-1
410.942	1	0
412.137	1	0
413.332	1	-12
414.526	1	7
415.721	1	8
416.916	1	-1
418.111	1	4
419.305	1	12
420.500	1	10
421.695	1	6
422.889	1	6
424.084	1	7
425.278	1	7
426.472	1	5
427.667	1	5
428.861	1	3
430.055	1	-3
431.250	1	8
432.444	1	-1
433.638	1	3
434.832	1	5
436.026	1	14
437.220	1	3
438.414	1	0
439.608	1	16
440.802	1	-1
441.996	1	0
443.190	1	-2
444.384	1	-10
445.578	1	2
446.771	1	5
447.965	1	-2
449.159	1	3
450.352	1	14
451.546	1	18
452.739	1	8
453.933	1	-5
455.126	1	-8
456.320	1	10
457.513	1	-6
458.706	1	7
459.899	1	-1
461.093	1	10
462.286	1	6
463.479	1	5
464.672	1	2
465.865	1	-2
467.058	1	1
468.251	1	3
469.444	1	8
470.637	1	2
471.830	1	-1
473.023	1	9
474.215	1	3
475.408	1	4
476.601	1	-1
477.793	1	-1
478.986	1	2
480.179	1	-1
481.371	1	4
482.564	1	-7
483.756	1	1
484.948	1	2
486.141	1	-2
487.333	1	-4
488.525	1	2
489.718	1	2
490.910	1	-2
492.102	1	1
493.294	1	19
494.486	1	15
495.678	1	1
496.870	1	0
498.062	1	-4
499.254	1	6
500.446	1	0
501.638	1	4
502.829	1	-1
504.021	1	-3
505.213	1	12
506.404	1	6
507.596	1	3
508.788	1	6
509.979	1	1
511.171	1	15
512.362	1	0
513.553	1	12
514.745	1	-9
515.936	1	17
517.127	1	8
518.319	1	-3
519.510	1	1
520.701	1	9
521.892	1	11
523.083	1	9
524.274	1	0
525.465	1	8
526.656	1	8
527.847	1	6
529.038	1	-4
530.229	1	18
531.419	1	12
532.610	1	12
533.801	1	15
534.991	1	-2
536.182	1	12
537.373	1	4
538.563	1	9
539.754	1	9
540.944	1	2
542.134	1	1
543.325	1	5
544.515	1	10
545.705	1	3
546.896	1	-1
548.086	1	-4
549.276	1	-4
550.466	1	15
551.656	1	5
552.846	1	-3
554.036	1	7
555.226	1	8
556.416	1	11
557.606	1	5
558.796	1	12
559.986	1	6
561.175	1	12
562.365	1	4
563.555	1	8
564.744	1	12
565.934	1	3
567.123	1	9
568.313	1	3
569.502	1	-6
570.692	1	16
571.881	1	9
573.070	1	4
574.260	1	3
575.449	1	8
576.638	1	-6
577.827	1	2
579.016	1	11
580.205	1	2
581.394	1	-1
582.583	1	19
583.772	1	-1
584.961	1	-3
586.150	1	1
587.339	1	-7
588.528	1	7
589.717	1	-7
590.905	1	5
592.094	1	6
593.283	1	-6
594.471	1	-3
595.660	1	-5
596.848	1	-2
598.037	1	9
599.225	1	8
600.413	1	6
601.602	1	1
602.790	1	3
603.978	1	12
605.166	1	8
606.355	1	6
607.543	1	1
608.731	1	3
609.919	1	7
611.107	1	7
612.295	1	12
613.483	1	-7
614.671	1	1
615.858	1	-6
617.046	1	8
618.234	1	1
619.422	1	-1
620.609	1	-9
621.797	1	5
622.985	1	4
624.172	1	-3
625.360	1	-2
626.547	1	4
627.735	1	6
628.922	1	-3
630.109	1	2
631.297	1	9
632.484	1	-7
633.671	1	-7
634.858	1	5
636.045	1	20
637.232	1	-6
638.419	1	2
639.606	1	11
640.793	1	-8
641.980	1	-1
643.167	1	6
644.354	1	2
645.541	1	-3
646.728	1	8
647.914	1	-2
649.101	1	3
650.288	1	8
651.474	1	1
652.661	1	-1
653.847	1	4
655.034	1	2
656.220	1	0
657.406	1	-9
658.593	1	7
659.779	1	12
660.965	1	-1
662.152	1	-3
663.338	1	-3
664.524	1	-9
665.710	1	7
666.896	1	13
668.082	1	0
669.268	1	1
670.454	1	1
671.640	1	-8
672.826	1	-7
674.011	1	4
675.197	1	6
676.383	1	6
677.569	1	6
678.754	1	9
679.940	1	0
681.125	1	14
682.311	1	-7
683.496	1	1
684.682	1	0
685.867	1	1
687.053	1	-1
688.238	1	-1
688.746	1	3

File: GaN_sample F_spot6_UVVIS_130 K_200um_350 ms 2x2mm1_214.txt
340.368	1	3
341.565	1	3
342.763	1	-4
343.960	1	-9
345.157	1	-3
346.354	1	8
347.552	1	6
348.749	1	7
349.946	1	7
351.143	1	-1
352.340	1	12
353.537	1	3
354.734	1	4
355.931	1	5
357.127	1	9
358.324	1	4
359.521	1	3
360.718	1	6
361.914	1	4
363.111	1	17
364.308	1	19
365.504	1	19
366.701	1	11
367.897	1	18
369.093	1	8
370.290	1	22
371.486	1	3
372.682	1	18
373.879	1	12
375.075	1	17
376.271	1	19
377.467	1	13
378.663	1	1
379.859	1	5
381.055	1	12
382.251	1	9
383.447	1	10
384.643	1	4
385.839	1	5
387.035	1	7
388.230	1	2
389.426	1	11
390.622	1	4
391.817	1	9
393.013	1	12
394.208	1	-8
395.404	1	-13
396.599	1	14
397.795	1	-3
398.990	1	-3
400.186	1	0
401.381	1	7
402.576	1	-3
403.771	1	14
404.967	1	-2
406.162	1	-1
407.357	1	5
408.552	1	3
409.747	1	-1
410.942	1	9
412.137	1	1
413.332	1	-4
414.526	1	10
415.721	1	5
416.916	1	7
418.111	1	4
419.305	1	-4
420.500	1	3
421.695	1	5
422.889	1	2
424.084	1	11
425.278	1	-2
426.472	1	3
427.667	1	9
428.861	1	-4
430.055	1	7
431.250	1	5
432.444	1	11
433.638	1	13
434.832	1	2
436.026	1	0
437.220	1	6
438.414	1	0
439.608	1	8
440.802	1	-3
441.996	1	6
443.190	1	5
444.384	1	2
445.578	1	0
446.771	1	11
447.965	1	-1
449.159	1	3
450.352	1	14
451.546	1	17
452.739	1	1
453.933	1	-2
455.126	1	-3
456.320	1	2
457.513	1	-12
458.706	1	10
459.899	1	3
461.093	1	9
462.286	1	10
463.479	1	10
464.672	1	7
465.865	1	-4
467.058	1	2
468.251	1	-3
469.444	1	5
470.637	1	6
471.830	1	9
473.023	1	6
474.215	1	4
475.408	1	9
476.601	1	5
477.793	1	-7
478.986	1	-4
480.179	1	1
481.371	1	19
482.564	1	9
483.756	1	-3
484.948	1	2
486.141	1	3
487.333	1	0
488.525	1	8
489.718	1	5
490.910	1	-11
492.102	1	6
493.294	1	8
494.486	1	19
495.678	1	-1
496.870	1	-2
498.062	1	-4
499.254	1	16
500.446	1	4
501.638	1	4
502.829	1	10
504.021	1	7
505.213	1	-1
506.404	1	2
507.596	1	-7
508.788	1	-3
509.979	1	3
511.171	1	14
512.362	1	4
513.553	1	12
514.745	1	6
515.936	1	13
517.127	1	9
518.319	1	2
519.510	1	0
520.701	1	7
521.892	1	-1
523.083	1	8
524.274	1	0
525.465	1	10
526.656	1	11
527.847	1	-2
529.038	1	8
530.229	1	14
531.419	1	6
532.610	1	11
533.801	1	25
534.991	1	14
536.182	1	11
537.373	1	5
538.563	1	10
539.754	1	0
540.944	1	17
542.134	1	1
543.325	1	10
544.515	1	14
545.705	1	6
546.896	1	2
548.086	1	-4
549.276	1	-7
550.466	1	14
551.656	1	3
552.846	1	-2
554.036	1	9
555.226	1	8
556.416	1	5
557.606	1	1
558.796	1	13
559.986	1	-5
561.175	1	4
562.365	1	17
563.555	1	12
564.744	1	9
565.934	1	8
567.123	1	5
568.313	1	0
569.502	1	10
570.692	1	4
571.881	1	0
573.070	1	3
574.260	1	10
575.449	1	10
576.638	1	-11
577.827	1	9
579.016	1	5
580.205	1	7
581.394	1	2
582.583	1	9
583.772	1	8
584.961	1	0
586.150	1	2
587.339	1	2
588.528	1	8
589.717	1	7
590.905	1	4
592.094	1	4
593.283	1	-8
594.471	1	9
595.660	1	5
596.848	1	12
598.037	1	-6
599.225	1	10
600.413	1	8
601.602	1	-1
602.790	1	4
603.978	1	5
605.166	1	11
606.355	1	10
607.543	1	-1
608.731	1	7
609.919	1	3
611.107	1	9
612.295	1	8
613.483	1	-5
614.671	1	12
615.858	1	-6
617.046	1	16
618.234	1	5
619.422	1	-4
620.609	1	-6
621.797	1	5
622.985	1	8
624.172	1	0
625.360	1	10
626.547	1	-4
627.735	1	14
628.922	1	-1
630.109	1	14
631.297	1	-2
632.484	1	-5
633.671	1	-4
634.858	1	6
636.045	1	21
637.232	1	-5
638.419	1	7
639.606	1	6
640.793	1	-4
641.980	1	1
643.167	1	7
644.354	1	-4
645.541	1	0
646.728	1	7
647.914	1	-1
649.101	1	3
650.288	1	2
651.474	1	2
652.661	1	-5
653.847	1	2
655.034	1	-4
656.220	1	-1
657.406	1	3
658.593	1	-2
659.779	1	0
660.965	1	-4
662.152	1	1
663.338	1	-1
664.524	1	-4
665.710	1	11
666.896	1	3
668.082	1	6
669.268	1	4
670.454	1	-5
671.640	1	-2
672.826	1	7
674.011	1	-2
675.197	1	-4
676.383	1	0
677.569	1	-1
678.754	1	4
679.940	1	1
681.125	1	9
682.311	1	-8
683.496	1	3
684.682	1	8
685.867	1	2
687.053	1	6
688.238	1	10
688.746	1	2

File: GaN_sample F_spot6_UVVIS_130 K_200um_350 ms 2x2mm1_215.txt
340.368	1	7
341.565	1	-3
342.763	1	6
343.960	1	-9
345.157	1	-2
346.354	1	-1
347.552	1	-5
348.749	1	12
349.946	1	-1
351.143	1	-5
352.340	1	11
353.537	1	-4
354.734	1	2
355.931	1	7
357.127	1	4
358.324	1	3
359.521	1	1
360.718	1	13
361.914	1	6
363.111	1	8
364.308	1	18
365.504	1	11
366.701	1	9
367.897	1	13
369.093	1	8
370.290	1	21
371.486	1	14
372.682	1	6
373.879	1	21
375.075	1	18
376.271	1	10
377.467	1	10
378.663	1	13
379.859	1	4
381.055	1	3
382.251	1	6
383.447	1	6
384.643	1	3
385.839	1	10
387.035	1	13
388.230	1	6
389.426	1	14
390.622	1	8
391.817	1	14
393.013	1	16
394.208	1	1
395.404	1	-6
396.599	1	9
397.795	1	-5
398.990	1	5
400.186	1	1
401.381	1	7
402.576	1	7
403.771	1	3
404.967	1	4
406.162	1	2
407.357	1	4
408.552	1	2
409.747	1	3
410.942	1	2
412.137	1	3
413.332	1	1
414.526	1	0
415.721	1	4
416.916	1	-2
418.111	1	7
419.305	1	-4
420.500	1	12
421.695	1	2
422.889	1	1
424.084	1	3
425.278	1	-3
426.472	1	7
427.667	1	11
428.861	1	5
430.055	1	1
431.250	1	4
432.444	1	6
433.638	1	4
434.832	1	3
436.026	1	5
437.220	1	-2
438.414	1	-1
439.608	1	7
440.802	1	-4
441.996	1	11
443.190	1	6
444.384	1	0
445.578	1	-3
446.771	1	10
447.965	1	6
449.159	1	11
450.352	1	15
451.546	1	13
452.739	1	4
453.933	1	15
455.126	1	-9
456.320	1	2
457.513	1	-7
458.706	1	4
459.899	1	-1
461.093	1	8
462.286	1	8
463.479	1	7
464.672	1	13
465.865	1	-8
467.058	1	12
468.251	1	9
469.444	1	2
470.637	1	-2
471.830	1	-5
473.023	1	6
474.215	1	3
475.408	1	2
476.601	1	-3
477.793	1	-7
478.986	1	0
480.179	1	0
481.371	1	8
482.564	1	7
483.756	1	2
484.948	1	1
486.141	1	5
487.333	1	0
488.525	1	3
489.718	1	7
490.910	1	-2
492.102	1	9
493.294	1	7
494.486	1	20
495.678	1	8
496.870	1	8
498.062	1	-1
499.254	1	15
500.446	1	11
501.638	1	10
502.829	1	2
504.021	1	1
505.213	1	11
506.404	1	6
507.596	1	-4
508.788	1	8
509.979	1	1
511.171	1	13
512.362	1	9
513.553	1	10
514.745	1	2
515.936	1	14
517.127	1	5
518.319	1	-1
519.510	1	7
520.701	1	8
521.892	1	2
523.083	1	9
524.274	1	4
525.465	1	3
526.656	1	3
527.847	1	7
529.038	1	-4
530.229	1	8
531.419	1	14
532.610	1	4
533.801	1	13
534.991	1	2
536.182	1	18
537.373	1	12
538.563	1	7
539.754	1	9
540.944	1	14
542.134	1	2
543.325	1	11
544.515	1	-1
545.705	1	1
546.896	1	5
548.086	1	1
549.276	1	0
550.466	1	13
551.656	1	5
552.846	1	4
554.036	1	-2
555.226	1	4
556.416	1	8
557.606	1	7
558.796	1	13
559.986	1	11
561.175	1	9
562.365	1	6
563.555	1	11
564.744	1	4
565.934	1	3
567.123	1	10
568.313	1	-2
569.502	1	4
570.692	1	14
571.881	1	5
573.070	1	5
574.260	1	-5
575.449	1	6
576.638	1	-5
577.827	1	0
579.016	1	6
580.205	1	-5
581.394	1	4
582.583	1	11
583.772	1	1
584.961	1	-5
586.150	1	10
587.339	1	1
588.528	1	10
589.717	1	-8
590.905	1	7
592.094	1	5
593.283	1	-13
594.471	1	9
595.660	1	2
596.848	1	4
598.037	1	8
599.225	1	2
600.413	1	6
601.602	1	1
602.790	1	0
603.978	1	-3
605.166	1	11
606.355	1	7
607.543	1	-3
608.731	1	0
609.919	1	-2
611.107	1	-4
612.295	1	1
613.483	1	-10
614.671	1	12
615.858	1	-1
617.046	1	6
618.234	1	3
619.422	1	3
620.609	1	4
621.797	1	-4
622.985	1	10
624.172	1	1
625.360	1	7
626.547	1	4
627.735	1	11
628.922	1	-9
630.109	1	3
631.297	1	5
632.484	1	-3
633.671	1	-3
634.858	1	3
636.045	1	12
637.232	1	-2
638.419	1	4
639.606	1	5
640.793	1	-7
641.980	1	-5
643.167	1	2
644.354	1	-11
645.541	1	-1
646.728	1	5
647.914	1	-3
649.101	1	-7
650.288	1	13
651.474	1	2
652.661	1	-2
653.847	1	1
655.034	1	1
656.220	1	2
657.406	1	-4
658.593	1	1
659.779	1	3
660.965	1	4
662.152	1	-12
663.338	1	0
664.524	1	-5
665.710	1	15
666.896	1	1
668.082	1	2
669.268	1	-2
670.454	1	7
671.640	1	-6
672.826	1	6
674.011	1	1
675.197	1	-2
676.383	1	11
677.569	1	4
678.754	1	7
679.940	1	5
681.125	1	12
682.311	1	-13
683.496	1	-1
684.682	1	-4
685.867	1	0
687.053	1	13
688.238	1	17
688.746	1	7

File: GaN_sample F_spot6_UVVIS_130 K_200um_350 ms 2x2mm1_216.txt
340.368	1	8
341.565	1	7
342.763	1	9
343.960	1	-3
345.157	1	-12
346.354	1	3
347.552	1	0
348.749	1	0
349.946	1	1
351.143	1	2
352.340	1	11
353.537	1	-11
354.734	1	-3
355.931	1	5
357.127	1	4
358.324	1	-3
359.521	1	-12
360.718	1	2
361.914	1	11
363.111	1	15
364.308	1	19
365.504	1	18
366.701	1	24
367.897	1	15
369.093	1	18
370.290	1	23
371.486	1	13
372.682	1	17
373.879	1	10
375.075	1	13
376.271	1	11
377.467	1	15
378.663	1	3
379.859	1	2
381.055	1	15
382.251	1	0
383.447	1	3
384.643	1	15
385.839	1	9
387.035	1	19
388.230	1	9
389.426	1	13
390.622	1	3
391.817	1	15
393.013	1	6
394.208	1	2
395.404	1	-4
396.599	1	14
397.795	1	9
398.990	1	7
400.186	1	5
401.381	1	11
402.576	1	4
403.771	1	10
404.967	1	7
406.162	1	-2
407.357	1	8
408.552	1	-5
409.747	1	0
410.942	1	0
412.137	1	-1
413.332	1	-4
414.526	1	9
415.721	1	4
416.916	1	7
418.111	1	5
419.305	1	4
420.500	1	1
421.695	1	-1
422.889	1	6
424.084	1	6
425.278	1	6
426.472	1	6
427.667	1	6
428.861	1	2
430.055	1	18
431.250	1	11
432.444	1	7
433.638	1	5
434.832	1	3
436.026	1	13
437.220	1	-2
438.414	1	0
439.608	1	6
440.802	1	-10
441.996	1	15
443.190	1	6
444.384	1	-2
445.578	1	-7
446.771	1	-3
447.965	1	7
449.159	1	2
450.352	1	1
451.546	1	18
452.739	1	8
453.933	1	8
455.126	1	-3
456.320	1	-1
457.513	1	2
458.706	1	6
459.899	1	1
461.093	1	14
462.286	1	7
463.479	1	3
464.672	1	10
465.865	1	-4
467.058	1	8
468.251	1	8
469.444	1	-2
470.637	1	14
471.830	1	4
473.023	1	4
474.215	1	3
475.408	1	14
476.601	1	6
477.793	1	-4
478.986	1	-5
480.179	1	-3
481.371	1	9
482.564	1	-4
483.756	1	3
484.948	1	1
486.141	1	0
487.333	1	1
488.525	1	4
489.718	1	3
490.910	1	-4
492.102	1	15
493.294	1	6
494.486	1	14
495.678	1	1
496.870	1	7
498.062	1	-3
499.254	1	5
500.446	1	1
501.638	1	5
502.829	1	-1
504.021	1	-3
505.213	1	5
506.404	1	-1
507.596	1	1
508.788	1	4
509.979	1	-7
511.171	1	9
512.362	1	2
513.553	1	10
514.745	1	-4
515.936	1	19
517.127	1	4
518.319	1	2
519.510	1	-8
520.701	1	1
521.892	1	14
523.083	1	6
524.274	1	-7
525.465	1	7
526.656	1	6
527.847	1	10
529.038	1	5
530.229	1	10
531.419	1	2
532.610	1	5
533.801	1	18
534.991	1	2
536.182	1	7
537.373	1	14
538.563	1	14
539.754	1	3
540.944	1	14
542.134	1	6
543.325	1	-2
544.515	1	6
545.705	1	6
546.896	1	-4
548.086	1	1
549.276	1	6
550.466	1	10
551.656	1	8
552.846	1	3
554.036	1	6
555.226	1	-1
556.416	1	8
557.606	1	-2
558.796	1	11
559.986	1	12
561.175	1	8
562.365	1	5
563.555	1	6
564.744	1	4
565.934	1	-2
567.123	1	9
568.313	1	0
569.502	1	4
570.692	1	12
571.881	1	1
573.070	1	11
574.260	1	6
575.449	1	11
576.638	1	3
577.827	1	-6
579.016	1	4
580.205	1	-5
581.394	1	2
582.583	1	11
583.772	1	1
584.961	1	0
586.150	1	16
587.339	1	2
588.528	1	9
589.717	1	-11
590.905	1	11
592.094	1	4
593.283	1	-1
594.471	1	7
595.660	1	10
596.848	1	6
598.037	1	7
599.225	1	8
600.413	1	10
601.602	1	-3
602.790	1	2
603.978	1	5
605.166	1	10
606.355	1	2
607.543	1	9
608.731	1	7
609.919	1	10
611.107	1	10
612.295	1	9
613.483	1	-5
614.671	1	5
615.858	1	-9
617.046	1	4
618.234	1	4
619.422	1	8
620.609	1	-7
621.797	1	-5
622.985	1	7
624.172	1	10
625.360	1	5
626.547	1	7
627.735	1	12
628.922	1	-1
630.109	1	10
631.297	1	-1
632.484	1	0
633.671	1	-8
634.858	1	6
636.045	1	11
637.232	1	-7
638.419	1	1
639.606	1	5
640.793	1	-6
641.980	1	-4
643.167	1	10
644.354	1	-5
645.541	1	-6
646.728	1	6
647.914	1	-2
649.101	1	-9
650.288	1	6
651.474	1	1
652.661	1	4
653.847	1	0
655.034	1	-5
656.220	1	-7
657.406	1	1
658.593	1	4
659.779	1	4
660.965	1	3
662.152	1	1
663.338	1	7
664.524	1	-6
665.710	1	4
666.896	1	2
668.082	1	6
669.268	1	3
670.454	1	6
671.640	1	-14
672.826	1	-2
674.011	1	1
675.197	1	1
676.383	1	2
677.569	1	-5
678.754	1	10
679.940	1	6
681.125	1	4
682.311	1	-7
683.496	1	-2
684.682	1	1
685.867	1	4
687.053	1	5
688.238	1	2
688.746	1	8

File: GaN_sample F_spot6_UVVIS_130 K_200um_350 ms 2x2mm1_217.txt
340.368	1	9
341.565	1	-1
342.763	1	1
343.960	1	-8
345.157	1	-11
346.354	1	1
347.552	1	1
348.749	1	8
349.946	1	7
351.143	1	4
352.340	1	8
353.537	1	12
354.734	1	4
355.931	1	9
357.127	1	9
358.324	1	-5
359.521	1	2
360.718	1	15
361.914	1	8
363.111	1	17
364.308	1	11
365.504	1	13
366.701	1	12
367.897	1	13
369.093	1	14
370.290	1	27
371.486	1	5
372.682	1	7
373.879	1	17
375.075	1	15
376.271	1	13
377.467	1	15
378.663	1	12
379.859	1	7
381.055	1	12
382.251	1	8
383.447	1	7
384.643	1	8
385.839	1	13
387.035	1	14
388.230	1	1
389.426	1	16
390.622	1	8
391.817	1	7
393.013	1	3
394.208	1	1
395.404	1	-6
396.599	1	11
397.795	1	3
398.990	1	0
400.186	1	1
401.381	1	14
402.576	1	2
403.771	1	8
404.967	1	5
406.162	1	-1
407.357	1	8
408.552	1	1
409.747	1	6
410.942	1	7
412.137	1	-5
413.332	1	0
414.526	1	5
415.721	1	12
416.916	1	0
418.111	1	2
419.305	1	0
420.500	1	2
421.695	1	-9
422.889	1	3
424.084	1	7
425.278	1	9
426.472	1	3
427.667	1	13
428.861	1	0
430.055	1	-7
431.250	1	9
432.444	1	13
433.638	1	1
434.832	1	3
436.026	1	5
437.220	1	-3
438.414	1	-4
439.608	1	16
440.802	1	-7
441.996	1	11
443.190	1	6
444.384	1	-5
445.578	1	-4
446.771	1	10
447.965	1	6
449.159	1	2
450.352	1	10
451.546	1	10
452.739	1	7
453.933	1	7
455.126	1	-3
456.320	1	0
457.513	1	-3
458.706	1	6
459.899	1	5
461.093	1	7
462.286	1	6
463.479	1	9
464.672	1	7
465.865	1	-3
467.058	1	1
468.251	1	9
469.444	1	1
470.637	1	12
471.830	1	2
473.023	1	6
474.215	1	5
475.408	1	3
476.601	1	-1
477.793	1	0
478.986	1	5
480.179	1	0
481.371	1	5
482.564	1	0
483.756	1	-5
484.948	1	-1
486.141	1	0
487.333	1	-1
488.525	1	5
489.718	1	5
490.910	1	-8
492.102	1	6
493.294	1	9
494.486	1	14
495.678	1	-5
496.870	1	1
498.062	1	7
499.254	1	9
500.446	1	2
501.638	1	-2
502.829	1	10
504.021	1	2
505.213	1	3
506.404	1	2
507.596	1	7
508.788	1	1
509.979	1	1
511.171	1	11
512.362	1	-2
513.553	1	4
514.745	1	8
515.936	1	17
517.127	1	6
518.319	1	0
519.510	1	2
520.701	1	-9
521.892	1	10
523.083	1	-7
524.274	1	7
525.465	1	5
526.656	1	13
527.847	1	-2
529.038	1	-2
530.229	1	5
531.419	1	4
532.610	1	5
533.801	1	20
534.991	1	11
536.182	1	11
537.373	1	10
538.563	1	0
539.754	1	11
540.944	1	7
542.134	1	4
543.325	1	8
544.515	1	10
545.705	1	8
546.896	1	6
548.086	1	6
549.276	1	2
550.466	1	9
551.656	1	3
552.846	1	3
554.036	1	4
555.226	1	13
556.416	1	2
557.606	1	3
558.796	1	11
559.986	1	1
561.175	1	10
562.365	1	11
563.555	1	18
564.744	1	8
565.934	1	1
567.123	1	0
568.313	1	-1
569.502	1	4
570.692	1	11
571.881	1	8
573.070	1	3
574.260	1	5
575.449	1	8
576.638	1	3
577.827	1	-4
579.016	1	5
580.205	1	6
581.394	1	-2
582.583	1	6
583.772	1	6
584.961	1	2
586.150	1	3
587.339	1	3
588.528	1	6
589.717	1	-3
590.905	1	9
592.094	1	-2
593.283	1	-10
594.471	1	7
595.660	1	0
596.848	1	7
598.037	1	2
599.225	1	10
600.413	1	10
601.602	1	3
602.790	1	-1
603.978	1	2
605.166	1	5
606.355	1	6
607.543	1	0
608.731	1	8
609.919	1	14
611.107	1	5
612.295	1	9
613.483	1	-4
614.671	1	9
615.858	1	-1
617.046	1	8
618.234	1	4
619.422	1	5
620.609	1	1
621.797	1	4
622.985	1	5
624.172	1	0
625.360	1	7
626.547	1	5
627.735	1	8
628.922	1	-3
630.109	1	12
631.297	1	3
632.484	1	-1
633.671	1	0
634.858	1	13
636.045	1	10
637.232	1	-3
638.419	1	4
639.606	1	6
640.793	1	0
641.980	1	6
643.167	1	-4
644.354	1	0
645.541	1	-7
646.728	1	9
647.914	1	-4
649.101	1	-1
650.288	1	4
651.474	1	-2
652.661	1	0
653.847	1	0
655.034	1	-1
656.220	1	1
657.406	1	8
658.593	1	6
659.779	1	2
660.965	1	2
662.152	1	10
663.338	1	9
664.524	1	-4
665.710	1	3
666.896	1	5
668.082	1	8
669.268	1	-1
670.454	1	-2
671.640	1	-4
672.826	1	4
674.011	1	4
675.197	1	5
676.383	1	12
677.569	1	3
678.754	1	9
679.940	1	-5
681.125	1	12
682.311	1	-12
683.496	1	0
684.682	1	1
685.867	1	5
687.053	1	-2
688.238	1	14
688.746	1	4