Folder: cryo-il_analysis/Data/GaN_150K_450ms (part 33)

File: GaN_sample D_spot15_UVVIS_150 K_200um_450 ms 2x2mm1_334.txt
340.368	1	-5
341.565	1	5
342.763	1	-9
343.960	1	2
345.157	1	6
346.354	1	9
347.552	1	11
348.749	1	10
349.946	1	-6
351.143	1	4
352.340	1	7
353.537	1	-6
354.734	1	12
355.931	1	10
357.127	1	6
358.324	1	-3
359.521	1	7
360.718	1	0
361.914	1	4
363.111	1	-9
364.308	1	4
365.504	1	4
366.701	1	1
367.897	1	10
369.093	1	9
370.290	1	12
371.486	1	15
372.682	1	8
373.879	1	0
375.075	1	-4
376.271	1	1
377.467	1	12
378.663	1	5
379.859	1	-2
381.055	1	6
382.251	1	-3
383.447	1	3
384.643	1	5
385.839	1	1
387.035	1	4
388.230	1	7
389.426	1	-4
390.622	1	0
391.817	1	-3
393.013	1	12
394.208	1	0
395.404	1	4
396.599	1	-1
397.795	1	-5
398.990	1	3
400.186	1	-2
401.381	1	-8
402.576	1	3
403.771	1	-8
404.967	1	7
406.162	1	-5
407.357	1	7
408.552	1	2
409.747	1	2
410.942	1	2
412.137	1	-15
413.332	1	8
414.526	1	-13
415.721	1	4
416.916	1	1
418.111	1	0
419.305	1	6
420.500	1	15
421.695	1	5
422.889	1	-5
424.084	1	6
425.278	1	-2
426.472	1	2
427.667	1	-1
428.861	1	2
430.055	1	6
431.250	1	2
432.444	1	0
433.638	1	8
434.832	1	-3
436.026	1	-5
437.220	1	4
438.414	1	11
439.608	1	-5
440.802	1	5
441.996	1	-4
443.190	1	4
444.384	1	3
445.578	1	-6
446.771	1	-5
447.965	1	1
449.159	1	0
450.352	1	4
451.546	1	0
452.739	1	8
453.933	1	-1
455.126	1	3
456.320	1	8
457.513	1	-2
458.706	1	11
459.899	1	1
461.093	1	14
462.286	1	-3
463.479	1	3
464.672	1	-3
465.865	1	-1
467.058	1	3
468.251	1	0
469.444	1	2
470.637	1	1
471.830	1	7
473.023	1	3
474.215	1	5
475.408	1	-1
476.601	1	0
477.793	1	11
478.986	1	1
480.179	1	8
481.371	1	-12
482.564	1	0
483.756	1	3
484.948	1	3
486.141	1	2
487.333	1	-13
488.525	1	-1
489.718	1	-8
490.910	1	-4
492.102	1	-1
493.294	1	-7
494.486	1	-8
495.678	1	-3
496.870	1	3
498.062	1	-6
499.254	1	-5
500.446	1	-3
501.638	1	3
502.829	1	-3
504.021	1	0
505.213	1	-2
506.404	1	6
507.596	1	10
508.788	1	3
509.979	1	-1
511.171	1	4
512.362	1	5
513.553	1	14
514.745	1	-3
515.936	1	-1
517.127	1	7
518.319	1	-2
519.510	1	-8
520.701	1	5
521.892	1	2
523.083	1	4
524.274	1	2
525.465	1	3
526.656	1	1
527.847	1	-7
529.038	1	-4
530.229	1	6
531.419	1	-1
532.610	1	7
533.801	1	5
534.991	1	2
536.182	1	-2
537.373	1	-4
538.563	1	-4
539.754	1	4
540.944	1	2
542.134	1	5
543.325	1	8
544.515	1	0
545.705	1	4
546.896	1	8
548.086	1	1
549.276	1	10
550.466	1	-1
551.656	1	2
552.846	1	-1
554.036	1	9
555.226	1	1
556.416	1	0
557.606	1	-19
558.796	1	9
559.986	1	9
561.175	1	1
562.365	1	-3
563.555	1	8
564.744	1	18
565.934	1	11
567.123	1	12
568.313	1	2
569.502	1	9
570.692	1	5
571.881	1	1
573.070	1	3
574.260	1	7
575.449	1	-8
576.638	1	12
577.827	1	1
579.016	1	1
580.205	1	4
581.394	1	-1
582.583	1	0
583.772	1	14
584.961	1	-4
586.150	1	-3
587.339	1	-1
588.528	1	3
589.717	1	5
590.905	1	-7
592.094	1	5
593.283	1	5
594.471	1	-3
595.660	1	13
596.848	1	4
598.037	1	4
599.225	1	2
600.413	1	-5
601.602	1	13
602.790	1	0
603.978	1	-7
605.166	1	-3
606.355	1	-8
607.543	1	4
608.731	1	-11
609.919	1	-5
611.107	1	9
612.295	1	-1
613.483	1	4
614.671	1	8
615.858	1	-10
617.046	1	2
618.234	1	-6
619.422	1	11
620.609	1	-5
621.797	1	0
622.985	1	1
624.172	1	0
625.360	1	4
626.547	1	-5
627.735	1	3
628.922	1	4
630.109	1	-2
631.297	1	11
632.484	1	2
633.671	1	0
634.858	1	6
636.045	1	-2
637.232	1	1
638.419	1	-2
639.606	1	9
640.793	1	5
641.980	1	5
643.167	1	1
644.354	1	8
645.541	1	3
646.728	1	3
647.914	1	3
649.101	1	3
650.288	1	8
651.474	1	9
652.661	1	3
653.847	1	16
655.034	1	-1
656.220	1	-3
657.406	1	3
658.593	1	6
659.779	1	3
660.965	1	4
662.152	1	4
663.338	1	-5
664.524	1	3
665.710	1	3
666.896	1	10
668.082	1	-6
669.268	1	-11
670.454	1	6
671.640	1	9
672.826	1	-7
674.011	1	-2
675.197	1	2
676.383	1	3
677.569	1	7
678.754	1	-3
679.940	1	-1
681.125	1	-3
682.311	1	9
683.496	1	-4
684.682	1	3
685.867	1	0
687.053	1	13
688.238	1	3
688.746	1	5

File: GaN_sample D_spot15_UVVIS_150 K_200um_450 ms 2x2mm1_335.txt
340.368	1	-6
341.565	1	3
342.763	1	4
343.960	1	1
345.157	1	17
346.354	1	4
347.552	1	11
348.749	1	8
349.946	1	-2
351.143	1	0
352.340	1	5
353.537	1	-2
354.734	1	-1
355.931	1	4
357.127	1	6
358.324	1	9
359.521	1	12
360.718	1	-3
361.914	1	17
363.111	1	4
364.308	1	9
365.504	1	6
366.701	1	-2
367.897	1	0
369.093	1	13
370.290	1	17
371.486	1	11
372.682	1	4
373.879	1	10
375.075	1	1
376.271	1	-2
377.467	1	17
378.663	1	13
379.859	1	-3
381.055	1	-1
382.251	1	-7
383.447	1	-2
384.643	1	2
385.839	1	-3
387.035	1	5
388.230	1	-6
389.426	1	-6
390.622	1	-1
391.817	1	-7
393.013	1	4
394.208	1	-5
395.404	1	7
396.599	1	10
397.795	1	1
398.990	1	8
400.186	1	6
401.381	1	-5
402.576	1	1
403.771	1	-10
404.967	1	3
406.162	1	-3
407.357	1	3
408.552	1	-5
409.747	1	-4
410.942	1	8
412.137	1	2
413.332	1	7
414.526	1	-2
415.721	1	0
416.916	1	-1
418.111	1	3
419.305	1	1
420.500	1	12
421.695	1	5
422.889	1	3
424.084	1	10
425.278	1	2
426.472	1	9
427.667	1	-4
428.861	1	9
430.055	1	7
431.250	1	7
432.444	1	1
433.638	1	1
434.832	1	-4
436.026	1	-2
437.220	1	7
438.414	1	13
439.608	1	-1
440.802	1	2
441.996	1	-7
443.190	1	4
444.384	1	2
445.578	1	-2
446.771	1	0
447.965	1	-3
449.159	1	-11
450.352	1	-3
451.546	1	-6
452.739	1	-5
453.933	1	-7
455.126	1	4
456.320	1	10
457.513	1	3
458.706	1	9
459.899	1	-1
461.093	1	8
462.286	1	0
463.479	1	-4
464.672	1	4
465.865	1	5
467.058	1	3
468.251	1	-4
469.444	1	3
470.637	1	-2
471.830	1	4
473.023	1	6
474.215	1	2
475.408	1	2
476.601	1	2
477.793	1	0
478.986	1	3
480.179	1	11
481.371	1	-2
482.564	1	5
483.756	1	7
484.948	1	4
486.141	1	11
487.333	1	-2
488.525	1	-3
489.718	1	-5
490.910	1	2
492.102	1	3
493.294	1	-3
494.486	1	-8
495.678	1	-5
496.870	1	-12
498.062	1	2
499.254	1	6
500.446	1	-8
501.638	1	5
502.829	1	-7
504.021	1	5
505.213	1	-5
506.404	1	2
507.596	1	13
508.788	1	-1
509.979	1	-4
511.171	1	8
512.362	1	9
513.553	1	1
514.745	1	-9
515.936	1	5
517.127	1	5
518.319	1	-4
519.510	1	-8
520.701	1	4
521.892	1	-1
523.083	1	-1
524.274	1	8
525.465	1	15
526.656	1	9
527.847	1	-14
529.038	1	-5
530.229	1	9
531.419	1	0
532.610	1	-5
533.801	1	1
534.991	1	4
536.182	1	-2
537.373	1	-2
538.563	1	-3
539.754	1	-4
540.944	1	8
542.134	1	-5
543.325	1	7
544.515	1	4
545.705	1	-4
546.896	1	1
548.086	1	1
549.276	1	1
550.466	1	-1
551.656	1	4
552.846	1	1
554.036	1	16
555.226	1	2
556.416	1	8
557.606	1	-11
558.796	1	6
559.986	1	7
561.175	1	6
562.365	1	8
563.555	1	-7
564.744	1	12
565.934	1	17
567.123	1	5
568.313	1	6
569.502	1	2
570.692	1	6
571.881	1	-4
573.070	1	4
574.260	1	5
575.449	1	-3
576.638	1	-1
577.827	1	-9
579.016	1	3
580.205	1	1
581.394	1	-3
582.583	1	8
583.772	1	9
584.961	1	-12
586.150	1	11
587.339	1	-3
588.528	1	-7
589.717	1	2
590.905	1	-2
592.094	1	1
593.283	1	4
594.471	1	-6
595.660	1	6
596.848	1	4
598.037	1	3
599.225	1	-6
600.413	1	-5
601.602	1	3
602.790	1	-3
603.978	1	-2
605.166	1	4
606.355	1	-15
607.543	1	-6
608.731	1	-5
609.919	1	-12
611.107	1	15
612.295	1	11
613.483	1	-4
614.671	1	-6
615.858	1	-6
617.046	1	1
618.234	1	-2
619.422	1	17
620.609	1	0
621.797	1	5
622.985	1	-2
624.172	1	4
625.360	1	7
626.547	1	-1
627.735	1	6
628.922	1	6
630.109	1	-6
631.297	1	-6
632.484	1	1
633.671	1	7
634.858	1	3
636.045	1	-7
637.232	1	-4
638.419	1	-1
639.606	1	7
640.793	1	-3
641.980	1	13
643.167	1	2
644.354	1	13
645.541	1	0
646.728	1	6
647.914	1	6
649.101	1	-8
650.288	1	8
651.474	1	3
652.661	1	4
653.847	1	8
655.034	1	-2
656.220	1	5
657.406	1	-6
658.593	1	2
659.779	1	6
660.965	1	-4
662.152	1	9
663.338	1	-6
664.524	1	4
665.710	1	0
666.896	1	3
668.082	1	4
669.268	1	8
670.454	1	-3
671.640	1	15
672.826	1	3
674.011	1	5
675.197	1	10
676.383	1	6
677.569	1	9
678.754	1	-4
679.940	1	-7
681.125	1	0
682.311	1	6
683.496	1	8
684.682	1	5
685.867	1	-4
687.053	1	15
688.238	1	4
688.746	1	3

File: GaN_sample D_spot15_UVVIS_150 K_200um_450 ms 2x2mm1_338.txt
340.368	1	5
341.565	1	2
342.763	1	2
343.960	1	3
345.157	1	12
346.354	1	5
347.552	1	17
348.749	1	7
349.946	1	1
351.143	1	-3
352.340	1	12
353.537	1	-5
354.734	1	5
355.931	1	1
357.127	1	0
358.324	1	7
359.521	1	4
360.718	1	-2
361.914	1	0
363.111	1	2
364.308	1	6
365.504	1	6
366.701	1	3
367.897	1	5
369.093	1	16
370.290	1	11
371.486	1	13
372.682	1	5
373.879	1	7
375.075	1	0
376.271	1	-3
377.467	1	14
378.663	1	9
379.859	1	-1
381.055	1	-3
382.251	1	-14
383.447	1	-4
384.643	1	-1
385.839	1	5
387.035	1	17
388.230	1	-1
389.426	1	-6
390.622	1	-7
391.817	1	-8
393.013	1	6
394.208	1	7
395.404	1	14
396.599	1	-3
397.795	1	-4
398.990	1	2
400.186	1	7
401.381	1	-1
402.576	1	6
403.771	1	-7
404.967	1	8
406.162	1	1
407.357	1	-4
408.552	1	-11
409.747	1	-4
410.942	1	8
412.137	1	-9
413.332	1	3
414.526	1	-1
415.721	1	5
416.916	1	5
418.111	1	3
419.305	1	12
420.500	1	6
421.695	1	5
422.889	1	-2
424.084	1	6
425.278	1	-2
426.472	1	17
427.667	1	-2
428.861	1	8
430.055	1	8
431.250	1	8
432.444	1	6
433.638	1	7
434.832	1	3
436.026	1	-9
437.220	1	4
438.414	1	7
439.608	1	-4
440.802	1	-4
441.996	1	5
443.190	1	2
444.384	1	14
445.578	1	2
446.771	1	2
447.965	1	3
449.159	1	-5
450.352	1	-5
451.546	1	1
452.739	1	7
453.933	1	-2
455.126	1	2
456.320	1	1
457.513	1	-8
458.706	1	7
459.899	1	2
461.093	1	-2
462.286	1	-3
463.479	1	-1
464.672	1	1
465.865	1	-7
467.058	1	2
468.251	1	-3
469.444	1	-1
470.637	1	-1
471.830	1	-2
473.023	1	5
474.215	1	-4
475.408	1	1
476.601	1	-3
477.793	1	-3
478.986	1	7
480.179	1	15
481.371	1	-6
482.564	1	3
483.756	1	1
484.948	1	-1
486.141	1	4
487.333	1	1
488.525	1	-3
489.718	1	-4
490.910	1	3
492.102	1	5
493.294	1	-11
494.486	1	6
495.678	1	0
496.870	1	2
498.062	1	1
499.254	1	-9
500.446	1	-3
501.638	1	0
502.829	1	0
504.021	1	3
505.213	1	0
506.404	1	4
507.596	1	3
508.788	1	9
509.979	1	-5
511.171	1	0
512.362	1	8
513.553	1	4
514.745	1	-3
515.936	1	4
517.127	1	9
518.319	1	0
519.510	1	-19
520.701	1	5
521.892	1	7
523.083	1	1
524.274	1	0
525.465	1	15
526.656	1	-2
527.847	1	-9
529.038	1	2
530.229	1	4
531.419	1	-1
532.610	1	17
533.801	1	-1
534.991	1	-3
536.182	1	0
537.373	1	11
538.563	1	-7
539.754	1	-7
540.944	1	6
542.134	1	-6
543.325	1	4
544.515	1	7
545.705	1	-4
546.896	1	-1
548.086	1	4
549.276	1	5
550.466	1	-1
551.656	1	4
552.846	1	-2
554.036	1	7
555.226	1	-1
556.416	1	13
557.606	1	-8
558.796	1	10
559.986	1	4
561.175	1	-3
562.365	1	-2
563.555	1	5
564.744	1	4
565.934	1	6
567.123	1	4
568.313	1	10
569.502	1	-3
570.692	1	-1
571.881	1	0
573.070	1	3
574.260	1	-1
575.449	1	-2
576.638	1	4
577.827	1	-5
579.016	1	0
580.205	1	-4
581.394	1	2
582.583	1	-6
583.772	1	5
584.961	1	-7
586.150	1	5
587.339	1	0
588.528	1	-4
589.717	1	-2
590.905	1	-7
592.094	1	4
593.283	1	2
594.471	1	-2
595.660	1	6
596.848	1	8
598.037	1	-5
599.225	1	4
600.413	1	0
601.602	1	4
602.790	1	-7
603.978	1	-2
605.166	1	-1
606.355	1	-12
607.543	1	5
608.731	1	-7
609.919	1	-13
611.107	1	-1
612.295	1	1
613.483	1	0
614.671	1	2
615.858	1	-6
617.046	1	-9
618.234	1	-4
619.422	1	4
620.609	1	-3
621.797	1	4
622.985	1	2
624.172	1	-3
625.360	1	4
626.547	1	0
627.735	1	7
628.922	1	3
630.109	1	-5
631.297	1	-3
632.484	1	10
633.671	1	0
634.858	1	7
636.045	1	7
637.232	1	10
638.419	1	1
639.606	1	8
640.793	1	1
641.980	1	1
643.167	1	-5
644.354	1	10
645.541	1	2
646.728	1	10
647.914	1	-1
649.101	1	0
650.288	1	-1
651.474	1	9
652.661	1	8
653.847	1	-2
655.034	1	-8
656.220	1	10
657.406	1	-4
658.593	1	-4
659.779	1	12
660.965	1	-1
662.152	1	6
663.338	1	-5
664.524	1	16
665.710	1	1
666.896	1	-2
668.082	1	1
669.268	1	-9
670.454	1	3
671.640	1	3
672.826	1	-7
674.011	1	2
675.197	1	1
676.383	1	-4
677.569	1	12
678.754	1	4
679.940	1	1
681.125	1	2
682.311	1	9
683.496	1	-3
684.682	1	-3
685.867	1	5
687.053	1	12
688.238	1	-1
688.746	1	-4

File: GaN_sample D_spot15_UVVIS_150 K_200um_450 ms 2x2mm1_339.txt
340.368	1	4
341.565	1	-2
342.763	1	-3
343.960	1	8
345.157	1	20
346.354	1	-3
347.552	1	5
348.749	1	10
349.946	1	0
351.143	1	4
352.340	1	7
353.537	1	-6
354.734	1	-3
355.931	1	4
357.127	1	11
358.324	1	2
359.521	1	5
360.718	1	5
361.914	1	7
363.111	1	-6
364.308	1	2
365.504	1	-4
366.701	1	-3
367.897	1	4
369.093	1	17
370.290	1	5
371.486	1	7
372.682	1	15
373.879	1	11
375.075	1	-4
376.271	1	3
377.467	1	15
378.663	1	5
379.859	1	9
381.055	1	4
382.251	1	-8
383.447	1	5
384.643	1	-6
385.839	1	0
387.035	1	4
388.230	1	5
389.426	1	1
390.622	1	-6
391.817	1	1
393.013	1	11
394.208	1	-2
395.404	1	1
396.599	1	-12
397.795	1	-1
398.990	1	13
400.186	1	-2
401.381	1	-6
402.576	1	6
403.771	1	-3
404.967	1	-2
406.162	1	-7
407.357	1	4
408.552	1	-4
409.747	1	1
410.942	1	6
412.137	1	-6
413.332	1	4
414.526	1	-2
415.721	1	-2
416.916	1	3
418.111	1	3
419.305	1	9
420.500	1	-1
421.695	1	6
422.889	1	4
424.084	1	-1
425.278	1	2
426.472	1	8
427.667	1	0
428.861	1	12
430.055	1	5
431.250	1	-4
432.444	1	0
433.638	1	4
434.832	1	3
436.026	1	-8
437.220	1	8
438.414	1	8
439.608	1	-1
440.802	1	-1
441.996	1	-6
443.190	1	4
444.384	1	10
445.578	1	-9
446.771	1	9
447.965	1	3
449.159	1	-4
450.352	1	-1
451.546	1	6
452.739	1	6
453.933	1	-6
455.126	1	3
456.320	1	4
457.513	1	-10
458.706	1	5
459.899	1	-7
461.093	1	2
462.286	1	-4
463.479	1	3
464.672	1	6
465.865	1	3
467.058	1	0
468.251	1	0
469.444	1	-1
470.637	1	8
471.830	1	4
473.023	1	4
474.215	1	-7
475.408	1	-1
476.601	1	0
477.793	1	3
478.986	1	8
480.179	1	5
481.371	1	-7
482.564	1	-3
483.756	1	5
484.948	1	1
486.141	1	2
487.333	1	-13
488.525	1	-3
489.718	1	-3
490.910	1	-3
492.102	1	3
493.294	1	-8
494.486	1	4
495.678	1	-3
496.870	1	7
498.062	1	0
499.254	1	-1
500.446	1	-14
501.638	1	2
502.829	1	-3
504.021	1	7
505.213	1	0
506.404	1	2
507.596	1	15
508.788	1	4
509.979	1	3
511.171	1	6
512.362	1	5
513.553	1	12
514.745	1	3
515.936	1	3
517.127	1	4
518.319	1	2
519.510	1	-13
520.701	1	3
521.892	1	-3
523.083	1	-2
524.274	1	4
525.465	1	15
526.656	1	5
527.847	1	-9
529.038	1	4
530.229	1	7
531.419	1	-5
532.610	1	4
533.801	1	13
534.991	1	1
536.182	1	-1
537.373	1	3
538.563	1	-1
539.754	1	3
540.944	1	5
542.134	1	-2
543.325	1	5
544.515	1	6
545.705	1	0
546.896	1	-1
548.086	1	-2
549.276	1	0
550.466	1	-1
551.656	1	1
552.846	1	8
554.036	1	7
555.226	1	3
556.416	1	11
557.606	1	-8
558.796	1	1
559.986	1	6
561.175	1	0
562.365	1	0
563.555	1	12
564.744	1	11
565.934	1	12
567.123	1	0
568.313	1	-5
569.502	1	6
570.692	1	4
571.881	1	-6
573.070	1	-3
574.260	1	-2
575.449	1	-5
576.638	1	17
577.827	1	1
579.016	1	-1
580.205	1	-3
581.394	1	-2
582.583	1	2
583.772	1	8
584.961	1	-3
586.150	1	3
587.339	1	0
588.528	1	-1
589.717	1	-3
590.905	1	-2
592.094	1	9
593.283	1	5
594.471	1	-12
595.660	1	10
596.848	1	3
598.037	1	2
599.225	1	-4
600.413	1	2
601.602	1	5
602.790	1	0
603.978	1	-9
605.166	1	-3
606.355	1	-4
607.543	1	7
608.731	1	-2
609.919	1	-9
611.107	1	7
612.295	1	-7
613.483	1	-2
614.671	1	-4
615.858	1	-10
617.046	1	-2
618.234	1	-5
619.422	1	14
620.609	1	4
621.797	1	-7
622.985	1	-4
624.172	1	10
625.360	1	-6
626.547	1	-2
627.735	1	0
628.922	1	4
630.109	1	-6
631.297	1	6
632.484	1	6
633.671	1	7
634.858	1	2
636.045	1	-6
637.232	1	3
638.419	1	1
639.606	1	8
640.793	1	2
641.980	1	0
643.167	1	7
644.354	1	11
645.541	1	4
646.728	1	5
647.914	1	2
649.101	1	-2
650.288	1	-4
651.474	1	9
652.661	1	14
653.847	1	4
655.034	1	-5
656.220	1	7
657.406	1	-4
658.593	1	4
659.779	1	3
660.965	1	6
662.152	1	8
663.338	1	-6
664.524	1	2
665.710	1	12
666.896	1	-4
668.082	1	12
669.268	1	4
670.454	1	3
671.640	1	-4
672.826	1	-6
674.011	1	-2
675.197	1	6
676.383	1	-7
677.569	1	6
678.754	1	2
679.940	1	-4
681.125	1	-1
682.311	1	6
683.496	1	0
684.682	1	5
685.867	1	-1
687.053	1	15
688.238	1	8
688.746	1	5

File: GaN_sample D_spot15_UVVIS_150 K_200um_450 ms 2x2mm1_348.txt
340.368	1	-2
341.565	1	-3
342.763	1	-5
343.960	1	-2
345.157	1	7
346.354	1	-2
347.552	1	8
348.749	1	10
349.946	1	-8
351.143	1	-3
352.340	1	3
353.537	1	-10
354.734	1	6
355.931	1	4
357.127	1	4
358.324	1	-1
359.521	1	9
360.718	1	-1
361.914	1	1
363.111	1	-12
364.308	1	-5
365.504	1	-6
366.701	1	-12
367.897	1	3
369.093	1	7
370.290	1	2
371.486	1	9
372.682	1	-2
373.879	1	4
375.075	1	-12
376.271	1	1
377.467	1	12
378.663	1	8
379.859	1	-1
381.055	1	-1
382.251	1	-7
383.447	1	-1
384.643	1	-6
385.839	1	2
387.035	1	6
388.230	1	-3
389.426	1	-3
390.622	1	-5
391.817	1	-10
393.013	1	-2
394.208	1	2
395.404	1	-5
396.599	1	-4
397.795	1	-2
398.990	1	7
400.186	1	7
401.381	1	-1
402.576	1	-5
403.771	1	-8
404.967	1	-2
406.162	1	-1
407.357	1	7
408.552	1	-7
409.747	1	-1
410.942	1	3
412.137	1	-9
413.332	1	5
414.526	1	-8
415.721	1	-4
416.916	1	0
418.111	1	-1
419.305	1	3
420.500	1	0
421.695	1	5
422.889	1	3
424.084	1	4
425.278	1	1
426.472	1	6
427.667	1	-2
428.861	1	4
430.055	1	8
431.250	1	2
432.444	1	0
433.638	1	-6
434.832	1	-5
436.026	1	-7
437.220	1	2
438.414	1	8
439.608	1	-18
440.802	1	-4
441.996	1	-5
443.190	1	8
444.384	1	4
445.578	1	-3
446.771	1	-6
447.965	1	-2
449.159	1	2
450.352	1	-3
451.546	1	-7
452.739	1	2
453.933	1	-12
455.126	1	4
456.320	1	1
457.513	1	-9
458.706	1	11
459.899	1	1
461.093	1	4
462.286	1	-11
463.479	1	3
464.672	1	-1
465.865	1	-8
467.058	1	4
468.251	1	-8
469.444	1	1
470.637	1	-3
471.830	1	-9
473.023	1	2
474.215	1	-2
475.408	1	8
476.601	1	1
477.793	1	-7
478.986	1	-4
480.179	1	7
481.371	1	-9
482.564	1	3
483.756	1	4
484.948	1	2
486.141	1	-10
487.333	1	-12
488.525	1	-4
489.718	1	-8
490.910	1	-6
492.102	1	3
493.294	1	-8
494.486	1	2
495.678	1	-9
496.870	1	6
498.062	1	0
499.254	1	-4
500.446	1	-3
501.638	1	-4
502.829	1	-3
504.021	1	-1
505.213	1	-13
506.404	1	1
507.596	1	7
508.788	1	4
509.979	1	2
511.171	1	1
512.362	1	-6
513.553	1	2
514.745	1	-7
515.936	1	-7
517.127	1	2
518.319	1	8
519.510	1	-8
520.701	1	-5
521.892	1	4
523.083	1	-6
524.274	1	-4
525.465	1	9
526.656	1	0
527.847	1	-18
529.038	1	6
530.229	1	5
531.419	1	3
532.610	1	1
533.801	1	0
534.991	1	-6
536.182	1	-2
537.373	1	-4
538.563	1	-1
539.754	1	-4
540.944	1	2
542.134	1	-7
543.325	1	0
544.515	1	-7
545.705	1	-4
546.896	1	1
548.086	1	5
549.276	1	10
550.466	1	-5
551.656	1	-4
552.846	1	-7
554.036	1	10
555.226	1	3
556.416	1	4
557.606	1	-13
558.796	1	-4
559.986	1	3
561.175	1	-4
562.365	1	-4
563.555	1	-1
564.744	1	1
565.934	1	10
567.123	1	-4
568.313	1	1
569.502	1	-6
570.692	1	3
571.881	1	-5
573.070	1	7
574.260	1	-1
575.449	1	-5
576.638	1	4
577.827	1	-4
579.016	1	-7
580.205	1	2
581.394	1	-2
582.583	1	3
583.772	1	8
584.961	1	-15
586.150	1	5
587.339	1	0
588.528	1	-3
589.717	1	1
590.905	1	-1
592.094	1	-2
593.283	1	6
594.471	1	-5
595.660	1	2
596.848	1	1
598.037	1	-3
599.225	1	0
600.413	1	-1
601.602	1	10
602.790	1	-4
603.978	1	-7
605.166	1	2
606.355	1	-12
607.543	1	4
608.731	1	-15
609.919	1	-9
611.107	1	7
612.295	1	-4
613.483	1	-1
614.671	1	3
615.858	1	-6
617.046	1	0
618.234	1	-7
619.422	1	14
620.609	1	-14
621.797	1	-2
622.985	1	-8
624.172	1	5
625.360	1	-8
626.547	1	-9
627.735	1	-2
628.922	1	2
630.109	1	-7
631.297	1	-1
632.484	1	6
633.671	1	2
634.858	1	2
636.045	1	-6
637.232	1	-1
638.419	1	-5
639.606	1	3
640.793	1	2
641.980	1	3
643.167	1	-2
644.354	1	8
645.541	1	-2
646.728	1	-6
647.914	1	2
649.101	1	-6
650.288	1	6
651.474	1	-2
652.661	1	2
653.847	1	-2
655.034	1	-11
656.220	1	2
657.406	1	-10
658.593	1	-5
659.779	1	2
660.965	1	3
662.152	1	-1
663.338	1	-7
664.524	1	3
665.710	1	0
666.896	1	3
668.082	1	3
669.268	1	-1
670.454	1	9
671.640	1	4
672.826	1	-5
674.011	1	5
675.197	1	-7
676.383	1	-4
677.569	1	13
678.754	1	-1
679.940	1	-5
681.125	1	-5
682.311	1	1
683.496	1	-4
684.682	1	-6
685.867	1	-11
687.053	1	11
688.238	1	-4
688.746	1	-9

File: GaN_sample D_spot15_UVVIS_150 K_200um_450 ms 2x2mm1_349.txt
340.368	1	-5
341.565	1	0
342.763	1	1
343.960	1	2
345.157	1	10
346.354	1	-3
347.552	1	3
348.749	1	3
349.946	1	-7
351.143	1	-6
352.340	1	1
353.537	1	-5
354.734	1	2
355.931	1	-2
357.127	1	5
358.324	1	-1
359.521	1	6
360.718	1	-5
361.914	1	-1
363.111	1	-9
364.308	1	4
365.504	1	-1
366.701	1	-9
367.897	1	0
369.093	1	0
370.290	1	-3
371.486	1	3
372.682	1	-3
373.879	1	2
375.075	1	-11
376.271	1	-1
377.467	1	13
378.663	1	-8
379.859	1	-3
381.055	1	-3
382.251	1	-8
383.447	1	2
384.643	1	-9
385.839	1	8
387.035	1	-7
388.230	1	-3
389.426	1	-15
390.622	1	-4
391.817	1	-13
393.013	1	1
394.208	1	6
395.404	1	1
396.599	1	4
397.795	1	1
398.990	1	6
400.186	1	-1
401.381	1	-4
402.576	1	-5
403.771	1	-11
404.967	1	3
406.162	1	-2
407.357	1	0
408.552	1	-2
409.747	1	2
410.942	1	5
412.137	1	-1
413.332	1	1
414.526	1	0
415.721	1	-1
416.916	1	-5
418.111	1	-1
419.305	1	4
420.500	1	-6
421.695	1	1
422.889	1	-8
424.084	1	-4
425.278	1	1
426.472	1	12
427.667	1	-9
428.861	1	-2
430.055	1	11
431.250	1	2
432.444	1	8
433.638	1	-3
434.832	1	-9
436.026	1	-9
437.220	1	0
438.414	1	9
439.608	1	-11
440.802	1	1
441.996	1	-8
443.190	1	5
444.384	1	-1
445.578	1	-13
446.771	1	-4
447.965	1	-2
449.159	1	-4
450.352	1	-3
451.546	1	-9
452.739	1	-1
453.933	1	-3
455.126	1	-2
456.320	1	7
457.513	1	-6
458.706	1	9
459.899	1	0
461.093	1	6
462.286	1	-3
463.479	1	-4
464.672	1	-3
465.865	1	0
467.058	1	-6
468.251	1	-3
469.444	1	2
470.637	1	3
471.830	1	9
473.023	1	-7
474.215	1	-3
475.408	1	-4
476.601	1	-7
477.793	1	0
478.986	1	4
480.179	1	1
481.371	1	-16
482.564	1	5
483.756	1	4
484.948	1	2
486.141	1	-3
487.333	1	-3
488.525	1	-10
489.718	1	-6
490.910	1	6
492.102	1	-1
493.294	1	-13
494.486	1	-3
495.678	1	-4
496.870	1	-2
498.062	1	-3
499.254	1	-12
500.446	1	-1
501.638	1	2
502.829	1	-3
504.021	1	-3
505.213	1	-3
506.404	1	0
507.596	1	0
508.788	1	2
509.979	1	-6
511.171	1	6
512.362	1	-1
513.553	1	-2
514.745	1	-6
515.936	1	-1
517.127	1	7
518.319	1	-3
519.510	1	-4
520.701	1	7
521.892	1	-9
523.083	1	0
524.274	1	-3
525.465	1	1
526.656	1	2
527.847	1	-20
529.038	1	-2
530.229	1	3
531.419	1	2
532.610	1	-2
533.801	1	4
534.991	1	1
536.182	1	-13
537.373	1	-4
538.563	1	-2
539.754	1	-2
540.944	1	-2
542.134	1	-4
543.325	1	5
544.515	1	0
545.705	1	-1
546.896	1	2
548.086	1	-5
549.276	1	-3
550.466	1	3
551.656	1	-3
552.846	1	-2
554.036	1	11
555.226	1	-7
556.416	1	5
557.606	1	-6
558.796	1	3
559.986	1	10
561.175	1	-1
562.365	1	-10
563.555	1	-2
564.744	1	8
565.934	1	1
567.123	1	0
568.313	1	-4
569.502	1	0
570.692	1	12
571.881	1	-4
573.070	1	7
574.260	1	6
575.449	1	-10
576.638	1	3
577.827	1	1
579.016	1	5
580.205	1	-3
581.394	1	-2
582.583	1	1
583.772	1	0
584.961	1	-3
586.150	1	-1
587.339	1	-1
588.528	1	-10
589.717	1	1
590.905	1	-7
592.094	1	-3
593.283	1	-2
594.471	1	-11
595.660	1	-5
596.848	1	5
598.037	1	0
599.225	1	-7
600.413	1	-5
601.602	1	8
602.790	1	3
603.978	1	3
605.166	1	2
606.355	1	-7
607.543	1	-2
608.731	1	-10
609.919	1	-11
611.107	1	3
612.295	1	-8
613.483	1	-3
614.671	1	-5
615.858	1	-9
617.046	1	-8
618.234	1	-4
619.422	1	-1
620.609	1	-1
621.797	1	2
622.985	1	-8
624.172	1	3
625.360	1	1
626.547	1	6
627.735	1	7
628.922	1	7
630.109	1	-14
631.297	1	2
632.484	1	-1
633.671	1	5
634.858	1	1
636.045	1	-4
637.232	1	-8
638.419	1	-12
639.606	1	14
640.793	1	-1
641.980	1	3
643.167	1	-9
644.354	1	5
645.541	1	-9
646.728	1	-5
647.914	1	-6
649.101	1	-6
650.288	1	1
651.474	1	2
652.661	1	-2
653.847	1	-8
655.034	1	-9
656.220	1	3
657.406	1	-6
658.593	1	-2
659.779	1	-2
660.965	1	-5
662.152	1	1
663.338	1	-13
664.524	1	8
665.710	1	4
666.896	1	9
668.082	1	-1
669.268	1	-3
670.454	1	2
671.640	1	-2
672.826	1	4
674.011	1	8
675.197	1	-3
676.383	1	-2
677.569	1	8
678.754	1	-4
679.940	1	-14
681.125	1	-7
682.311	1	1
683.496	1	-15
684.682	1	2
685.867	1	-4
687.053	1	11
688.238	1	3
688.746	1	2