Folder: cryo-il_analysis/Data/GaN_200K_800ms (part 32)

File: GaN_sample F_spot 12_UVVIS_200 K_200um_800 ms 2x2mm1_318.txt
340.368	1	6
341.565	1	-1
342.763	1	14
343.960	1	4
345.157	1	-11
346.354	1	-7
347.552	1	0
348.749	1	-4
349.946	1	-7
351.143	1	-6
352.340	1	5
353.537	1	1
354.734	1	6
355.931	1	6
357.127	1	-3
358.324	1	-6
359.521	1	5
360.718	1	-2
361.914	1	4
363.111	1	0
364.308	1	6
365.504	1	10
366.701	1	-2
367.897	1	19
369.093	1	13
370.290	1	16
371.486	1	20
372.682	1	13
373.879	1	8
375.075	1	8
376.271	1	20
377.467	1	10
378.663	1	6
379.859	1	1
381.055	1	12
382.251	1	4
383.447	1	7
384.643	1	7
385.839	1	-2
387.035	1	6
388.230	1	11
389.426	1	5
390.622	1	-2
391.817	1	5
393.013	1	1
394.208	1	-2
395.404	1	-1
396.599	1	-3
397.795	1	5
398.990	1	5
400.186	1	5
401.381	1	-4
402.576	1	-3
403.771	1	-8
404.967	1	0
406.162	1	2
407.357	1	-4
408.552	1	-3
409.747	1	-14
410.942	1	12
412.137	1	6
413.332	1	1
414.526	1	-9
415.721	1	-1
416.916	1	-3
418.111	1	-3
419.305	1	3
420.500	1	-4
421.695	1	-12
422.889	1	-4
424.084	1	3
425.278	1	12
426.472	1	3
427.667	1	11
428.861	1	-2
430.055	1	5
431.250	1	-4
432.444	1	6
433.638	1	-5
434.832	1	0
436.026	1	6
437.220	1	5
438.414	1	-4
439.608	1	-9
440.802	1	2
441.996	1	6
443.190	1	7
444.384	1	-12
445.578	1	-10
446.771	1	9
447.965	1	-3
449.159	1	-7
450.352	1	-6
451.546	1	-5
452.739	1	8
453.933	1	-9
455.126	1	0
456.320	1	-2
457.513	1	1
458.706	1	2
459.899	1	-1
461.093	1	1
462.286	1	2
463.479	1	-1
464.672	1	1
465.865	1	-5
467.058	1	-2
468.251	1	-6
469.444	1	-2
470.637	1	4
471.830	1	-8
473.023	1	1
474.215	1	9
475.408	1	0
476.601	1	1
477.793	1	-6
478.986	1	-2
480.179	1	0
481.371	1	2
482.564	1	-1
483.756	1	1
484.948	1	-5
486.141	1	3
487.333	1	8
488.525	1	1
489.718	1	7
490.910	1	2
492.102	1	-11
493.294	1	-5
494.486	1	-4
495.678	1	-7
496.870	1	4
498.062	1	2
499.254	1	2
500.446	1	-13
501.638	1	-3
502.829	1	3
504.021	1	-4
505.213	1	5
506.404	1	4
507.596	1	2
508.788	1	19
509.979	1	-2
511.171	1	-9
512.362	1	-1
513.553	1	-11
514.745	1	-2
515.936	1	1
517.127	1	-3
518.319	1	2
519.510	1	10
520.701	1	3
521.892	1	0
523.083	1	2
524.274	1	-2
525.465	1	1
526.656	1	-5
527.847	1	7
529.038	1	2
530.229	1	1
531.419	1	-1
532.610	1	-8
533.801	1	7
534.991	1	-2
536.182	1	-7
537.373	1	2
538.563	1	10
539.754	1	7
540.944	1	0
542.134	1	2
543.325	1	7
544.515	1	2
545.705	1	0
546.896	1	3
548.086	1	2
549.276	1	-8
550.466	1	-1
551.656	1	0
552.846	1	-5
554.036	1	2
555.226	1	-8
556.416	1	7
557.606	1	7
558.796	1	3
559.986	1	-2
561.175	1	3
562.365	1	7
563.555	1	-3
564.744	1	6
565.934	1	13
567.123	1	-5
568.313	1	3
569.502	1	-1
570.692	1	1
571.881	1	14
573.070	1	4
574.260	1	6
575.449	1	4
576.638	1	-3
577.827	1	-6
579.016	1	4
580.205	1	3
581.394	1	8
582.583	1	8
583.772	1	11
584.961	1	1
586.150	1	2
587.339	1	5
588.528	1	0
589.717	1	1
590.905	1	2
592.094	1	2
593.283	1	-2
594.471	1	9
595.660	1	-5
596.848	1	3
598.037	1	1
599.225	1	-9
600.413	1	3
601.602	1	14
602.790	1	5
603.978	1	-4
605.166	1	9
606.355	1	5
607.543	1	-8
608.731	1	-4
609.919	1	8
611.107	1	0
612.295	1	-7
613.483	1	3
614.671	1	14
615.858	1	3
617.046	1	1
618.234	1	-7
619.422	1	-4
620.609	1	3
621.797	1	-2
622.985	1	-4
624.172	1	-5
625.360	1	0
626.547	1	1
627.735	1	7
628.922	1	2
630.109	1	-3
631.297	1	0
632.484	1	-7
633.671	1	-8
634.858	1	-1
636.045	1	2
637.232	1	-13
638.419	1	-9
639.606	1	6
640.793	1	6
641.980	1	9
643.167	1	-11
644.354	1	3
645.541	1	3
646.728	1	1
647.914	1	-3
649.101	1	-4
650.288	1	1
651.474	1	-6
652.661	1	3
653.847	1	0
655.034	1	-5
656.220	1	-4
657.406	1	2
658.593	1	-3
659.779	1	2
660.965	1	6
662.152	1	-4
663.338	1	8
664.524	1	0
665.710	1	2
666.896	1	-6
668.082	1	4
669.268	1	4
670.454	1	7
671.640	1	2
672.826	1	-5
674.011	1	-3
675.197	1	-6
676.383	1	-1
677.569	1	0
678.754	1	2
679.940	1	-4
681.125	1	8
682.311	1	2
683.496	1	0
684.682	1	-11
685.867	1	-1
687.053	1	5
688.238	1	2
688.746	1	1

File: GaN_sample F_spot 12_UVVIS_200 K_200um_800 ms 2x2mm1_320.txt
340.368	1	2
341.565	1	-4
342.763	1	4
343.960	1	-3
345.157	1	-7
346.354	1	3
347.552	1	1
348.749	1	-2
349.946	1	-11
351.143	1	-2
352.340	1	3
353.537	1	2
354.734	1	4
355.931	1	0
357.127	1	-1
358.324	1	-1
359.521	1	7
360.718	1	3
361.914	1	5
363.111	1	4
364.308	1	0
365.504	1	12
366.701	1	7
367.897	1	14
369.093	1	9
370.290	1	18
371.486	1	25
372.682	1	21
373.879	1	7
375.075	1	10
376.271	1	9
377.467	1	10
378.663	1	9
379.859	1	1
381.055	1	15
382.251	1	-1
383.447	1	2
384.643	1	12
385.839	1	-2
387.035	1	8
388.230	1	4
389.426	1	-7
390.622	1	-7
391.817	1	3
393.013	1	-5
394.208	1	-2
395.404	1	-5
396.599	1	-5
397.795	1	-6
398.990	1	1
400.186	1	8
401.381	1	-3
402.576	1	-5
403.771	1	-6
404.967	1	6
406.162	1	4
407.357	1	-6
408.552	1	-4
409.747	1	-6
410.942	1	0
412.137	1	11
413.332	1	0
414.526	1	-3
415.721	1	3
416.916	1	-6
418.111	1	-2
419.305	1	2
420.500	1	1
421.695	1	-3
422.889	1	-12
424.084	1	-6
425.278	1	4
426.472	1	-4
427.667	1	3
428.861	1	-4
430.055	1	1
431.250	1	4
432.444	1	6
433.638	1	0
434.832	1	3
436.026	1	2
437.220	1	6
438.414	1	-13
439.608	1	-12
440.802	1	-10
441.996	1	3
443.190	1	-2
444.384	1	-8
445.578	1	-7
446.771	1	12
447.965	1	-5
449.159	1	-3
450.352	1	-7
451.546	1	2
452.739	1	3
453.933	1	0
455.126	1	-14
456.320	1	-4
457.513	1	5
458.706	1	-3
459.899	1	-9
461.093	1	0
462.286	1	-3
463.479	1	-6
464.672	1	-10
465.865	1	-5
467.058	1	5
468.251	1	-1
469.444	1	-1
470.637	1	4
471.830	1	-3
473.023	1	-1
474.215	1	10
475.408	1	-5
476.601	1	6
477.793	1	-5
478.986	1	-5
480.179	1	-8
481.371	1	3
482.564	1	1
483.756	1	12
484.948	1	-8
486.141	1	-7
487.333	1	-6
488.525	1	7
489.718	1	-2
490.910	1	-6
492.102	1	-8
493.294	1	0
494.486	1	8
495.678	1	-4
496.870	1	2
498.062	1	-6
499.254	1	1
500.446	1	-8
501.638	1	-6
502.829	1	0
504.021	1	-1
505.213	1	10
506.404	1	3
507.596	1	2
508.788	1	21
509.979	1	-1
511.171	1	4
512.362	1	-4
513.553	1	-7
514.745	1	1
515.936	1	-6
517.127	1	1
518.319	1	-2
519.510	1	-4
520.701	1	3
521.892	1	3
523.083	1	-1
524.274	1	-6
525.465	1	6
526.656	1	-7
527.847	1	7
529.038	1	-2
530.229	1	3
531.419	1	4
532.610	1	5
533.801	1	16
534.991	1	5
536.182	1	3
537.373	1	4
538.563	1	3
539.754	1	13
540.944	1	-3
542.134	1	13
543.325	1	-2
544.515	1	-4
545.705	1	-2
546.896	1	1
548.086	1	-1
549.276	1	7
550.466	1	-1
551.656	1	1
552.846	1	0
554.036	1	1
555.226	1	-6
556.416	1	-3
557.606	1	1
558.796	1	2
559.986	1	-14
561.175	1	13
562.365	1	-1
563.555	1	-3
564.744	1	2
565.934	1	-1
567.123	1	-3
568.313	1	5
569.502	1	1
570.692	1	7
571.881	1	19
573.070	1	3
574.260	1	4
575.449	1	-10
576.638	1	-6
577.827	1	-3
579.016	1	13
580.205	1	5
581.394	1	-1
582.583	1	10
583.772	1	4
584.961	1	2
586.150	1	0
587.339	1	-1
588.528	1	3
589.717	1	2
590.905	1	4
592.094	1	-1
593.283	1	6
594.471	1	6
595.660	1	4
596.848	1	-1
598.037	1	-2
599.225	1	-15
600.413	1	10
601.602	1	7
602.790	1	4
603.978	1	-1
605.166	1	-2
606.355	1	-6
607.543	1	4
608.731	1	-1
609.919	1	6
611.107	1	5
612.295	1	-2
613.483	1	2
614.671	1	6
615.858	1	-4
617.046	1	-5
618.234	1	5
619.422	1	-5
620.609	1	8
621.797	1	-2
622.985	1	-1
624.172	1	6
625.360	1	3
626.547	1	-2
627.735	1	7
628.922	1	3
630.109	1	-4
631.297	1	0
632.484	1	-6
633.671	1	2
634.858	1	7
636.045	1	20
637.232	1	9
638.419	1	-12
639.606	1	9
640.793	1	6
641.980	1	-4
643.167	1	-8
644.354	1	2
645.541	1	2
646.728	1	-4
647.914	1	0
649.101	1	7
650.288	1	4
651.474	1	0
652.661	1	-4
653.847	1	8
655.034	1	4
656.220	1	-11
657.406	1	2
658.593	1	4
659.779	1	7
660.965	1	7
662.152	1	-1
663.338	1	14
664.524	1	2
665.710	1	3
666.896	1	-4
668.082	1	6
669.268	1	-1
670.454	1	-3
671.640	1	-2
672.826	1	2
674.011	1	-3
675.197	1	-10
676.383	1	1
677.569	1	-9
678.754	1	0
679.940	1	3
681.125	1	9
682.311	1	6
683.496	1	8
684.682	1	-12
685.867	1	-5
687.053	1	2
688.238	1	-2
688.746	1	3

File: GaN_sample F_spot 12_UVVIS_200 K_200um_800 ms 2x2mm1_323.txt
340.368	1	9
341.565	1	-6
342.763	1	4
343.960	1	-1
345.157	1	0
346.354	1	-6
347.552	1	-1
348.749	1	-3
349.946	1	-9
351.143	1	-2
352.340	1	9
353.537	1	-2
354.734	1	-1
355.931	1	-5
357.127	1	9
358.324	1	1
359.521	1	7
360.718	1	1
361.914	1	5
363.111	1	7
364.308	1	3
365.504	1	16
366.701	1	12
367.897	1	15
369.093	1	11
370.290	1	11
371.486	1	26
372.682	1	16
373.879	1	1
375.075	1	2
376.271	1	13
377.467	1	6
378.663	1	-7
379.859	1	4
381.055	1	13
382.251	1	3
383.447	1	3
384.643	1	15
385.839	1	6
387.035	1	6
388.230	1	4
389.426	1	2
390.622	1	5
391.817	1	0
393.013	1	3
394.208	1	1
395.404	1	-10
396.599	1	-5
397.795	1	0
398.990	1	3
400.186	1	-5
401.381	1	0
402.576	1	-1
403.771	1	6
404.967	1	12
406.162	1	7
407.357	1	-1
408.552	1	-2
409.747	1	-4
410.942	1	11
412.137	1	-10
413.332	1	-5
414.526	1	-5
415.721	1	-12
416.916	1	-1
418.111	1	2
419.305	1	-3
420.500	1	-2
421.695	1	3
422.889	1	-16
424.084	1	-3
425.278	1	9
426.472	1	3
427.667	1	4
428.861	1	-4
430.055	1	4
431.250	1	1
432.444	1	10
433.638	1	-5
434.832	1	0
436.026	1	7
437.220	1	0
438.414	1	-7
439.608	1	-9
440.802	1	0
441.996	1	6
443.190	1	1
444.384	1	-8
445.578	1	-11
446.771	1	3
447.965	1	-2
449.159	1	-11
450.352	1	8
451.546	1	1
452.739	1	10
453.933	1	0
455.126	1	-14
456.320	1	-7
457.513	1	11
458.706	1	-1
459.899	1	-4
461.093	1	-3
462.286	1	-3
463.479	1	-8
464.672	1	-8
465.865	1	-9
467.058	1	-3
468.251	1	-1
469.444	1	-13
470.637	1	-2
471.830	1	-6
473.023	1	9
474.215	1	9
475.408	1	6
476.601	1	2
477.793	1	2
478.986	1	-8
480.179	1	-1
481.371	1	0
482.564	1	-4
483.756	1	8
484.948	1	-7
486.141	1	0
487.333	1	-6
488.525	1	-2
489.718	1	-4
490.910	1	-7
492.102	1	-4
493.294	1	-1
494.486	1	7
495.678	1	-9
496.870	1	5
498.062	1	-3
499.254	1	1
500.446	1	-15
501.638	1	-17
502.829	1	-1
504.021	1	-11
505.213	1	2
506.404	1	5
507.596	1	2
508.788	1	7
509.979	1	-4
511.171	1	-2
512.362	1	-4
513.553	1	-5
514.745	1	-3
515.936	1	-4
517.127	1	6
518.319	1	1
519.510	1	1
520.701	1	0
521.892	1	2
523.083	1	-7
524.274	1	-1
525.465	1	12
526.656	1	8
527.847	1	1
529.038	1	9
530.229	1	6
531.419	1	2
532.610	1	-2
533.801	1	16
534.991	1	3
536.182	1	4
537.373	1	3
538.563	1	12
539.754	1	7
540.944	1	3
542.134	1	5
543.325	1	2
544.515	1	-8
545.705	1	-1
546.896	1	2
548.086	1	3
549.276	1	-6
550.466	1	14
551.656	1	8
552.846	1	10
554.036	1	0
555.226	1	-6
556.416	1	-7
557.606	1	-1
558.796	1	4
559.986	1	-2
561.175	1	-3
562.365	1	-6
563.555	1	3
564.744	1	4
565.934	1	9
567.123	1	0
568.313	1	4
569.502	1	-5
570.692	1	4
571.881	1	10
573.070	1	1
574.260	1	7
575.449	1	-4
576.638	1	-1
577.827	1	-11
579.016	1	3
580.205	1	-2
581.394	1	-4
582.583	1	4
583.772	1	6
584.961	1	3
586.150	1	-5
587.339	1	0
588.528	1	8
589.717	1	1
590.905	1	0
592.094	1	0
593.283	1	-2
594.471	1	8
595.660	1	2
596.848	1	1
598.037	1	-1
599.225	1	-1
600.413	1	4
601.602	1	12
602.790	1	3
603.978	1	-10
605.166	1	5
606.355	1	8
607.543	1	-4
608.731	1	1
609.919	1	14
611.107	1	-3
612.295	1	-6
613.483	1	2
614.671	1	-8
615.858	1	4
617.046	1	-7
618.234	1	-10
619.422	1	-12
620.609	1	1
621.797	1	-8
622.985	1	3
624.172	1	4
625.360	1	0
626.547	1	2
627.735	1	4
628.922	1	2
630.109	1	-6
631.297	1	2
632.484	1	-3
633.671	1	-5
634.858	1	0
636.045	1	7
637.232	1	-1
638.419	1	0
639.606	1	-1
640.793	1	8
641.980	1	1
643.167	1	-11
644.354	1	2
645.541	1	3
646.728	1	-1
647.914	1	-14
649.101	1	11
650.288	1	6
651.474	1	-6
652.661	1	-6
653.847	1	5
655.034	1	6
656.220	1	0
657.406	1	8
658.593	1	0
659.779	1	-1
660.965	1	0
662.152	1	9
663.338	1	8
664.524	1	2
665.710	1	-1
666.896	1	-8
668.082	1	3
669.268	1	-7
670.454	1	-5
671.640	1	5
672.826	1	-5
674.011	1	5
675.197	1	-14
676.383	1	-9
677.569	1	-4
678.754	1	-2
679.940	1	-1
681.125	1	4
682.311	1	3
683.496	1	6
684.682	1	-6
685.867	1	2
687.053	1	-2
688.238	1	-3
688.746	1	6

File: GaN_sample F_spot 12_UVVIS_200 K_200um_800 ms 2x2mm1_324.txt
340.368	1	1
341.565	1	-9
342.763	1	5
343.960	1	-8
345.157	1	1
346.354	1	-7
347.552	1	1
348.749	1	-6
349.946	1	-10
351.143	1	-9
352.340	1	7
353.537	1	-3
354.734	1	5
355.931	1	-10
357.127	1	-1
358.324	1	1
359.521	1	7
360.718	1	5
361.914	1	6
363.111	1	13
364.308	1	8
365.504	1	11
366.701	1	14
367.897	1	7
369.093	1	6
370.290	1	6
371.486	1	21
372.682	1	14
373.879	1	6
375.075	1	9
376.271	1	18
377.467	1	5
378.663	1	1
379.859	1	4
381.055	1	7
382.251	1	-2
383.447	1	-5
384.643	1	4
385.839	1	-4
387.035	1	5
388.230	1	6
389.426	1	3
390.622	1	-1
391.817	1	10
393.013	1	-3
394.208	1	4
395.404	1	-10
396.599	1	0
397.795	1	8
398.990	1	3
400.186	1	2
401.381	1	-9
402.576	1	-8
403.771	1	1
404.967	1	-4
406.162	1	0
407.357	1	1
408.552	1	-1
409.747	1	-6
410.942	1	6
412.137	1	-1
413.332	1	5
414.526	1	-2
415.721	1	4
416.916	1	-5
418.111	1	-5
419.305	1	1
420.500	1	-8
421.695	1	2
422.889	1	-1
424.084	1	0
425.278	1	16
426.472	1	-3
427.667	1	4
428.861	1	-6
430.055	1	-1
431.250	1	-2
432.444	1	7
433.638	1	-12
434.832	1	3
436.026	1	0
437.220	1	6
438.414	1	-7
439.608	1	-10
440.802	1	-8
441.996	1	2
443.190	1	0
444.384	1	-3
445.578	1	-12
446.771	1	7
447.965	1	-3
449.159	1	-2
450.352	1	4
451.546	1	-2
452.739	1	6
453.933	1	0
455.126	1	-3
456.320	1	1
457.513	1	-4
458.706	1	5
459.899	1	6
461.093	1	1
462.286	1	1
463.479	1	1
464.672	1	-9
465.865	1	2
467.058	1	3
468.251	1	-3
469.444	1	-9
470.637	1	-4
471.830	1	3
473.023	1	0
474.215	1	19
475.408	1	-2
476.601	1	-3
477.793	1	-5
478.986	1	-2
480.179	1	-3
481.371	1	1
482.564	1	-3
483.756	1	11
484.948	1	-1
486.141	1	-4
487.333	1	-2
488.525	1	4
489.718	1	3
490.910	1	1
492.102	1	-6
493.294	1	0
494.486	1	0
495.678	1	-1
496.870	1	6
498.062	1	-5
499.254	1	2
500.446	1	-5
501.638	1	-11
502.829	1	-5
504.021	1	0
505.213	1	4
506.404	1	3
507.596	1	3
508.788	1	14
509.979	1	-5
511.171	1	-1
512.362	1	-5
513.553	1	-11
514.745	1	-7
515.936	1	2
517.127	1	0
518.319	1	-6
519.510	1	8
520.701	1	1
521.892	1	1
523.083	1	3
524.274	1	-1
525.465	1	7
526.656	1	-4
527.847	1	7
529.038	1	3
530.229	1	9
531.419	1	10
532.610	1	-7
533.801	1	13
534.991	1	6
536.182	1	-8
537.373	1	-2
538.563	1	2
539.754	1	13
540.944	1	-5
542.134	1	2
543.325	1	-5
544.515	1	0
545.705	1	3
546.896	1	2
548.086	1	3
549.276	1	5
550.466	1	1
551.656	1	0
552.846	1	4
554.036	1	-16
555.226	1	-8
556.416	1	0
557.606	1	10
558.796	1	-1
559.986	1	0
561.175	1	-3
562.365	1	6
563.555	1	4
564.744	1	2
565.934	1	4
567.123	1	-4
568.313	1	10
569.502	1	-6
570.692	1	8
571.881	1	12
573.070	1	8
574.260	1	5
575.449	1	-6
576.638	1	-6
577.827	1	-1
579.016	1	3
580.205	1	0
581.394	1	-3
582.583	1	11
583.772	1	9
584.961	1	2
586.150	1	-4
587.339	1	7
588.528	1	7
589.717	1	5
590.905	1	1
592.094	1	1
593.283	1	2
594.471	1	10
595.660	1	4
596.848	1	3
598.037	1	5
599.225	1	-5
600.413	1	9
601.602	1	13
602.790	1	7
603.978	1	-2
605.166	1	4
606.355	1	3
607.543	1	3
608.731	1	5
609.919	1	7
611.107	1	4
612.295	1	-6
613.483	1	1
614.671	1	3
615.858	1	-3
617.046	1	3
618.234	1	-4
619.422	1	-4
620.609	1	6
621.797	1	-3
622.985	1	0
624.172	1	-1
625.360	1	3
626.547	1	1
627.735	1	-1
628.922	1	2
630.109	1	-7
631.297	1	-5
632.484	1	-1
633.671	1	0
634.858	1	-10
636.045	1	10
637.232	1	-9
638.419	1	-3
639.606	1	-10
640.793	1	1
641.980	1	8
643.167	1	1
644.354	1	-6
645.541	1	2
646.728	1	-2
647.914	1	-5
649.101	1	-4
650.288	1	4
651.474	1	0
652.661	1	0
653.847	1	9
655.034	1	7
656.220	1	-12
657.406	1	9
658.593	1	1
659.779	1	-4
660.965	1	13
662.152	1	11
663.338	1	7
664.524	1	10
665.710	1	2
666.896	1	5
668.082	1	-3
669.268	1	0
670.454	1	3
671.640	1	-2
672.826	1	1
674.011	1	-9
675.197	1	0
676.383	1	1
677.569	1	-7
678.754	1	-5
679.940	1	-4
681.125	1	0
682.311	1	11
683.496	1	0
684.682	1	-5
685.867	1	2
687.053	1	6
688.238	1	6
688.746	1	-4

File: GaN_sample F_spot 12_UVVIS_200 K_200um_800 ms 2x2mm1_329.txt
340.368	1	6
341.565	1	-10
342.763	1	3
343.960	1	-1
345.157	1	-9
346.354	1	4
347.552	1	-7
348.749	1	-3
349.946	1	-1
351.143	1	5
352.340	1	2
353.537	1	-3
354.734	1	11
355.931	1	1
357.127	1	2
358.324	1	4
359.521	1	4
360.718	1	9
361.914	1	5
363.111	1	1
364.308	1	8
365.504	1	16
366.701	1	10
367.897	1	11
369.093	1	4
370.290	1	12
371.486	1	27
372.682	1	21
373.879	1	9
375.075	1	14
376.271	1	9
377.467	1	1
378.663	1	1
379.859	1	3
381.055	1	9
382.251	1	-10
383.447	1	-1
384.643	1	8
385.839	1	7
387.035	1	4
388.230	1	10
389.426	1	-12
390.622	1	-2
391.817	1	7
393.013	1	1
394.208	1	-6
395.404	1	-5
396.599	1	-1
397.795	1	0
398.990	1	2
400.186	1	-4
401.381	1	-7
402.576	1	-6
403.771	1	7
404.967	1	9
406.162	1	1
407.357	1	-5
408.552	1	-2
409.747	1	-3
410.942	1	3
412.137	1	2
413.332	1	2
414.526	1	-5
415.721	1	1
416.916	1	-11
418.111	1	1
419.305	1	-2
420.500	1	-6
421.695	1	8
422.889	1	-7
424.084	1	-5
425.278	1	9
426.472	1	-2
427.667	1	0
428.861	1	-4
430.055	1	-1
431.250	1	1
432.444	1	7
433.638	1	0
434.832	1	3
436.026	1	-1
437.220	1	4
438.414	1	-13
439.608	1	-12
440.802	1	0
441.996	1	1
443.190	1	-1
444.384	1	-5
445.578	1	-14
446.771	1	12
447.965	1	-9
449.159	1	-2
450.352	1	3
451.546	1	0
452.739	1	-1
453.933	1	-4
455.126	1	-8
456.320	1	0
457.513	1	1
458.706	1	1
459.899	1	1
461.093	1	-4
462.286	1	-7
463.479	1	2
464.672	1	-4
465.865	1	2
467.058	1	-3
468.251	1	-7
469.444	1	-4
470.637	1	1
471.830	1	0
473.023	1	1
474.215	1	6
475.408	1	2
476.601	1	6
477.793	1	-6
478.986	1	2
480.179	1	0
481.371	1	3
482.564	1	5
483.756	1	-8
484.948	1	-5
486.141	1	5
487.333	1	-1
488.525	1	0
489.718	1	5
490.910	1	-11
492.102	1	0
493.294	1	2
494.486	1	8
495.678	1	10
496.870	1	10
498.062	1	1
499.254	1	-3
500.446	1	-8
501.638	1	-6
502.829	1	-7
504.021	1	3
505.213	1	6
506.404	1	1
507.596	1	4
508.788	1	15
509.979	1	2
511.171	1	-7
512.362	1	-13
513.553	1	-14
514.745	1	-6
515.936	1	0
517.127	1	0
518.319	1	2
519.510	1	6
520.701	1	4
521.892	1	0
523.083	1	-11
524.274	1	-5
525.465	1	3
526.656	1	-1
527.847	1	10
529.038	1	2
530.229	1	-7
531.419	1	6
532.610	1	1
533.801	1	9
534.991	1	5
536.182	1	4
537.373	1	3
538.563	1	3
539.754	1	7
540.944	1	-11
542.134	1	6
543.325	1	-8
544.515	1	6
545.705	1	0
546.896	1	6
548.086	1	3
549.276	1	-2
550.466	1	0
551.656	1	3
552.846	1	-3
554.036	1	-3
555.226	1	0
556.416	1	-8
557.606	1	4
558.796	1	-10
559.986	1	-10
561.175	1	9
562.365	1	-5
563.555	1	-1
564.744	1	7
565.934	1	1
567.123	1	7
568.313	1	7
569.502	1	-2
570.692	1	-1
571.881	1	7
573.070	1	5
574.260	1	12
575.449	1	-8
576.638	1	0
577.827	1	0
579.016	1	12
580.205	1	7
581.394	1	4
582.583	1	13
583.772	1	11
584.961	1	5
586.150	1	5
587.339	1	7
588.528	1	6
589.717	1	2
590.905	1	4
592.094	1	3
593.283	1	-5
594.471	1	14
595.660	1	2
596.848	1	-1
598.037	1	-2
599.225	1	-10
600.413	1	6
601.602	1	1
602.790	1	-3
603.978	1	1
605.166	1	4
606.355	1	2
607.543	1	-3
608.731	1	7
609.919	1	10
611.107	1	-5
612.295	1	-8
613.483	1	6
614.671	1	0
615.858	1	1
617.046	1	6
618.234	1	-1
619.422	1	-10
620.609	1	2
621.797	1	-1
622.985	1	6
624.172	1	-5
625.360	1	2
626.547	1	6
627.735	1	0
628.922	1	10
630.109	1	-8
631.297	1	1
632.484	1	0
633.671	1	-2
634.858	1	-10
636.045	1	5
637.232	1	-1
638.419	1	-5
639.606	1	10
640.793	1	10
641.980	1	9
643.167	1	-2
644.354	1	-1
645.541	1	-3
646.728	1	6
647.914	1	-3
649.101	1	-2
650.288	1	3
651.474	1	-7
652.661	1	-13
653.847	1	12
655.034	1	-1
656.220	1	-19
657.406	1	-1
658.593	1	10
659.779	1	-1
660.965	1	9
662.152	1	1
663.338	1	-3
664.524	1	3
665.710	1	-2
666.896	1	-12
668.082	1	11
669.268	1	-2
670.454	1	3
671.640	1	2
672.826	1	-10
674.011	1	-7
675.197	1	-4
676.383	1	-2
677.569	1	-1
678.754	1	-12
679.940	1	-3
681.125	1	-1
682.311	1	6
683.496	1	4
684.682	1	-1
685.867	1	-6
687.053	1	10
688.238	1	1
688.746	1	-4

File: GaN_sample F_spot 12_UVVIS_200 K_200um_800 ms 2x2mm1_332.txt
340.368	1	5
341.565	1	-12
342.763	1	7
343.960	1	4
345.157	1	-4
346.354	1	-1
347.552	1	-2
348.749	1	-8
349.946	1	-5
351.143	1	-1
352.340	1	2
353.537	1	-9
354.734	1	0
355.931	1	1
357.127	1	8
358.324	1	-4
359.521	1	7
360.718	1	7
361.914	1	0
363.111	1	0
364.308	1	-2
365.504	1	10
366.701	1	18
367.897	1	10
369.093	1	8
370.290	1	6
371.486	1	18
372.682	1	6
373.879	1	6
375.075	1	8
376.271	1	15
377.467	1	4
378.663	1	-2
379.859	1	4
381.055	1	18
382.251	1	-7
383.447	1	-8
384.643	1	4
385.839	1	2
387.035	1	-1
388.230	1	11
389.426	1	-3
390.622	1	-1
391.817	1	3
393.013	1	-5
394.208	1	3
395.404	1	1
396.599	1	-6
397.795	1	1
398.990	1	-2
400.186	1	-5
401.381	1	3
402.576	1	-3
403.771	1	2
404.967	1	5
406.162	1	2
407.357	1	-7
408.552	1	-2
409.747	1	-1
410.942	1	-1
412.137	1	1
413.332	1	3
414.526	1	-5
415.721	1	0
416.916	1	-8
418.111	1	-1
419.305	1	5
420.500	1	-4
421.695	1	-10
422.889	1	-15
424.084	1	-3
425.278	1	4
426.472	1	-6
427.667	1	4
428.861	1	-2
430.055	1	-1
431.250	1	5
432.444	1	9
433.638	1	-4
434.832	1	3
436.026	1	-3
437.220	1	-6
438.414	1	-15
439.608	1	0
440.802	1	-7
441.996	1	3
443.190	1	0
444.384	1	-2
445.578	1	-15
446.771	1	15
447.965	1	2
449.159	1	-1
450.352	1	-3
451.546	1	-3
452.739	1	2
453.933	1	0
455.126	1	-9
456.320	1	8
457.513	1	5
458.706	1	7
459.899	1	1
461.093	1	10
462.286	1	5
463.479	1	0
464.672	1	-1
465.865	1	-5
467.058	1	-8
468.251	1	-5
469.444	1	-8
470.637	1	1
471.830	1	-8
473.023	1	-4
474.215	1	3
475.408	1	-5
476.601	1	4
477.793	1	-5
478.986	1	-5
480.179	1	0
481.371	1	2
482.564	1	-1
483.756	1	6
484.948	1	-8
486.141	1	-8
487.333	1	2
488.525	1	8
489.718	1	-4
490.910	1	11
492.102	1	-11
493.294	1	-8
494.486	1	5
495.678	1	-7
496.870	1	5
498.062	1	-8
499.254	1	9
500.446	1	-14
501.638	1	-3
502.829	1	10
504.021	1	-6
505.213	1	6
506.404	1	3
507.596	1	-1
508.788	1	15
509.979	1	6
511.171	1	-6
512.362	1	-5
513.553	1	-16
514.745	1	-6
515.936	1	4
517.127	1	-7
518.319	1	2
519.510	1	0
520.701	1	0
521.892	1	-1
523.083	1	-3
524.274	1	3
525.465	1	14
526.656	1	-4
527.847	1	2
529.038	1	-2
530.229	1	2
531.419	1	-3
532.610	1	1
533.801	1	14
534.991	1	4
536.182	1	1
537.373	1	3
538.563	1	-5
539.754	1	2
540.944	1	2
542.134	1	4
543.325	1	-5
544.515	1	-7
545.705	1	1
546.896	1	6
548.086	1	-4
549.276	1	-5
550.466	1	-1
551.656	1	0
552.846	1	3
554.036	1	-4
555.226	1	-4
556.416	1	-13
557.606	1	8
558.796	1	2
559.986	1	-6
561.175	1	0
562.365	1	6
563.555	1	-4
564.744	1	0
565.934	1	5
567.123	1	13
568.313	1	5
569.502	1	-1
570.692	1	3
571.881	1	16
573.070	1	2
574.260	1	7
575.449	1	5
576.638	1	3
577.827	1	-5
579.016	1	9
580.205	1	0
581.394	1	1
582.583	1	14
583.772	1	2
584.961	1	0
586.150	1	-2
587.339	1	6
588.528	1	5
589.717	1	1
590.905	1	-4
592.094	1	-1
593.283	1	-1
594.471	1	14
595.660	1	2
596.848	1	-2
598.037	1	-6
599.225	1	-6
600.413	1	7
601.602	1	9
602.790	1	0
603.978	1	6
605.166	1	-5
606.355	1	-1
607.543	1	6
608.731	1	-1
609.919	1	6
611.107	1	-3
612.295	1	3
613.483	1	-3
614.671	1	7
615.858	1	11
617.046	1	-1
618.234	1	0
619.422	1	-8
620.609	1	-2
621.797	1	-10
622.985	1	3
624.172	1	-4
625.360	1	3
626.547	1	6
627.735	1	-1
628.922	1	1
630.109	1	-10
631.297	1	-3
632.484	1	-1
633.671	1	-5
634.858	1	3
636.045	1	10
637.232	1	-8
638.419	1	1
639.606	1	3
640.793	1	3
641.980	1	8
643.167	1	-6
644.354	1	3
645.541	1	0
646.728	1	2
647.914	1	0
649.101	1	-2
650.288	1	9
651.474	1	1
652.661	1	0
653.847	1	2
655.034	1	9
656.220	1	2
657.406	1	9
658.593	1	2
659.779	1	6
660.965	1	5
662.152	1	2
663.338	1	6
664.524	1	-6
665.710	1	-13
666.896	1	2
668.082	1	-4
669.268	1	-2
670.454	1	-1
671.640	1	2
672.826	1	-1
674.011	1	3
675.197	1	-15
676.383	1	5
677.569	1	-6
678.754	1	-6
679.940	1	-6
681.125	1	9
682.311	1	3
683.496	1	1
684.682	1	-1
685.867	1	-2
687.053	1	-3
688.238	1	8
688.746	1	0