Folder: cryo-il_analysis/Data/GaN_200K_800ms (part 41)

File: GaN_sample F_spot 12_UVVIS_200 K_200um_800 ms 2x2mm1_479.txt
340.368	1	2
341.565	1	-12
342.763	1	6
343.960	1	-3
345.157	1	-3
346.354	1	-1
347.552	1	-11
348.749	1	-4
349.946	1	-7
351.143	1	0
352.340	1	2
353.537	1	4
354.734	1	-1
355.931	1	1
357.127	1	-6
358.324	1	1
359.521	1	3
360.718	1	3
361.914	1	10
363.111	1	-9
364.308	1	3
365.504	1	9
366.701	1	17
367.897	1	7
369.093	1	4
370.290	1	8
371.486	1	14
372.682	1	3
373.879	1	9
375.075	1	7
376.271	1	1
377.467	1	4
378.663	1	-2
379.859	1	0
381.055	1	10
382.251	1	-4
383.447	1	-5
384.643	1	12
385.839	1	-4
387.035	1	0
388.230	1	2
389.426	1	-2
390.622	1	-4
391.817	1	4
393.013	1	-5
394.208	1	5
395.404	1	-7
396.599	1	-3
397.795	1	1
398.990	1	-1
400.186	1	6
401.381	1	-11
402.576	1	-4
403.771	1	12
404.967	1	3
406.162	1	7
407.357	1	-12
408.552	1	-9
409.747	1	-2
410.942	1	3
412.137	1	4
413.332	1	7
414.526	1	-9
415.721	1	-10
416.916	1	-5
418.111	1	1
419.305	1	0
420.500	1	-6
421.695	1	-8
422.889	1	-13
424.084	1	-3
425.278	1	7
426.472	1	-7
427.667	1	8
428.861	1	12
430.055	1	2
431.250	1	1
432.444	1	6
433.638	1	2
434.832	1	7
436.026	1	4
437.220	1	0
438.414	1	-8
439.608	1	-16
440.802	1	-5
441.996	1	4
443.190	1	5
444.384	1	-10
445.578	1	-12
446.771	1	11
447.965	1	-5
449.159	1	-16
450.352	1	-2
451.546	1	-2
452.739	1	5
453.933	1	-12
455.126	1	-1
456.320	1	2
457.513	1	0
458.706	1	-5
459.899	1	-1
461.093	1	3
462.286	1	4
463.479	1	7
464.672	1	-2
465.865	1	-3
467.058	1	1
468.251	1	5
469.444	1	-9
470.637	1	2
471.830	1	-5
473.023	1	0
474.215	1	12
475.408	1	4
476.601	1	-2
477.793	1	-9
478.986	1	-7
480.179	1	3
481.371	1	-3
482.564	1	-4
483.756	1	2
484.948	1	-8
486.141	1	-5
487.333	1	4
488.525	1	-5
489.718	1	2
490.910	1	0
492.102	1	-10
493.294	1	2
494.486	1	13
495.678	1	-1
496.870	1	11
498.062	1	-2
499.254	1	-1
500.446	1	-14
501.638	1	-4
502.829	1	-2
504.021	1	-2
505.213	1	15
506.404	1	11
507.596	1	0
508.788	1	11
509.979	1	-3
511.171	1	-3
512.362	1	-9
513.553	1	-2
514.745	1	-12
515.936	1	1
517.127	1	-6
518.319	1	5
519.510	1	-3
520.701	1	-5
521.892	1	-2
523.083	1	2
524.274	1	-2
525.465	1	6
526.656	1	-2
527.847	1	2
529.038	1	-2
530.229	1	1
531.419	1	2
532.610	1	-8
533.801	1	9
534.991	1	2
536.182	1	-3
537.373	1	4
538.563	1	7
539.754	1	-3
540.944	1	1
542.134	1	7
543.325	1	-9
544.515	1	3
545.705	1	-2
546.896	1	0
548.086	1	-2
549.276	1	-15
550.466	1	2
551.656	1	-1
552.846	1	2
554.036	1	0
555.226	1	-6
556.416	1	-5
557.606	1	2
558.796	1	2
559.986	1	-4
561.175	1	4
562.365	1	0
563.555	1	2
564.744	1	1
565.934	1	9
567.123	1	1
568.313	1	5
569.502	1	-1
570.692	1	-3
571.881	1	9
573.070	1	7
574.260	1	19
575.449	1	-4
576.638	1	-3
577.827	1	-7
579.016	1	0
580.205	1	-8
581.394	1	-13
582.583	1	20
583.772	1	7
584.961	1	0
586.150	1	-7
587.339	1	5
588.528	1	-1
589.717	1	4
590.905	1	-1
592.094	1	-8
593.283	1	-4
594.471	1	5
595.660	1	2
596.848	1	4
598.037	1	0
599.225	1	-3
600.413	1	7
601.602	1	9
602.790	1	1
603.978	1	-5
605.166	1	7
606.355	1	3
607.543	1	-5
608.731	1	0
609.919	1	13
611.107	1	0
612.295	1	-2
613.483	1	0
614.671	1	-4
615.858	1	2
617.046	1	0
618.234	1	1
619.422	1	-17
620.609	1	4
621.797	1	-4
622.985	1	-3
624.172	1	-9
625.360	1	4
626.547	1	5
627.735	1	-7
628.922	1	10
630.109	1	-5
631.297	1	-7
632.484	1	-10
633.671	1	-12
634.858	1	-5
636.045	1	3
637.232	1	2
638.419	1	-2
639.606	1	-2
640.793	1	3
641.980	1	8
643.167	1	-4
644.354	1	-2
645.541	1	-3
646.728	1	-3
647.914	1	-3
649.101	1	-4
650.288	1	5
651.474	1	-10
652.661	1	-4
653.847	1	6
655.034	1	3
656.220	1	-11
657.406	1	1
658.593	1	3
659.779	1	-2
660.965	1	7
662.152	1	5
663.338	1	7
664.524	1	-7
665.710	1	3
666.896	1	-6
668.082	1	-3
669.268	1	-5
670.454	1	-3
671.640	1	5
672.826	1	1
674.011	1	-6
675.197	1	-10
676.383	1	-3
677.569	1	3
678.754	1	-4
679.940	1	-8
681.125	1	2
682.311	1	12
683.496	1	1
684.682	1	-6
685.867	1	-11
687.053	1	1
688.238	1	4
688.746	1	-2

File: GaN_sample F_spot 12_UVVIS_200 K_200um_800 ms 2x2mm1_485.txt
340.368	1	-2
341.565	1	-6
342.763	1	5
343.960	1	1
345.157	1	-6
346.354	1	2
347.552	1	-5
348.749	1	-11
349.946	1	-1
351.143	1	5
352.340	1	9
353.537	1	3
354.734	1	2
355.931	1	0
357.127	1	7
358.324	1	-5
359.521	1	6
360.718	1	4
361.914	1	11
363.111	1	-10
364.308	1	0
365.504	1	12
366.701	1	10
367.897	1	11
369.093	1	2
370.290	1	6
371.486	1	10
372.682	1	7
373.879	1	3
375.075	1	-6
376.271	1	12
377.467	1	0
378.663	1	-4
379.859	1	0
381.055	1	11
382.251	1	-1
383.447	1	0
384.643	1	4
385.839	1	0
387.035	1	2
388.230	1	1
389.426	1	-5
390.622	1	-8
391.817	1	-5
393.013	1	-9
394.208	1	-6
395.404	1	-4
396.599	1	-5
397.795	1	-3
398.990	1	-1
400.186	1	-2
401.381	1	-9
402.576	1	7
403.771	1	8
404.967	1	4
406.162	1	15
407.357	1	-14
408.552	1	-1
409.747	1	-4
410.942	1	4
412.137	1	2
413.332	1	-9
414.526	1	-4
415.721	1	-7
416.916	1	-12
418.111	1	1
419.305	1	9
420.500	1	-8
421.695	1	-8
422.889	1	-10
424.084	1	-2
425.278	1	8
426.472	1	4
427.667	1	3
428.861	1	-11
430.055	1	-4
431.250	1	2
432.444	1	-2
433.638	1	-5
434.832	1	7
436.026	1	-1
437.220	1	6
438.414	1	-7
439.608	1	-15
440.802	1	-10
441.996	1	-6
443.190	1	-4
444.384	1	-6
445.578	1	-11
446.771	1	0
447.965	1	-8
449.159	1	5
450.352	1	-8
451.546	1	-6
452.739	1	-2
453.933	1	-6
455.126	1	-7
456.320	1	-4
457.513	1	0
458.706	1	-6
459.899	1	3
461.093	1	7
462.286	1	-5
463.479	1	3
464.672	1	-8
465.865	1	-4
467.058	1	4
468.251	1	1
469.444	1	-8
470.637	1	4
471.830	1	-3
473.023	1	0
474.215	1	9
475.408	1	-7
476.601	1	1
477.793	1	3
478.986	1	-2
480.179	1	-2
481.371	1	2
482.564	1	5
483.756	1	2
484.948	1	-12
486.141	1	-2
487.333	1	-4
488.525	1	-7
489.718	1	-1
490.910	1	0
492.102	1	-6
493.294	1	-4
494.486	1	3
495.678	1	1
496.870	1	5
498.062	1	1
499.254	1	-6
500.446	1	-4
501.638	1	-1
502.829	1	6
504.021	1	1
505.213	1	2
506.404	1	3
507.596	1	-5
508.788	1	13
509.979	1	2
511.171	1	-4
512.362	1	-6
513.553	1	-5
514.745	1	-3
515.936	1	-6
517.127	1	-2
518.319	1	-1
519.510	1	3
520.701	1	7
521.892	1	5
523.083	1	2
524.274	1	1
525.465	1	3
526.656	1	7
527.847	1	5
529.038	1	-7
530.229	1	3
531.419	1	10
532.610	1	-4
533.801	1	9
534.991	1	3
536.182	1	6
537.373	1	-4
538.563	1	-8
539.754	1	11
540.944	1	4
542.134	1	8
543.325	1	4
544.515	1	-1
545.705	1	-3
546.896	1	-8
548.086	1	-4
549.276	1	2
550.466	1	1
551.656	1	3
552.846	1	-2
554.036	1	5
555.226	1	-9
556.416	1	-4
557.606	1	5
558.796	1	3
559.986	1	-1
561.175	1	-3
562.365	1	-1
563.555	1	-9
564.744	1	6
565.934	1	4
567.123	1	-9
568.313	1	8
569.502	1	-7
570.692	1	-1
571.881	1	10
573.070	1	3
574.260	1	-4
575.449	1	-4
576.638	1	-1
577.827	1	-10
579.016	1	12
580.205	1	2
581.394	1	1
582.583	1	12
583.772	1	6
584.961	1	1
586.150	1	0
587.339	1	4
588.528	1	2
589.717	1	2
590.905	1	5
592.094	1	-6
593.283	1	-4
594.471	1	11
595.660	1	2
596.848	1	-2
598.037	1	1
599.225	1	-6
600.413	1	15
601.602	1	3
602.790	1	2
603.978	1	-10
605.166	1	4
606.355	1	1
607.543	1	-5
608.731	1	-7
609.919	1	3
611.107	1	1
612.295	1	-14
613.483	1	2
614.671	1	1
615.858	1	10
617.046	1	4
618.234	1	-8
619.422	1	-9
620.609	1	-2
621.797	1	-3
622.985	1	3
624.172	1	-3
625.360	1	2
626.547	1	-10
627.735	1	-2
628.922	1	11
630.109	1	-16
631.297	1	4
632.484	1	-3
633.671	1	-6
634.858	1	2
636.045	1	7
637.232	1	5
638.419	1	-1
639.606	1	4
640.793	1	7
641.980	1	-1
643.167	1	-5
644.354	1	9
645.541	1	0
646.728	1	-7
647.914	1	-7
649.101	1	3
650.288	1	-3
651.474	1	-3
652.661	1	-2
653.847	1	2
655.034	1	-6
656.220	1	1
657.406	1	-3
658.593	1	9
659.779	1	-5
660.965	1	-3
662.152	1	8
663.338	1	2
664.524	1	2
665.710	1	-1
666.896	1	-7
668.082	1	-4
669.268	1	1
670.454	1	1
671.640	1	4
672.826	1	-5
674.011	1	1
675.197	1	-4
676.383	1	1
677.569	1	-1
678.754	1	-4
679.940	1	1
681.125	1	11
682.311	1	6
683.496	1	-3
684.682	1	-3
685.867	1	3
687.053	1	-3
688.238	1	1
688.746	1	-1

File: GaN_sample F_spot 12_UVVIS_200 K_200um_800 ms 2x2mm1_486.txt
340.368	1	4
341.565	1	-15
342.763	1	0
343.960	1	2
345.157	1	-12
346.354	1	-2
347.552	1	-5
348.749	1	-11
349.946	1	-4
351.143	1	1
352.340	1	2
353.537	1	1
354.734	1	4
355.931	1	2
357.127	1	-4
358.324	1	-14
359.521	1	0
360.718	1	1
361.914	1	-3
363.111	1	7
364.308	1	-2
365.504	1	7
366.701	1	4
367.897	1	3
369.093	1	0
370.290	1	10
371.486	1	6
372.682	1	9
373.879	1	-1
375.075	1	0
376.271	1	1
377.467	1	8
378.663	1	3
379.859	1	-1
381.055	1	6
382.251	1	-6
383.447	1	-9
384.643	1	9
385.839	1	0
387.035	1	-9
388.230	1	2
389.426	1	-4
390.622	1	2
391.817	1	-7
393.013	1	-5
394.208	1	0
395.404	1	-5
396.599	1	0
397.795	1	3
398.990	1	8
400.186	1	-3
401.381	1	-7
402.576	1	-7
403.771	1	1
404.967	1	1
406.162	1	5
407.357	1	-2
408.552	1	4
409.747	1	-5
410.942	1	7
412.137	1	1
413.332	1	-1
414.526	1	-8
415.721	1	10
416.916	1	0
418.111	1	-3
419.305	1	-1
420.500	1	-3
421.695	1	-7
422.889	1	-17
424.084	1	-1
425.278	1	13
426.472	1	-4
427.667	1	0
428.861	1	-5
430.055	1	-1
431.250	1	-8
432.444	1	-1
433.638	1	-10
434.832	1	-3
436.026	1	7
437.220	1	4
438.414	1	-15
439.608	1	-7
440.802	1	-4
441.996	1	-1
443.190	1	5
444.384	1	-7
445.578	1	-8
446.771	1	4
447.965	1	-4
449.159	1	-15
450.352	1	-10
451.546	1	-8
452.739	1	-6
453.933	1	-6
455.126	1	-7
456.320	1	-6
457.513	1	4
458.706	1	7
459.899	1	-9
461.093	1	-6
462.286	1	-1
463.479	1	-3
464.672	1	-4
465.865	1	2
467.058	1	-2
468.251	1	-6
469.444	1	-2
470.637	1	10
471.830	1	3
473.023	1	0
474.215	1	7
475.408	1	-1
476.601	1	-1
477.793	1	-1
478.986	1	-1
480.179	1	-2
481.371	1	1
482.564	1	1
483.756	1	8
484.948	1	-11
486.141	1	-5
487.333	1	-2
488.525	1	-1
489.718	1	-3
490.910	1	7
492.102	1	-3
493.294	1	-11
494.486	1	-1
495.678	1	6
496.870	1	1
498.062	1	3
499.254	1	6
500.446	1	-11
501.638	1	-12
502.829	1	1
504.021	1	7
505.213	1	4
506.404	1	-1
507.596	1	2
508.788	1	8
509.979	1	-4
511.171	1	-4
512.362	1	-6
513.553	1	-9
514.745	1	-9
515.936	1	-7
517.127	1	0
518.319	1	-1
519.510	1	-3
520.701	1	1
521.892	1	1
523.083	1	-1
524.274	1	-6
525.465	1	8
526.656	1	-4
527.847	1	6
529.038	1	6
530.229	1	4
531.419	1	7
532.610	1	-3
533.801	1	13
534.991	1	1
536.182	1	-5
537.373	1	10
538.563	1	0
539.754	1	10
540.944	1	-6
542.134	1	4
543.325	1	-4
544.515	1	-2
545.705	1	1
546.896	1	-4
548.086	1	-7
549.276	1	-1
550.466	1	0
551.656	1	6
552.846	1	-4
554.036	1	1
555.226	1	-1
556.416	1	-3
557.606	1	2
558.796	1	-6
559.986	1	-4
561.175	1	8
562.365	1	-6
563.555	1	-4
564.744	1	-1
565.934	1	3
567.123	1	6
568.313	1	4
569.502	1	-5
570.692	1	4
571.881	1	9
573.070	1	3
574.260	1	6
575.449	1	-2
576.638	1	-13
577.827	1	-1
579.016	1	0
580.205	1	2
581.394	1	-2
582.583	1	12
583.772	1	3
584.961	1	3
586.150	1	0
587.339	1	5
588.528	1	-3
589.717	1	-4
590.905	1	-1
592.094	1	0
593.283	1	1
594.471	1	16
595.660	1	-2
596.848	1	-1
598.037	1	-3
599.225	1	-12
600.413	1	7
601.602	1	2
602.790	1	7
603.978	1	-1
605.166	1	-3
606.355	1	0
607.543	1	6
608.731	1	-2
609.919	1	4
611.107	1	3
612.295	1	-14
613.483	1	5
614.671	1	6
615.858	1	9
617.046	1	5
618.234	1	0
619.422	1	-2
620.609	1	5
621.797	1	6
622.985	1	0
624.172	1	-8
625.360	1	4
626.547	1	-2
627.735	1	5
628.922	1	3
630.109	1	-3
631.297	1	-6
632.484	1	3
633.671	1	-4
634.858	1	-7
636.045	1	4
637.232	1	-4
638.419	1	-10
639.606	1	0
640.793	1	8
641.980	1	2
643.167	1	-3
644.354	1	2
645.541	1	5
646.728	1	-2
647.914	1	-7
649.101	1	0
650.288	1	9
651.474	1	-4
652.661	1	4
653.847	1	-1
655.034	1	-4
656.220	1	-6
657.406	1	-3
658.593	1	9
659.779	1	-2
660.965	1	12
662.152	1	6
663.338	1	7
664.524	1	2
665.710	1	0
666.896	1	-4
668.082	1	8
669.268	1	-3
670.454	1	9
671.640	1	-7
672.826	1	1
674.011	1	4
675.197	1	-12
676.383	1	11
677.569	1	-6
678.754	1	-4
679.940	1	-3
681.125	1	4
682.311	1	5
683.496	1	10
684.682	1	-4
685.867	1	-6
687.053	1	-4
688.238	1	1
688.746	1	1

File: GaN_sample F_spot 12_UVVIS_200 K_200um_800 ms 2x2mm1_487.txt
340.368	1	-3
341.565	1	-6
342.763	1	12
343.960	1	1
345.157	1	-4
346.354	1	-4
347.552	1	-11
348.749	1	-7
349.946	1	-12
351.143	1	-7
352.340	1	-1
353.537	1	0
354.734	1	2
355.931	1	-4
357.127	1	2
358.324	1	-6
359.521	1	7
360.718	1	-3
361.914	1	5
363.111	1	1
364.308	1	2
365.504	1	7
366.701	1	4
367.897	1	2
369.093	1	5
370.290	1	8
371.486	1	10
372.682	1	12
373.879	1	7
375.075	1	1
376.271	1	15
377.467	1	10
378.663	1	-3
379.859	1	1
381.055	1	0
382.251	1	-5
383.447	1	2
384.643	1	17
385.839	1	-2
387.035	1	4
388.230	1	7
389.426	1	1
390.622	1	3
391.817	1	-1
393.013	1	3
394.208	1	-3
395.404	1	3
396.599	1	1
397.795	1	-6
398.990	1	-6
400.186	1	-1
401.381	1	3
402.576	1	-1
403.771	1	-2
404.967	1	7
406.162	1	4
407.357	1	-8
408.552	1	-7
409.747	1	-4
410.942	1	7
412.137	1	8
413.332	1	-3
414.526	1	-4
415.721	1	3
416.916	1	-7
418.111	1	3
419.305	1	-6
420.500	1	0
421.695	1	0
422.889	1	-18
424.084	1	-1
425.278	1	7
426.472	1	-7
427.667	1	-4
428.861	1	10
430.055	1	3
431.250	1	-3
432.444	1	4
433.638	1	0
434.832	1	-2
436.026	1	2
437.220	1	0
438.414	1	-19
439.608	1	-7
440.802	1	3
441.996	1	6
443.190	1	1
444.384	1	-9
445.578	1	-9
446.771	1	6
447.965	1	0
449.159	1	-7
450.352	1	-4
451.546	1	-3
452.739	1	3
453.933	1	-5
455.126	1	-13
456.320	1	-9
457.513	1	0
458.706	1	3
459.899	1	-5
461.093	1	-6
462.286	1	4
463.479	1	-5
464.672	1	-3
465.865	1	-5
467.058	1	-6
468.251	1	-11
469.444	1	-3
470.637	1	2
471.830	1	3
473.023	1	1
474.215	1	5
475.408	1	-3
476.601	1	-1
477.793	1	2
478.986	1	0
480.179	1	2
481.371	1	-1
482.564	1	-3
483.756	1	12
484.948	1	-7
486.141	1	-6
487.333	1	-2
488.525	1	-1
489.718	1	-9
490.910	1	-9
492.102	1	-4
493.294	1	-2
494.486	1	9
495.678	1	-6
496.870	1	5
498.062	1	3
499.254	1	-5
500.446	1	-9
501.638	1	-8
502.829	1	5
504.021	1	-1
505.213	1	8
506.404	1	0
507.596	1	2
508.788	1	14
509.979	1	-5
511.171	1	-3
512.362	1	0
513.553	1	-19
514.745	1	-3
515.936	1	1
517.127	1	-2
518.319	1	3
519.510	1	-8
520.701	1	3
521.892	1	-3
523.083	1	2
524.274	1	2
525.465	1	4
526.656	1	-8
527.847	1	-2
529.038	1	-6
530.229	1	2
531.419	1	2
532.610	1	1
533.801	1	7
534.991	1	3
536.182	1	-4
537.373	1	-4
538.563	1	4
539.754	1	6
540.944	1	-4
542.134	1	7
543.325	1	2
544.515	1	-2
545.705	1	-5
546.896	1	-7
548.086	1	5
549.276	1	-9
550.466	1	-5
551.656	1	6
552.846	1	5
554.036	1	-4
555.226	1	-11
556.416	1	-3
557.606	1	1
558.796	1	-1
559.986	1	-4
561.175	1	0
562.365	1	2
563.555	1	-8
564.744	1	2
565.934	1	8
567.123	1	-2
568.313	1	-1
569.502	1	-11
570.692	1	2
571.881	1	2
573.070	1	5
574.260	1	15
575.449	1	-10
576.638	1	-7
577.827	1	-1
579.016	1	4
580.205	1	2
581.394	1	-4
582.583	1	7
583.772	1	6
584.961	1	3
586.150	1	-3
587.339	1	2
588.528	1	5
589.717	1	6
590.905	1	-4
592.094	1	6
593.283	1	-3
594.471	1	5
595.660	1	3
596.848	1	-13
598.037	1	2
599.225	1	-6
600.413	1	4
601.602	1	10
602.790	1	-2
603.978	1	-2
605.166	1	5
606.355	1	-2
607.543	1	-9
608.731	1	-4
609.919	1	3
611.107	1	-5
612.295	1	-10
613.483	1	4
614.671	1	-3
615.858	1	-1
617.046	1	2
618.234	1	-5
619.422	1	-6
620.609	1	-1
621.797	1	-8
622.985	1	10
624.172	1	0
625.360	1	4
626.547	1	2
627.735	1	3
628.922	1	0
630.109	1	-3
631.297	1	3
632.484	1	-5
633.671	1	-10
634.858	1	-3
636.045	1	12
637.232	1	-8
638.419	1	-3
639.606	1	5
640.793	1	5
641.980	1	4
643.167	1	-11
644.354	1	-4
645.541	1	-7
646.728	1	-11
647.914	1	6
649.101	1	-3
650.288	1	1
651.474	1	-7
652.661	1	0
653.847	1	9
655.034	1	0
656.220	1	-12
657.406	1	0
658.593	1	0
659.779	1	-2
660.965	1	6
662.152	1	-10
663.338	1	11
664.524	1	-7
665.710	1	2
666.896	1	-4
668.082	1	2
669.268	1	-2
670.454	1	10
671.640	1	0
672.826	1	-3
674.011	1	-13
675.197	1	-15
676.383	1	-2
677.569	1	-5
678.754	1	0
679.940	1	-3
681.125	1	4
682.311	1	7
683.496	1	-2
684.682	1	0
685.867	1	-1
687.053	1	-3
688.238	1	0
688.746	1	1

File: GaN_sample F_spot 12_UVVIS_200 K_200um_800 ms 2x2mm1_488.txt
340.368	1	-1
341.565	1	-6
342.763	1	0
343.960	1	-8
345.157	1	-4
346.354	1	-5
347.552	1	-3
348.749	1	-8
349.946	1	-10
351.143	1	-4
352.340	1	8
353.537	1	2
354.734	1	-2
355.931	1	-3
357.127	1	-4
358.324	1	-4
359.521	1	4
360.718	1	6
361.914	1	3
363.111	1	4
364.308	1	2
365.504	1	9
366.701	1	8
367.897	1	7
369.093	1	3
370.290	1	-1
371.486	1	15
372.682	1	16
373.879	1	6
375.075	1	5
376.271	1	11
377.467	1	1
378.663	1	0
379.859	1	9
381.055	1	12
382.251	1	-5
383.447	1	2
384.643	1	10
385.839	1	4
387.035	1	-1
388.230	1	11
389.426	1	-4
390.622	1	1
391.817	1	6
393.013	1	-1
394.208	1	-6
395.404	1	-2
396.599	1	3
397.795	1	2
398.990	1	-7
400.186	1	-3
401.381	1	-1
402.576	1	4
403.771	1	4
404.967	1	0
406.162	1	0
407.357	1	-9
408.552	1	-9
409.747	1	-8
410.942	1	5
412.137	1	-1
413.332	1	2
414.526	1	-1
415.721	1	-10
416.916	1	1
418.111	1	-5
419.305	1	7
420.500	1	-6
421.695	1	-6
422.889	1	-9
424.084	1	-4
425.278	1	8
426.472	1	2
427.667	1	15
428.861	1	-6
430.055	1	-1
431.250	1	-8
432.444	1	3
433.638	1	4
434.832	1	-2
436.026	1	14
437.220	1	5
438.414	1	-10
439.608	1	-6
440.802	1	-4
441.996	1	1
443.190	1	-3
444.384	1	-5
445.578	1	-12
446.771	1	8
447.965	1	3
449.159	1	-9
450.352	1	-6
451.546	1	0
452.739	1	3
453.933	1	-8
455.126	1	-12
456.320	1	-4
457.513	1	13
458.706	1	-4
459.899	1	-5
461.093	1	1
462.286	1	3
463.479	1	-2
464.672	1	1
465.865	1	-7
467.058	1	-7
468.251	1	-1
469.444	1	-7
470.637	1	-6
471.830	1	-1
473.023	1	3
474.215	1	13
475.408	1	-3
476.601	1	9
477.793	1	5
478.986	1	-1
480.179	1	1
481.371	1	2
482.564	1	-6
483.756	1	0
484.948	1	-6
486.141	1	-2
487.333	1	-3
488.525	1	-1
489.718	1	2
490.910	1	4
492.102	1	-7
493.294	1	-5
494.486	1	0
495.678	1	-8
496.870	1	7
498.062	1	5
499.254	1	-2
500.446	1	-7
501.638	1	-8
502.829	1	-6
504.021	1	-3
505.213	1	9
506.404	1	0
507.596	1	-5
508.788	1	6
509.979	1	-3
511.171	1	-1
512.362	1	-11
513.553	1	-2
514.745	1	-5
515.936	1	-7
517.127	1	-8
518.319	1	-8
519.510	1	-3
520.701	1	-1
521.892	1	1
523.083	1	-5
524.274	1	0
525.465	1	6
526.656	1	7
527.847	1	-2
529.038	1	-2
530.229	1	1
531.419	1	4
532.610	1	0
533.801	1	14
534.991	1	1
536.182	1	-4
537.373	1	0
538.563	1	11
539.754	1	-2
540.944	1	-5
542.134	1	11
543.325	1	-3
544.515	1	2
545.705	1	0
546.896	1	-2
548.086	1	-3
549.276	1	-3
550.466	1	9
551.656	1	-3
552.846	1	-4
554.036	1	2
555.226	1	-2
556.416	1	-8
557.606	1	0
558.796	1	8
559.986	1	-8
561.175	1	4
562.365	1	2
563.555	1	-3
564.744	1	2
565.934	1	3
567.123	1	-3
568.313	1	2
569.502	1	8
570.692	1	2
571.881	1	14
573.070	1	4
574.260	1	13
575.449	1	-4
576.638	1	-10
577.827	1	-2
579.016	1	2
580.205	1	-6
581.394	1	-3
582.583	1	5
583.772	1	2
584.961	1	8
586.150	1	-2
587.339	1	-7
588.528	1	6
589.717	1	-4
590.905	1	-1
592.094	1	7
593.283	1	0
594.471	1	16
595.660	1	2
596.848	1	-4
598.037	1	-6
599.225	1	-7
600.413	1	9
601.602	1	6
602.790	1	1
603.978	1	3
605.166	1	3
606.355	1	3
607.543	1	-4
608.731	1	-6
609.919	1	3
611.107	1	-6
612.295	1	-5
613.483	1	10
614.671	1	5
615.858	1	1
617.046	1	7
618.234	1	0
619.422	1	-13
620.609	1	-6
621.797	1	-5
622.985	1	-7
624.172	1	-9
625.360	1	6
626.547	1	-3
627.735	1	4
628.922	1	10
630.109	1	-14
631.297	1	0
632.484	1	-9
633.671	1	-4
634.858	1	-2
636.045	1	15
637.232	1	-6
638.419	1	-6
639.606	1	0
640.793	1	4
641.980	1	-4
643.167	1	-6
644.354	1	0
645.541	1	-9
646.728	1	-2
647.914	1	-13
649.101	1	-4
650.288	1	-3
651.474	1	-8
652.661	1	-7
653.847	1	5
655.034	1	7
656.220	1	-7
657.406	1	6
658.593	1	2
659.779	1	1
660.965	1	9
662.152	1	6
663.338	1	14
664.524	1	-2
665.710	1	-5
666.896	1	-7
668.082	1	-4
669.268	1	3
670.454	1	5
671.640	1	-11
672.826	1	8
674.011	1	4
675.197	1	-10
676.383	1	1
677.569	1	2
678.754	1	-3
679.940	1	-9
681.125	1	-3
682.311	1	-3
683.496	1	0
684.682	1	-18
685.867	1	-7
687.053	1	-6
688.238	1	-5
688.746	1	-4

File: GaN_sample F_spot 12_UVVIS_200 K_200um_800 ms 2x2mm1_489.txt
340.368	1	10
341.565	1	-12
342.763	1	1
343.960	1	-3
345.157	1	5
346.354	1	-1
347.552	1	-8
348.749	1	-7
349.946	1	-5
351.143	1	-2
352.340	1	4
353.537	1	0
354.734	1	2
355.931	1	-1
357.127	1	3
358.324	1	-9
359.521	1	3
360.718	1	-3
361.914	1	-1
363.111	1	3
364.308	1	5
365.504	1	1
366.701	1	9
367.897	1	10
369.093	1	0
370.290	1	9
371.486	1	9
372.682	1	6
373.879	1	8
375.075	1	0
376.271	1	1
377.467	1	-1
378.663	1	0
379.859	1	-2
381.055	1	9
382.251	1	-4
383.447	1	-3
384.643	1	6
385.839	1	5
387.035	1	1
388.230	1	-2
389.426	1	3
390.622	1	1
391.817	1	-3
393.013	1	-3
394.208	1	0
395.404	1	-9
396.599	1	-3
397.795	1	1
398.990	1	-1
400.186	1	-4
401.381	1	-1
402.576	1	-1
403.771	1	-3
404.967	1	3
406.162	1	4
407.357	1	0
408.552	1	-7
409.747	1	-3
410.942	1	6
412.137	1	3
413.332	1	-4
414.526	1	0
415.721	1	-4
416.916	1	-3
418.111	1	-4
419.305	1	-1
420.500	1	-1
421.695	1	-6
422.889	1	-5
424.084	1	0
425.278	1	9
426.472	1	3
427.667	1	4
428.861	1	-5
430.055	1	10
431.250	1	-7
432.444	1	-6
433.638	1	-6
434.832	1	1
436.026	1	9
437.220	1	-3
438.414	1	-12
439.608	1	-5
440.802	1	-5
441.996	1	-3
443.190	1	3
444.384	1	-13
445.578	1	-9
446.771	1	9
447.965	1	-4
449.159	1	1
450.352	1	-8
451.546	1	0
452.739	1	3
453.933	1	-7
455.126	1	-2
456.320	1	-1
457.513	1	5
458.706	1	-6
459.899	1	2
461.093	1	4
462.286	1	1
463.479	1	-10
464.672	1	-6
465.865	1	-3
467.058	1	1
468.251	1	-8
469.444	1	-15
470.637	1	7
471.830	1	-4
473.023	1	3
474.215	1	18
475.408	1	4
476.601	1	6
477.793	1	-7
478.986	1	3
480.179	1	5
481.371	1	7
482.564	1	4
483.756	1	3
484.948	1	-7
486.141	1	-6
487.333	1	-2
488.525	1	6
489.718	1	2
490.910	1	-7
492.102	1	-9
493.294	1	-8
494.486	1	2
495.678	1	-2
496.870	1	-3
498.062	1	3
499.254	1	-2
500.446	1	-9
501.638	1	-4
502.829	1	-1
504.021	1	2
505.213	1	7
506.404	1	10
507.596	1	-1
508.788	1	22
509.979	1	-3
511.171	1	-3
512.362	1	-6
513.553	1	-5
514.745	1	-4
515.936	1	-8
517.127	1	-5
518.319	1	-9
519.510	1	2
520.701	1	-7
521.892	1	1
523.083	1	4
524.274	1	-1
525.465	1	-1
526.656	1	4
527.847	1	7
529.038	1	1
530.229	1	7
531.419	1	11
532.610	1	-4
533.801	1	8
534.991	1	-8
536.182	1	-2
537.373	1	-7
538.563	1	5
539.754	1	-1
540.944	1	-10
542.134	1	11
543.325	1	2
544.515	1	-10
545.705	1	-4
546.896	1	-3
548.086	1	7
549.276	1	-4
550.466	1	-9
551.656	1	-7
552.846	1	9
554.036	1	-3
555.226	1	-9
556.416	1	-7
557.606	1	7
558.796	1	4
559.986	1	-5
561.175	1	1
562.365	1	0
563.555	1	-4
564.744	1	-1
565.934	1	5
567.123	1	-3
568.313	1	2
569.502	1	-7
570.692	1	4
571.881	1	12
573.070	1	2
574.260	1	5
575.449	1	-6
576.638	1	-8
577.827	1	-3
579.016	1	5
580.205	1	2
581.394	1	1
582.583	1	5
583.772	1	6
584.961	1	10
586.150	1	0
587.339	1	-3
588.528	1	1
589.717	1	0
590.905	1	-2
592.094	1	3
593.283	1	-7
594.471	1	7
595.660	1	3
596.848	1	0
598.037	1	0
599.225	1	-3
600.413	1	10
601.602	1	3
602.790	1	-5
603.978	1	1
605.166	1	2
606.355	1	-2
607.543	1	-6
608.731	1	-7
609.919	1	2
611.107	1	1
612.295	1	-10
613.483	1	4
614.671	1	8
615.858	1	2
617.046	1	-14
618.234	1	3
619.422	1	-15
620.609	1	0
621.797	1	-9
622.985	1	7
624.172	1	3
625.360	1	3
626.547	1	-4
627.735	1	3
628.922	1	7
630.109	1	-14
631.297	1	1
632.484	1	-5
633.671	1	-9
634.858	1	-10
636.045	1	8
637.232	1	-9
638.419	1	-5
639.606	1	3
640.793	1	7
641.980	1	-7
643.167	1	-5
644.354	1	3
645.541	1	-2
646.728	1	-1
647.914	1	-6
649.101	1	-4
650.288	1	-3
651.474	1	-15
652.661	1	5
653.847	1	9
655.034	1	2
656.220	1	-3
657.406	1	6
658.593	1	6
659.779	1	4
660.965	1	3
662.152	1	-2
663.338	1	5
664.524	1	-3
665.710	1	0
666.896	1	-7
668.082	1	8
669.268	1	-10
670.454	1	4
671.640	1	-4
672.826	1	-4
674.011	1	-1
675.197	1	-6
676.383	1	3
677.569	1	-3
678.754	1	0
679.940	1	-1
681.125	1	4
682.311	1	3
683.496	1	4
684.682	1	-7
685.867	1	-3
687.053	1	-1
688.238	1	4
688.746	1	-2