Folder: cryo-il_analysis/Data/GaN_200K_800ms (part 42)

File: GaN_sample F_spot 12_UVVIS_200 K_200um_800 ms 2x2mm1_493.txt
340.368	1	3
341.565	1	-17
342.763	1	5
343.960	1	-3
345.157	1	-9
346.354	1	-5
347.552	1	-2
348.749	1	-14
349.946	1	0
351.143	1	-5
352.340	1	8
353.537	1	-9
354.734	1	3
355.931	1	-2
357.127	1	0
358.324	1	-8
359.521	1	9
360.718	1	-3
361.914	1	0
363.111	1	5
364.308	1	2
365.504	1	11
366.701	1	3
367.897	1	5
369.093	1	3
370.290	1	8
371.486	1	12
372.682	1	5
373.879	1	7
375.075	1	3
376.271	1	11
377.467	1	1
378.663	1	6
379.859	1	3
381.055	1	3
382.251	1	-1
383.447	1	-9
384.643	1	5
385.839	1	-1
387.035	1	8
388.230	1	6
389.426	1	1
390.622	1	-4
391.817	1	-1
393.013	1	0
394.208	1	-3
395.404	1	-4
396.599	1	-5
397.795	1	2
398.990	1	-2
400.186	1	-2
401.381	1	-5
402.576	1	1
403.771	1	4
404.967	1	-4
406.162	1	4
407.357	1	-9
408.552	1	-10
409.747	1	-5
410.942	1	-1
412.137	1	3
413.332	1	-8
414.526	1	-12
415.721	1	-4
416.916	1	-15
418.111	1	-4
419.305	1	5
420.500	1	-5
421.695	1	-6
422.889	1	-7
424.084	1	1
425.278	1	17
426.472	1	-3
427.667	1	-1
428.861	1	-5
430.055	1	7
431.250	1	-3
432.444	1	5
433.638	1	-3
434.832	1	3
436.026	1	8
437.220	1	5
438.414	1	-2
439.608	1	-16
440.802	1	-5
441.996	1	11
443.190	1	-3
444.384	1	-17
445.578	1	-13
446.771	1	10
447.965	1	0
449.159	1	-16
450.352	1	-6
451.546	1	0
452.739	1	1
453.933	1	-8
455.126	1	-3
456.320	1	-1
457.513	1	11
458.706	1	-5
459.899	1	3
461.093	1	-4
462.286	1	-5
463.479	1	-4
464.672	1	-2
465.865	1	-9
467.058	1	2
468.251	1	-3
469.444	1	-13
470.637	1	6
471.830	1	-6
473.023	1	1
474.215	1	11
475.408	1	-2
476.601	1	3
477.793	1	-2
478.986	1	-3
480.179	1	-6
481.371	1	0
482.564	1	-4
483.756	1	-3
484.948	1	-9
486.141	1	-7
487.333	1	1
488.525	1	-2
489.718	1	-1
490.910	1	3
492.102	1	-3
493.294	1	-10
494.486	1	-3
495.678	1	-6
496.870	1	4
498.062	1	2
499.254	1	6
500.446	1	-9
501.638	1	-12
502.829	1	-1
504.021	1	-7
505.213	1	4
506.404	1	3
507.596	1	1
508.788	1	14
509.979	1	-11
511.171	1	-9
512.362	1	-12
513.553	1	-14
514.745	1	-1
515.936	1	-11
517.127	1	-1
518.319	1	3
519.510	1	-10
520.701	1	0
521.892	1	-2
523.083	1	1
524.274	1	-3
525.465	1	13
526.656	1	-3
527.847	1	2
529.038	1	-2
530.229	1	1
531.419	1	-1
532.610	1	-8
533.801	1	6
534.991	1	2
536.182	1	-8
537.373	1	-6
538.563	1	4
539.754	1	1
540.944	1	1
542.134	1	7
543.325	1	2
544.515	1	-1
545.705	1	-2
546.896	1	-3
548.086	1	-4
549.276	1	-4
550.466	1	5
551.656	1	3
552.846	1	2
554.036	1	2
555.226	1	-11
556.416	1	-5
557.606	1	4
558.796	1	-5
559.986	1	-2
561.175	1	1
562.365	1	1
563.555	1	4
564.744	1	-3
565.934	1	0
567.123	1	-4
568.313	1	12
569.502	1	-5
570.692	1	2
571.881	1	11
573.070	1	-5
574.260	1	9
575.449	1	1
576.638	1	-2
577.827	1	-17
579.016	1	6
580.205	1	-8
581.394	1	-7
582.583	1	16
583.772	1	1
584.961	1	-7
586.150	1	-5
587.339	1	6
588.528	1	9
589.717	1	0
590.905	1	-6
592.094	1	-5
593.283	1	-2
594.471	1	7
595.660	1	3
596.848	1	-5
598.037	1	-3
599.225	1	-11
600.413	1	6
601.602	1	7
602.790	1	-2
603.978	1	3
605.166	1	10
606.355	1	-8
607.543	1	-1
608.731	1	6
609.919	1	0
611.107	1	-1
612.295	1	1
613.483	1	8
614.671	1	-6
615.858	1	5
617.046	1	-1
618.234	1	-3
619.422	1	-4
620.609	1	6
621.797	1	-2
622.985	1	5
624.172	1	-5
625.360	1	5
626.547	1	-3
627.735	1	-1
628.922	1	4
630.109	1	-15
631.297	1	-1
632.484	1	-5
633.671	1	-11
634.858	1	-5
636.045	1	11
637.232	1	-7
638.419	1	2
639.606	1	-1
640.793	1	4
641.980	1	-2
643.167	1	-5
644.354	1	-1
645.541	1	2
646.728	1	-1
647.914	1	-8
649.101	1	4
650.288	1	1
651.474	1	-13
652.661	1	0
653.847	1	14
655.034	1	0
656.220	1	-5
657.406	1	-6
658.593	1	10
659.779	1	-8
660.965	1	-2
662.152	1	4
663.338	1	12
664.524	1	-2
665.710	1	-3
666.896	1	-1
668.082	1	9
669.268	1	-6
670.454	1	-2
671.640	1	0
672.826	1	-12
674.011	1	0
675.197	1	-5
676.383	1	0
677.569	1	-11
678.754	1	-10
679.940	1	-2
681.125	1	8
682.311	1	2
683.496	1	1
684.682	1	-15
685.867	1	4
687.053	1	3
688.238	1	-2
688.746	1	0

File: GaN_sample F_spot 12_UVVIS_200 K_200um_800 ms 2x2mm1_495.txt
340.368	1	2
341.565	1	1
342.763	1	1
343.960	1	4
345.157	1	1
346.354	1	-3
347.552	1	-6
348.749	1	-8
349.946	1	-16
351.143	1	2
352.340	1	-1
353.537	1	-2
354.734	1	0
355.931	1	1
357.127	1	-5
358.324	1	4
359.521	1	4
360.718	1	3
361.914	1	-6
363.111	1	0
364.308	1	-3
365.504	1	4
366.701	1	0
367.897	1	8
369.093	1	0
370.290	1	16
371.486	1	15
372.682	1	12
373.879	1	-2
375.075	1	-3
376.271	1	3
377.467	1	0
378.663	1	-6
379.859	1	5
381.055	1	11
382.251	1	-5
383.447	1	-7
384.643	1	10
385.839	1	-5
387.035	1	7
388.230	1	8
389.426	1	-2
390.622	1	-6
391.817	1	2
393.013	1	-7
394.208	1	-1
395.404	1	-2
396.599	1	-1
397.795	1	3
398.990	1	-1
400.186	1	1
401.381	1	-6
402.576	1	0
403.771	1	-3
404.967	1	-4
406.162	1	10
407.357	1	-7
408.552	1	-1
409.747	1	-4
410.942	1	3
412.137	1	0
413.332	1	4
414.526	1	-3
415.721	1	-6
416.916	1	-10
418.111	1	-8
419.305	1	9
420.500	1	-4
421.695	1	-3
422.889	1	-7
424.084	1	1
425.278	1	5
426.472	1	12
427.667	1	9
428.861	1	-1
430.055	1	7
431.250	1	-1
432.444	1	12
433.638	1	-2
434.832	1	-1
436.026	1	-2
437.220	1	6
438.414	1	-7
439.608	1	-16
440.802	1	-5
441.996	1	11
443.190	1	1
444.384	1	-5
445.578	1	-7
446.771	1	6
447.965	1	-2
449.159	1	-6
450.352	1	-1
451.546	1	-4
452.739	1	1
453.933	1	0
455.126	1	-7
456.320	1	-1
457.513	1	8
458.706	1	1
459.899	1	-3
461.093	1	2
462.286	1	0
463.479	1	-8
464.672	1	-3
465.865	1	-4
467.058	1	-10
468.251	1	-3
469.444	1	-7
470.637	1	-2
471.830	1	-4
473.023	1	-4
474.215	1	6
475.408	1	-2
476.601	1	1
477.793	1	-1
478.986	1	-7
480.179	1	0
481.371	1	4
482.564	1	-1
483.756	1	-2
484.948	1	-7
486.141	1	-10
487.333	1	0
488.525	1	-5
489.718	1	-2
490.910	1	2
492.102	1	3
493.294	1	-3
494.486	1	2
495.678	1	-7
496.870	1	5
498.062	1	-7
499.254	1	6
500.446	1	-10
501.638	1	0
502.829	1	-8
504.021	1	5
505.213	1	8
506.404	1	2
507.596	1	2
508.788	1	18
509.979	1	-1
511.171	1	-8
512.362	1	0
513.553	1	-11
514.745	1	-4
515.936	1	-3
517.127	1	-5
518.319	1	0
519.510	1	3
520.701	1	4
521.892	1	0
523.083	1	-2
524.274	1	0
525.465	1	3
526.656	1	-9
527.847	1	5
529.038	1	0
530.229	1	-3
531.419	1	3
532.610	1	-8
533.801	1	8
534.991	1	0
536.182	1	-5
537.373	1	4
538.563	1	6
539.754	1	2
540.944	1	-8
542.134	1	5
543.325	1	0
544.515	1	2
545.705	1	3
546.896	1	3
548.086	1	2
549.276	1	-7
550.466	1	-4
551.656	1	2
552.846	1	-1
554.036	1	-9
555.226	1	-3
556.416	1	-9
557.606	1	-3
558.796	1	-11
559.986	1	-2
561.175	1	4
562.365	1	9
563.555	1	-3
564.744	1	-5
565.934	1	1
567.123	1	4
568.313	1	2
569.502	1	1
570.692	1	11
571.881	1	10
573.070	1	3
574.260	1	3
575.449	1	-3
576.638	1	-3
577.827	1	-2
579.016	1	-1
580.205	1	-1
581.394	1	0
582.583	1	4
583.772	1	-2
584.961	1	-3
586.150	1	5
587.339	1	1
588.528	1	-4
589.717	1	4
590.905	1	-1
592.094	1	-8
593.283	1	-3
594.471	1	7
595.660	1	3
596.848	1	1
598.037	1	0
599.225	1	-8
600.413	1	13
601.602	1	14
602.790	1	-6
603.978	1	-8
605.166	1	-2
606.355	1	7
607.543	1	0
608.731	1	-6
609.919	1	8
611.107	1	-7
612.295	1	-2
613.483	1	0
614.671	1	1
615.858	1	-2
617.046	1	-7
618.234	1	-3
619.422	1	-9
620.609	1	9
621.797	1	-3
622.985	1	8
624.172	1	-2
625.360	1	8
626.547	1	2
627.735	1	0
628.922	1	4
630.109	1	-12
631.297	1	1
632.484	1	1
633.671	1	-11
634.858	1	0
636.045	1	15
637.232	1	-9
638.419	1	-15
639.606	1	-7
640.793	1	3
641.980	1	2
643.167	1	3
644.354	1	1
645.541	1	4
646.728	1	-6
647.914	1	-6
649.101	1	-6
650.288	1	1
651.474	1	-5
652.661	1	-8
653.847	1	7
655.034	1	-2
656.220	1	-6
657.406	1	3
658.593	1	5
659.779	1	0
660.965	1	7
662.152	1	2
663.338	1	6
664.524	1	5
665.710	1	-5
666.896	1	-7
668.082	1	5
669.268	1	-6
670.454	1	5
671.640	1	2
672.826	1	-2
674.011	1	7
675.197	1	-5
676.383	1	-2
677.569	1	-14
678.754	1	-6
679.940	1	3
681.125	1	2
682.311	1	1
683.496	1	-5
684.682	1	-5
685.867	1	6
687.053	1	3
688.238	1	-4
688.746	1	-3

File: GaN_sample F_spot 12_UVVIS_200 K_200um_800 ms 2x2mm1_499.txt
340.368	1	4
341.565	1	-16
342.763	1	5
343.960	1	2
345.157	1	-9
346.354	1	2
347.552	1	-10
348.749	1	-9
349.946	1	0
351.143	1	-8
352.340	1	1
353.537	1	-7
354.734	1	6
355.931	1	0
357.127	1	5
358.324	1	3
359.521	1	9
360.718	1	0
361.914	1	7
363.111	1	3
364.308	1	2
365.504	1	8
366.701	1	2
367.897	1	8
369.093	1	-1
370.290	1	12
371.486	1	5
372.682	1	7
373.879	1	3
375.075	1	-3
376.271	1	8
377.467	1	0
378.663	1	-3
379.859	1	-1
381.055	1	7
382.251	1	-9
383.447	1	1
384.643	1	8
385.839	1	-6
387.035	1	-1
388.230	1	0
389.426	1	-12
390.622	1	-3
391.817	1	2
393.013	1	-6
394.208	1	4
395.404	1	-4
396.599	1	-7
397.795	1	0
398.990	1	1
400.186	1	-4
401.381	1	-8
402.576	1	-3
403.771	1	-4
404.967	1	-2
406.162	1	5
407.357	1	-3
408.552	1	-4
409.747	1	-4
410.942	1	10
412.137	1	1
413.332	1	4
414.526	1	-4
415.721	1	-4
416.916	1	-4
418.111	1	-2
419.305	1	2
420.500	1	-1
421.695	1	-10
422.889	1	-8
424.084	1	0
425.278	1	6
426.472	1	-6
427.667	1	3
428.861	1	2
430.055	1	-2
431.250	1	-1
432.444	1	4
433.638	1	7
434.832	1	0
436.026	1	4
437.220	1	3
438.414	1	-6
439.608	1	-10
440.802	1	-10
441.996	1	6
443.190	1	5
444.384	1	-5
445.578	1	-6
446.771	1	5
447.965	1	-4
449.159	1	-2
450.352	1	4
451.546	1	-7
452.739	1	-6
453.933	1	0
455.126	1	-11
456.320	1	-7
457.513	1	7
458.706	1	3
459.899	1	-11
461.093	1	-1
462.286	1	-1
463.479	1	4
464.672	1	0
465.865	1	-3
467.058	1	-4
468.251	1	-4
469.444	1	-7
470.637	1	3
471.830	1	-1
473.023	1	2
474.215	1	4
475.408	1	-8
476.601	1	-8
477.793	1	0
478.986	1	-9
480.179	1	-7
481.371	1	4
482.564	1	-6
483.756	1	5
484.948	1	-5
486.141	1	-13
487.333	1	5
488.525	1	-1
489.718	1	2
490.910	1	-4
492.102	1	-6
493.294	1	-2
494.486	1	6
495.678	1	0
496.870	1	5
498.062	1	4
499.254	1	1
500.446	1	-14
501.638	1	-12
502.829	1	-1
504.021	1	3
505.213	1	5
506.404	1	-2
507.596	1	-3
508.788	1	23
509.979	1	-3
511.171	1	-3
512.362	1	-10
513.553	1	-12
514.745	1	-2
515.936	1	0
517.127	1	-8
518.319	1	-5
519.510	1	-10
520.701	1	4
521.892	1	-1
523.083	1	-8
524.274	1	5
525.465	1	9
526.656	1	0
527.847	1	0
529.038	1	0
530.229	1	0
531.419	1	5
532.610	1	-5
533.801	1	12
534.991	1	-6
536.182	1	5
537.373	1	1
538.563	1	0
539.754	1	0
540.944	1	-6
542.134	1	3
543.325	1	4
544.515	1	-8
545.705	1	0
546.896	1	-3
548.086	1	2
549.276	1	-5
550.466	1	1
551.656	1	5
552.846	1	2
554.036	1	-1
555.226	1	-7
556.416	1	-3
557.606	1	10
558.796	1	-3
559.986	1	-3
561.175	1	-3
562.365	1	-1
563.555	1	0
564.744	1	0
565.934	1	-1
567.123	1	-2
568.313	1	4
569.502	1	-2
570.692	1	3
571.881	1	11
573.070	1	-6
574.260	1	6
575.449	1	-2
576.638	1	-8
577.827	1	-6
579.016	1	-4
580.205	1	-2
581.394	1	7
582.583	1	3
583.772	1	4
584.961	1	7
586.150	1	-7
587.339	1	2
588.528	1	5
589.717	1	8
590.905	1	-1
592.094	1	6
593.283	1	4
594.471	1	19
595.660	1	-4
596.848	1	5
598.037	1	0
599.225	1	-9
600.413	1	2
601.602	1	16
602.790	1	-3
603.978	1	-1
605.166	1	0
606.355	1	5
607.543	1	4
608.731	1	3
609.919	1	0
611.107	1	2
612.295	1	-5
613.483	1	3
614.671	1	8
615.858	1	4
617.046	1	-5
618.234	1	-3
619.422	1	-7
620.609	1	1
621.797	1	-9
622.985	1	1
624.172	1	-1
625.360	1	-7
626.547	1	-4
627.735	1	2
628.922	1	0
630.109	1	-8
631.297	1	1
632.484	1	-9
633.671	1	1
634.858	1	-1
636.045	1	6
637.232	1	-12
638.419	1	-5
639.606	1	7
640.793	1	8
641.980	1	5
643.167	1	-4
644.354	1	0
645.541	1	-7
646.728	1	-6
647.914	1	-12
649.101	1	-3
650.288	1	9
651.474	1	-5
652.661	1	-6
653.847	1	0
655.034	1	7
656.220	1	-9
657.406	1	0
658.593	1	0
659.779	1	3
660.965	1	2
662.152	1	4
663.338	1	5
664.524	1	-2
665.710	1	0
666.896	1	-3
668.082	1	9
669.268	1	0
670.454	1	-7
671.640	1	5
672.826	1	-2
674.011	1	2
675.197	1	-10
676.383	1	1
677.569	1	-4
678.754	1	-4
679.940	1	-8
681.125	1	-2
682.311	1	11
683.496	1	-5
684.682	1	-11
685.867	1	1
687.053	1	-6
688.238	1	-4
688.746	1	-2

File: GaN_sample F_spot 12_UVVIS_200 K_200um_800 ms 2x2mm1_500.txt
340.368	1	8
341.565	1	-9
342.763	1	8
343.960	1	2
345.157	1	-4
346.354	1	-1
347.552	1	-2
348.749	1	-5
349.946	1	-5
351.143	1	1
352.340	1	-1
353.537	1	-1
354.734	1	8
355.931	1	1
357.127	1	-3
358.324	1	1
359.521	1	3
360.718	1	-1
361.914	1	6
363.111	1	0
364.308	1	-5
365.504	1	7
366.701	1	8
367.897	1	5
369.093	1	8
370.290	1	3
371.486	1	9
372.682	1	7
373.879	1	7
375.075	1	0
376.271	1	3
377.467	1	5
378.663	1	-7
379.859	1	-8
381.055	1	10
382.251	1	-6
383.447	1	-3
384.643	1	8
385.839	1	-4
387.035	1	-9
388.230	1	6
389.426	1	-5
390.622	1	1
391.817	1	-2
393.013	1	0
394.208	1	1
395.404	1	-2
396.599	1	-6
397.795	1	3
398.990	1	-7
400.186	1	-2
401.381	1	-3
402.576	1	2
403.771	1	0
404.967	1	3
406.162	1	3
407.357	1	-5
408.552	1	-5
409.747	1	2
410.942	1	3
412.137	1	-1
413.332	1	1
414.526	1	0
415.721	1	-8
416.916	1	-2
418.111	1	2
419.305	1	-1
420.500	1	-5
421.695	1	-4
422.889	1	-12
424.084	1	-2
425.278	1	9
426.472	1	-1
427.667	1	-1
428.861	1	-4
430.055	1	-3
431.250	1	-3
432.444	1	6
433.638	1	2
434.832	1	4
436.026	1	3
437.220	1	2
438.414	1	-7
439.608	1	-8
440.802	1	-6
441.996	1	12
443.190	1	-8
444.384	1	-8
445.578	1	-10
446.771	1	4
447.965	1	-3
449.159	1	-7
450.352	1	-6
451.546	1	-1
452.739	1	6
453.933	1	4
455.126	1	-11
456.320	1	-7
457.513	1	8
458.706	1	-2
459.899	1	-1
461.093	1	-3
462.286	1	-6
463.479	1	2
464.672	1	0
465.865	1	-5
467.058	1	-1
468.251	1	4
469.444	1	-12
470.637	1	2
471.830	1	1
473.023	1	5
474.215	1	8
475.408	1	0
476.601	1	-3
477.793	1	1
478.986	1	-12
480.179	1	1
481.371	1	-2
482.564	1	2
483.756	1	9
484.948	1	-14
486.141	1	8
487.333	1	-8
488.525	1	-13
489.718	1	2
490.910	1	-3
492.102	1	0
493.294	1	-3
494.486	1	1
495.678	1	-1
496.870	1	11
498.062	1	-1
499.254	1	11
500.446	1	-14
501.638	1	-16
502.829	1	-3
504.021	1	3
505.213	1	4
506.404	1	-1
507.596	1	0
508.788	1	13
509.979	1	0
511.171	1	-10
512.362	1	-10
513.553	1	-3
514.745	1	3
515.936	1	-5
517.127	1	2
518.319	1	2
519.510	1	4
520.701	1	2
521.892	1	-4
523.083	1	-3
524.274	1	-3
525.465	1	7
526.656	1	-1
527.847	1	7
529.038	1	9
530.229	1	-3
531.419	1	-1
532.610	1	-10
533.801	1	16
534.991	1	2
536.182	1	-1
537.373	1	-2
538.563	1	5
539.754	1	5
540.944	1	-3
542.134	1	-6
543.325	1	1
544.515	1	-8
545.705	1	-3
546.896	1	-1
548.086	1	-9
549.276	1	0
550.466	1	2
551.656	1	7
552.846	1	5
554.036	1	0
555.226	1	-7
556.416	1	-7
557.606	1	-6
558.796	1	-1
559.986	1	-8
561.175	1	2
562.365	1	0
563.555	1	-7
564.744	1	3
565.934	1	11
567.123	1	2
568.313	1	9
569.502	1	0
570.692	1	-2
571.881	1	1
573.070	1	-4
574.260	1	7
575.449	1	-6
576.638	1	-2
577.827	1	-5
579.016	1	12
580.205	1	1
581.394	1	2
582.583	1	9
583.772	1	4
584.961	1	-2
586.150	1	-5
587.339	1	-3
588.528	1	1
589.717	1	2
590.905	1	-3
592.094	1	-4
593.283	1	-5
594.471	1	5
595.660	1	2
596.848	1	1
598.037	1	-5
599.225	1	-2
600.413	1	11
601.602	1	16
602.790	1	-5
603.978	1	-2
605.166	1	4
606.355	1	10
607.543	1	-1
608.731	1	-4
609.919	1	0
611.107	1	0
612.295	1	-9
613.483	1	0
614.671	1	7
615.858	1	9
617.046	1	5
618.234	1	0
619.422	1	-8
620.609	1	4
621.797	1	-10
622.985	1	-5
624.172	1	-5
625.360	1	-6
626.547	1	-2
627.735	1	3
628.922	1	-2
630.109	1	-8
631.297	1	-1
632.484	1	-5
633.671	1	-12
634.858	1	0
636.045	1	2
637.232	1	-6
638.419	1	-9
639.606	1	5
640.793	1	1
641.980	1	4
643.167	1	-2
644.354	1	4
645.541	1	0
646.728	1	-4
647.914	1	3
649.101	1	-6
650.288	1	3
651.474	1	-11
652.661	1	-5
653.847	1	4
655.034	1	6
656.220	1	-3
657.406	1	4
658.593	1	8
659.779	1	8
660.965	1	10
662.152	1	-4
663.338	1	6
664.524	1	0
665.710	1	7
666.896	1	-4
668.082	1	2
669.268	1	-6
670.454	1	3
671.640	1	0
672.826	1	2
674.011	1	-7
675.197	1	-4
676.383	1	4
677.569	1	-4
678.754	1	-7
679.940	1	-6
681.125	1	5
682.311	1	0
683.496	1	-4
684.682	1	-9
685.867	1	2
687.053	1	-6
688.238	1	7
688.746	1	5

File: GaN_sample F_spot 12_UVVIS_200 K_200um_800 ms 2x2mm1_502.txt
340.368	1	3
341.565	1	-11
342.763	1	3
343.960	1	-10
345.157	1	-7
346.354	1	-1
347.552	1	-13
348.749	1	-3
349.946	1	-6
351.143	1	-1
352.340	1	-1
353.537	1	-7
354.734	1	8
355.931	1	-7
357.127	1	0
358.324	1	4
359.521	1	3
360.718	1	1
361.914	1	4
363.111	1	-1
364.308	1	4
365.504	1	7
366.701	1	4
367.897	1	1
369.093	1	4
370.290	1	3
371.486	1	7
372.682	1	1
373.879	1	-5
375.075	1	-13
376.271	1	12
377.467	1	8
378.663	1	-3
379.859	1	0
381.055	1	-5
382.251	1	-8
383.447	1	-2
384.643	1	4
385.839	1	-4
387.035	1	-1
388.230	1	7
389.426	1	-1
390.622	1	3
391.817	1	2
393.013	1	-4
394.208	1	6
395.404	1	-2
396.599	1	-8
397.795	1	2
398.990	1	-5
400.186	1	-9
401.381	1	-2
402.576	1	-3
403.771	1	-3
404.967	1	-2
406.162	1	-4
407.357	1	1
408.552	1	-8
409.747	1	1
410.942	1	0
412.137	1	0
413.332	1	-10
414.526	1	-2
415.721	1	-12
416.916	1	-11
418.111	1	-2
419.305	1	-2
420.500	1	-3
421.695	1	-2
422.889	1	-13
424.084	1	2
425.278	1	7
426.472	1	-2
427.667	1	4
428.861	1	0
430.055	1	-4
431.250	1	-5
432.444	1	0
433.638	1	-8
434.832	1	0
436.026	1	1
437.220	1	1
438.414	1	-9
439.608	1	-9
440.802	1	-3
441.996	1	2
443.190	1	4
444.384	1	-12
445.578	1	-5
446.771	1	10
447.965	1	-1
449.159	1	-9
450.352	1	3
451.546	1	-1
452.739	1	7
453.933	1	-3
455.126	1	-5
456.320	1	0
457.513	1	3
458.706	1	-3
459.899	1	-8
461.093	1	10
462.286	1	-5
463.479	1	-5
464.672	1	-6
465.865	1	-8
467.058	1	0
468.251	1	-3
469.444	1	1
470.637	1	-1
471.830	1	-3
473.023	1	3
474.215	1	7
475.408	1	3
476.601	1	-3
477.793	1	-6
478.986	1	0
480.179	1	-8
481.371	1	3
482.564	1	0
483.756	1	3
484.948	1	-15
486.141	1	2
487.333	1	-6
488.525	1	-1
489.718	1	2
490.910	1	-4
492.102	1	-10
493.294	1	-9
494.486	1	0
495.678	1	-4
496.870	1	-1
498.062	1	-2
499.254	1	-4
500.446	1	-8
501.638	1	-2
502.829	1	-11
504.021	1	0
505.213	1	2
506.404	1	-1
507.596	1	4
508.788	1	4
509.979	1	-3
511.171	1	-9
512.362	1	-2
513.553	1	-11
514.745	1	-8
515.936	1	-3
517.127	1	-6
518.319	1	0
519.510	1	-1
520.701	1	-1
521.892	1	-4
523.083	1	3
524.274	1	-1
525.465	1	-3
526.656	1	0
527.847	1	7
529.038	1	-2
530.229	1	-1
531.419	1	0
532.610	1	-8
533.801	1	16
534.991	1	3
536.182	1	4
537.373	1	4
538.563	1	5
539.754	1	8
540.944	1	-9
542.134	1	7
543.325	1	9
544.515	1	-2
545.705	1	-6
546.896	1	4
548.086	1	-1
549.276	1	-7
550.466	1	1
551.656	1	1
552.846	1	2
554.036	1	-5
555.226	1	-4
556.416	1	-14
557.606	1	0
558.796	1	-1
559.986	1	-12
561.175	1	2
562.365	1	2
563.555	1	-7
564.744	1	5
565.934	1	8
567.123	1	4
568.313	1	1
569.502	1	-4
570.692	1	4
571.881	1	2
573.070	1	1
574.260	1	1
575.449	1	-3
576.638	1	-3
577.827	1	-5
579.016	1	-2
580.205	1	-6
581.394	1	-5
582.583	1	14
583.772	1	4
584.961	1	-4
586.150	1	-5
587.339	1	-5
588.528	1	6
589.717	1	-4
590.905	1	1
592.094	1	4
593.283	1	8
594.471	1	2
595.660	1	6
596.848	1	-5
598.037	1	2
599.225	1	-10
600.413	1	8
601.602	1	12
602.790	1	-4
603.978	1	-2
605.166	1	6
606.355	1	0
607.543	1	-3
608.731	1	5
609.919	1	9
611.107	1	-1
612.295	1	-4
613.483	1	-3
614.671	1	4
615.858	1	4
617.046	1	6
618.234	1	-2
619.422	1	-7
620.609	1	4
621.797	1	-7
622.985	1	3
624.172	1	-3
625.360	1	4
626.547	1	1
627.735	1	-7
628.922	1	3
630.109	1	-14
631.297	1	4
632.484	1	-9
633.671	1	-4
634.858	1	-6
636.045	1	7
637.232	1	-2
638.419	1	-6
639.606	1	5
640.793	1	5
641.980	1	8
643.167	1	0
644.354	1	-1
645.541	1	-4
646.728	1	2
647.914	1	-7
649.101	1	-8
650.288	1	-5
651.474	1	-1
652.661	1	7
653.847	1	2
655.034	1	-3
656.220	1	-7
657.406	1	10
658.593	1	3
659.779	1	5
660.965	1	5
662.152	1	-4
663.338	1	-2
664.524	1	-6
665.710	1	1
666.896	1	-3
668.082	1	4
669.268	1	-1
670.454	1	4
671.640	1	4
672.826	1	0
674.011	1	-4
675.197	1	-4
676.383	1	-1
677.569	1	1
678.754	1	-8
679.940	1	-7
681.125	1	-2
682.311	1	4
683.496	1	-3
684.682	1	-9
685.867	1	-5
687.053	1	-7
688.238	1	4
688.746	1	-2

File: GaN_sample F_spot 12_UVVIS_200 K_200um_800 ms 2x2mm1_503.txt
340.368	1	0
341.565	1	-13
342.763	1	2
343.960	1	-4
345.157	1	-1
346.354	1	-5
347.552	1	-7
348.749	1	-5
349.946	1	-10
351.143	1	-3
352.340	1	1
353.537	1	-2
354.734	1	4
355.931	1	1
357.127	1	3
358.324	1	-2
359.521	1	11
360.718	1	-3
361.914	1	12
363.111	1	0
364.308	1	-4
365.504	1	9
366.701	1	2
367.897	1	11
369.093	1	6
370.290	1	7
371.486	1	12
372.682	1	5
373.879	1	2
375.075	1	-3
376.271	1	6
377.467	1	0
378.663	1	0
379.859	1	7
381.055	1	0
382.251	1	-9
383.447	1	7
384.643	1	11
385.839	1	1
387.035	1	-9
388.230	1	2
389.426	1	1
390.622	1	6
391.817	1	0
393.013	1	-1
394.208	1	3
395.404	1	-11
396.599	1	-3
397.795	1	-3
398.990	1	1
400.186	1	3
401.381	1	-17
402.576	1	-8
403.771	1	12
404.967	1	7
406.162	1	10
407.357	1	0
408.552	1	-8
409.747	1	-11
410.942	1	1
412.137	1	-1
413.332	1	0
414.526	1	-10
415.721	1	-2
416.916	1	-5
418.111	1	2
419.305	1	-1
420.500	1	-6
421.695	1	-3
422.889	1	-14
424.084	1	1
425.278	1	16
426.472	1	-2
427.667	1	8
428.861	1	1
430.055	1	1
431.250	1	-3
432.444	1	1
433.638	1	-2
434.832	1	4
436.026	1	4
437.220	1	1
438.414	1	-13
439.608	1	-9
440.802	1	0
441.996	1	-1
443.190	1	1
444.384	1	-15
445.578	1	-12
446.771	1	8
447.965	1	-4
449.159	1	-1
450.352	1	-9
451.546	1	2
452.739	1	-4
453.933	1	-10
455.126	1	-5
456.320	1	-3
457.513	1	-2
458.706	1	0
459.899	1	-10
461.093	1	-4
462.286	1	1
463.479	1	-4
464.672	1	-5
465.865	1	-10
467.058	1	2
468.251	1	-7
469.444	1	-5
470.637	1	-3
471.830	1	-5
473.023	1	1
474.215	1	10
475.408	1	5
476.601	1	2
477.793	1	-8
478.986	1	-4
480.179	1	2
481.371	1	4
482.564	1	5
483.756	1	-1
484.948	1	-11
486.141	1	-9
487.333	1	2
488.525	1	8
489.718	1	-2
490.910	1	-9
492.102	1	-9
493.294	1	-3
494.486	1	2
495.678	1	-3
496.870	1	2
498.062	1	-6
499.254	1	-1
500.446	1	-10
501.638	1	-6
502.829	1	0
504.021	1	-8
505.213	1	1
506.404	1	0
507.596	1	-1
508.788	1	13
509.979	1	6
511.171	1	-7
512.362	1	-1
513.553	1	-7
514.745	1	-4
515.936	1	2
517.127	1	-4
518.319	1	-3
519.510	1	-4
520.701	1	-1
521.892	1	-5
523.083	1	-7
524.274	1	0
525.465	1	2
526.656	1	-6
527.847	1	1
529.038	1	-4
530.229	1	7
531.419	1	2
532.610	1	2
533.801	1	13
534.991	1	3
536.182	1	3
537.373	1	1
538.563	1	5
539.754	1	-2
540.944	1	3
542.134	1	1
543.325	1	-4
544.515	1	5
545.705	1	2
546.896	1	0
548.086	1	-6
549.276	1	0
550.466	1	-6
551.656	1	6
552.846	1	6
554.036	1	6
555.226	1	-3
556.416	1	-1
557.606	1	3
558.796	1	-5
559.986	1	-12
561.175	1	4
562.365	1	3
563.555	1	-12
564.744	1	7
565.934	1	9
567.123	1	4
568.313	1	6
569.502	1	-9
570.692	1	7
571.881	1	3
573.070	1	3
574.260	1	8
575.449	1	-2
576.638	1	-10
577.827	1	-17
579.016	1	8
580.205	1	-6
581.394	1	-4
582.583	1	2
583.772	1	7
584.961	1	3
586.150	1	0
587.339	1	-2
588.528	1	-2
589.717	1	1
590.905	1	6
592.094	1	-2
593.283	1	3
594.471	1	-2
595.660	1	0
596.848	1	0
598.037	1	-8
599.225	1	-12
600.413	1	9
601.602	1	3
602.790	1	-5
603.978	1	4
605.166	1	3
606.355	1	7
607.543	1	-4
608.731	1	1
609.919	1	6
611.107	1	-5
612.295	1	-14
613.483	1	5
614.671	1	-2
615.858	1	2
617.046	1	-1
618.234	1	-7
619.422	1	-11
620.609	1	-1
621.797	1	-4
622.985	1	6
624.172	1	1
625.360	1	2
626.547	1	0
627.735	1	-2
628.922	1	12
630.109	1	-11
631.297	1	1
632.484	1	-6
633.671	1	-8
634.858	1	-6
636.045	1	6
637.232	1	4
638.419	1	-6
639.606	1	6
640.793	1	13
641.980	1	-5
643.167	1	-7
644.354	1	-3
645.541	1	-4
646.728	1	-4
647.914	1	-1
649.101	1	-6
650.288	1	6
651.474	1	-3
652.661	1	-6
653.847	1	3
655.034	1	9
656.220	1	-6
657.406	1	-4
658.593	1	1
659.779	1	-1
660.965	1	0
662.152	1	3
663.338	1	14
664.524	1	-8
665.710	1	3
666.896	1	-15
668.082	1	1
669.268	1	-1
670.454	1	2
671.640	1	2
672.826	1	0
674.011	1	-4
675.197	1	-8
676.383	1	1
677.569	1	-5
678.754	1	-6
679.940	1	-6
681.125	1	2
682.311	1	-4
683.496	1	3
684.682	1	5
685.867	1	2
687.053	1	-5
688.238	1	8
688.746	1	-3