Folder: cryo-il_analysis/Data/GaN_200K_800ms

File: GaN_sample F_spot 12_UVVIS_200 K_200um_800 ms 2x2mm1_2.txt
340.368	1	-1
341.565	1	-5
342.763	1	-1
343.960	1	6
345.157	1	2
346.354	1	2
347.552	1	-2
348.749	1	-8
349.946	1	-1
351.143	1	1
352.340	1	4
353.537	1	-5
354.734	1	6
355.931	1	6
357.127	1	-4
358.324	1	2
359.521	1	8
360.718	1	-2
361.914	1	7
363.111	1	1
364.308	1	3
365.504	1	1
366.701	1	3
367.897	1	3
369.093	1	-3
370.290	1	-2
371.486	1	12
372.682	1	2
373.879	1	-7
375.075	1	0
376.271	1	9
377.467	1	8
378.663	1	4
379.859	1	-6
381.055	1	1
382.251	1	-3
383.447	1	-8
384.643	1	4
385.839	1	1
387.035	1	3
388.230	1	10
389.426	1	-10
390.622	1	-3
391.817	1	8
393.013	1	-3
394.208	1	4
395.404	1	-8
396.599	1	-11
397.795	1	5
398.990	1	7
400.186	1	-3
401.381	1	-10
402.576	1	-4
403.771	1	1
404.967	1	-7
406.162	1	8
407.357	1	-3
408.552	1	-3
409.747	1	1
410.942	1	2
412.137	1	6
413.332	1	4
414.526	1	5
415.721	1	5
416.916	1	2
418.111	1	-1
419.305	1	5
420.500	1	-4
421.695	1	-1
422.889	1	-11
424.084	1	7
425.278	1	6
426.472	1	0
427.667	1	-3
428.861	1	-4
430.055	1	-1
431.250	1	5
432.444	1	4
433.638	1	-7
434.832	1	3
436.026	1	5
437.220	1	1
438.414	1	-10
439.608	1	-13
440.802	1	-15
441.996	1	1
443.190	1	8
444.384	1	-4
445.578	1	-12
446.771	1	9
447.965	1	2
449.159	1	-9
450.352	1	-6
451.546	1	-3
452.739	1	-4
453.933	1	-4
455.126	1	-9
456.320	1	5
457.513	1	9
458.706	1	12
459.899	1	2
461.093	1	3
462.286	1	0
463.479	1	-3
464.672	1	-9
465.865	1	-2
467.058	1	0
468.251	1	-4
469.444	1	-5
470.637	1	-3
471.830	1	0
473.023	1	-2
474.215	1	12
475.408	1	-2
476.601	1	6
477.793	1	-1
478.986	1	5
480.179	1	1
481.371	1	7
482.564	1	14
483.756	1	6
484.948	1	1
486.141	1	1
487.333	1	7
488.525	1	8
489.718	1	3
490.910	1	7
492.102	1	-11
493.294	1	-3
494.486	1	13
495.678	1	3
496.870	1	4
498.062	1	6
499.254	1	-1
500.446	1	-7
501.638	1	0
502.829	1	-4
504.021	1	-5
505.213	1	7
506.404	1	6
507.596	1	8
508.788	1	19
509.979	1	0
511.171	1	-4
512.362	1	-1
513.553	1	-8
514.745	1	5
515.936	1	-3
517.127	1	-1
518.319	1	3
519.510	1	2
520.701	1	-4
521.892	1	-3
523.083	1	-2
524.274	1	-11
525.465	1	12
526.656	1	-6
527.847	1	-1
529.038	1	2
530.229	1	10
531.419	1	-2
532.610	1	-4
533.801	1	9
534.991	1	-2
536.182	1	-2
537.373	1	1
538.563	1	3
539.754	1	7
540.944	1	-10
542.134	1	5
543.325	1	3
544.515	1	-6
545.705	1	-6
546.896	1	-8
548.086	1	-2
549.276	1	-2
550.466	1	-1
551.656	1	3
552.846	1	2
554.036	1	-4
555.226	1	-8
556.416	1	-8
557.606	1	1
558.796	1	5
559.986	1	-9
561.175	1	-2
562.365	1	5
563.555	1	0
564.744	1	3
565.934	1	6
567.123	1	-6
568.313	1	9
569.502	1	-5
570.692	1	-1
571.881	1	10
573.070	1	5
574.260	1	10
575.449	1	-4
576.638	1	-5
577.827	1	-9
579.016	1	15
580.205	1	1
581.394	1	10
582.583	1	13
583.772	1	2
584.961	1	0
586.150	1	-2
587.339	1	0
588.528	1	4
589.717	1	8
590.905	1	5
592.094	1	-5
593.283	1	3
594.471	1	11
595.660	1	3
596.848	1	-4
598.037	1	3
599.225	1	-15
600.413	1	9
601.602	1	11
602.790	1	-1
603.978	1	2
605.166	1	2
606.355	1	7
607.543	1	4
608.731	1	-5
609.919	1	10
611.107	1	-8
612.295	1	-3
613.483	1	2
614.671	1	1
615.858	1	3
617.046	1	-4
618.234	1	1
619.422	1	-10
620.609	1	9
621.797	1	-6
622.985	1	4
624.172	1	3
625.360	1	3
626.547	1	-3
627.735	1	6
628.922	1	4
630.109	1	-10
631.297	1	3
632.484	1	-3
633.671	1	-7
634.858	1	-6
636.045	1	8
637.232	1	1
638.419	1	-1
639.606	1	3
640.793	1	4
641.980	1	3
643.167	1	-4
644.354	1	4
645.541	1	7
646.728	1	-2
647.914	1	-7
649.101	1	3
650.288	1	6
651.474	1	-8
652.661	1	-5
653.847	1	5
655.034	1	4
656.220	1	-9
657.406	1	11
658.593	1	4
659.779	1	-2
660.965	1	9
662.152	1	4
663.338	1	5
664.524	1	0
665.710	1	-10
666.896	1	1
668.082	1	6
669.268	1	2
670.454	1	8
671.640	1	4
672.826	1	-6
674.011	1	1
675.197	1	-4
676.383	1	3
677.569	1	-3
678.754	1	1
679.940	1	2
681.125	1	-2
682.311	1	6
683.496	1	5
684.682	1	-4
685.867	1	-2
687.053	1	-1
688.238	1	5
688.746	1	6

File: GaN_sample F_spot 12_UVVIS_200 K_200um_800 ms 2x2mm1_6.txt
340.368	1	-4
341.565	1	2
342.763	1	2
343.960	1	-2
345.157	1	1
346.354	1	-2
347.552	1	-6
348.749	1	-6
349.946	1	-3
351.143	1	-1
352.340	1	4
353.537	1	6
354.734	1	2
355.931	1	0
357.127	1	-4
358.324	1	-8
359.521	1	4
360.718	1	0
361.914	1	14
363.111	1	-3
364.308	1	-1
365.504	1	7
366.701	1	-1
367.897	1	1
369.093	1	-2
370.290	1	0
371.486	1	7
372.682	1	4
373.879	1	-8
375.075	1	-5
376.271	1	-8
377.467	1	-13
378.663	1	-4
379.859	1	4
381.055	1	2
382.251	1	1
383.447	1	1
384.643	1	4
385.839	1	0
387.035	1	2
388.230	1	9
389.426	1	-3
390.622	1	9
391.817	1	7
393.013	1	0
394.208	1	5
395.404	1	-9
396.599	1	-9
397.795	1	4
398.990	1	3
400.186	1	-2
401.381	1	-4
402.576	1	0
403.771	1	0
404.967	1	0
406.162	1	12
407.357	1	-5
408.552	1	-6
409.747	1	6
410.942	1	5
412.137	1	4
413.332	1	0
414.526	1	0
415.721	1	2
416.916	1	-6
418.111	1	-3
419.305	1	3
420.500	1	5
421.695	1	0
422.889	1	-7
424.084	1	2
425.278	1	14
426.472	1	-1
427.667	1	12
428.861	1	-1
430.055	1	5
431.250	1	5
432.444	1	7
433.638	1	-7
434.832	1	1
436.026	1	2
437.220	1	7
438.414	1	-12
439.608	1	-12
440.802	1	-3
441.996	1	5
443.190	1	2
444.384	1	-11
445.578	1	-14
446.771	1	5
447.965	1	0
449.159	1	-5
450.352	1	-1
451.546	1	7
452.739	1	7
453.933	1	-7
455.126	1	-10
456.320	1	0
457.513	1	6
458.706	1	-3
459.899	1	11
461.093	1	4
462.286	1	2
463.479	1	-1
464.672	1	-4
465.865	1	-2
467.058	1	0
468.251	1	-1
469.444	1	1
470.637	1	4
471.830	1	-1
473.023	1	-5
474.215	1	11
475.408	1	3
476.601	1	3
477.793	1	1
478.986	1	-2
480.179	1	6
481.371	1	1
482.564	1	3
483.756	1	7
484.948	1	-12
486.141	1	-1
487.333	1	2
488.525	1	-5
489.718	1	4
490.910	1	0
492.102	1	-4
493.294	1	-2
494.486	1	0
495.678	1	4
496.870	1	-2
498.062	1	4
499.254	1	2
500.446	1	-7
501.638	1	-3
502.829	1	-3
504.021	1	-1
505.213	1	-1
506.404	1	1
507.596	1	3
508.788	1	12
509.979	1	4
511.171	1	-8
512.362	1	-7
513.553	1	-2
514.745	1	-4
515.936	1	-5
517.127	1	2
518.319	1	-3
519.510	1	-3
520.701	1	-3
521.892	1	3
523.083	1	1
524.274	1	3
525.465	1	3
526.656	1	-1
527.847	1	-2
529.038	1	4
530.229	1	4
531.419	1	7
532.610	1	-5
533.801	1	12
534.991	1	4
536.182	1	-1
537.373	1	3
538.563	1	10
539.754	1	2
540.944	1	-1
542.134	1	0
543.325	1	-4
544.515	1	5
545.705	1	0
546.896	1	4
548.086	1	5
549.276	1	-6
550.466	1	3
551.656	1	2
552.846	1	-2
554.036	1	-9
555.226	1	-2
556.416	1	-2
557.606	1	1
558.796	1	-2
559.986	1	-8
561.175	1	3
562.365	1	2
563.555	1	-9
564.744	1	4
565.934	1	3
567.123	1	4
568.313	1	1
569.502	1	-3
570.692	1	-1
571.881	1	9
573.070	1	-1
574.260	1	5
575.449	1	5
576.638	1	-11
577.827	1	-5
579.016	1	9
580.205	1	-7
581.394	1	-9
582.583	1	17
583.772	1	4
584.961	1	-1
586.150	1	-11
587.339	1	-7
588.528	1	11
589.717	1	-1
590.905	1	-7
592.094	1	-6
593.283	1	1
594.471	1	8
595.660	1	9
596.848	1	7
598.037	1	-7
599.225	1	-12
600.413	1	5
601.602	1	5
602.790	1	1
603.978	1	7
605.166	1	2
606.355	1	-6
607.543	1	-3
608.731	1	2
609.919	1	5
611.107	1	-5
612.295	1	-9
613.483	1	4
614.671	1	5
615.858	1	-7
617.046	1	3
618.234	1	-3
619.422	1	-7
620.609	1	5
621.797	1	2
622.985	1	0
624.172	1	9
625.360	1	-3
626.547	1	6
627.735	1	5
628.922	1	-1
630.109	1	0
631.297	1	8
632.484	1	-3
633.671	1	0
634.858	1	-5
636.045	1	15
637.232	1	-6
638.419	1	-12
639.606	1	9
640.793	1	5
641.980	1	5
643.167	1	-3
644.354	1	5
645.541	1	3
646.728	1	-7
647.914	1	-4
649.101	1	4
650.288	1	3
651.474	1	-5
652.661	1	-3
653.847	1	7
655.034	1	2
656.220	1	-6
657.406	1	11
658.593	1	7
659.779	1	1
660.965	1	5
662.152	1	3
663.338	1	9
664.524	1	-6
665.710	1	1
666.896	1	-2
668.082	1	8
669.268	1	-8
670.454	1	7
671.640	1	3
672.826	1	1
674.011	1	-5
675.197	1	-6
676.383	1	10
677.569	1	-9
678.754	1	-5
679.940	1	0
681.125	1	9
682.311	1	6
683.496	1	10
684.682	1	-10
685.867	1	6
687.053	1	-8
688.238	1	4
688.746	1	3

File: GaN_sample F_spot 12_UVVIS_200 K_200um_800 ms 2x2mm1_8.txt
340.368	1	6
341.565	1	-11
342.763	1	7
343.960	1	12
345.157	1	-10
346.354	1	2
347.552	1	-2
348.749	1	-12
349.946	1	-5
351.143	1	-4
352.340	1	4
353.537	1	2
354.734	1	8
355.931	1	-2
357.127	1	-8
358.324	1	-2
359.521	1	11
360.718	1	2
361.914	1	1
363.111	1	1
364.308	1	-4
365.504	1	12
366.701	1	-3
367.897	1	-2
369.093	1	-4
370.290	1	-4
371.486	1	5
372.682	1	-2
373.879	1	0
375.075	1	5
376.271	1	7
377.467	1	2
378.663	1	-1
379.859	1	3
381.055	1	5
382.251	1	-5
383.447	1	-8
384.643	1	2
385.839	1	-1
387.035	1	9
388.230	1	11
389.426	1	-6
390.622	1	0
391.817	1	4
393.013	1	-8
394.208	1	5
395.404	1	3
396.599	1	1
397.795	1	-3
398.990	1	-5
400.186	1	-2
401.381	1	-5
402.576	1	-1
403.771	1	-2
404.967	1	8
406.162	1	1
407.357	1	-11
408.552	1	-5
409.747	1	-1
410.942	1	6
412.137	1	7
413.332	1	-1
414.526	1	-9
415.721	1	-7
416.916	1	-2
418.111	1	-3
419.305	1	1
420.500	1	-2
421.695	1	1
422.889	1	-11
424.084	1	-4
425.278	1	6
426.472	1	0
427.667	1	6
428.861	1	-2
430.055	1	3
431.250	1	-6
432.444	1	11
433.638	1	2
434.832	1	9
436.026	1	3
437.220	1	12
438.414	1	1
439.608	1	-9
440.802	1	-2
441.996	1	-2
443.190	1	2
444.384	1	-12
445.578	1	-9
446.771	1	9
447.965	1	-5
449.159	1	1
450.352	1	0
451.546	1	9
452.739	1	11
453.933	1	-3
455.126	1	-3
456.320	1	-2
457.513	1	10
458.706	1	6
459.899	1	3
461.093	1	-1
462.286	1	4
463.479	1	3
464.672	1	0
465.865	1	-3
467.058	1	-5
468.251	1	0
469.444	1	-9
470.637	1	-5
471.830	1	3
473.023	1	2
474.215	1	7
475.408	1	-7
476.601	1	2
477.793	1	-2
478.986	1	0
480.179	1	-1
481.371	1	1
482.564	1	-2
483.756	1	7
484.948	1	1
486.141	1	-5
487.333	1	0
488.525	1	-2
489.718	1	1
490.910	1	7
492.102	1	-3
493.294	1	-3
494.486	1	8
495.678	1	0
496.870	1	9
498.062	1	1
499.254	1	0
500.446	1	-3
501.638	1	-5
502.829	1	-2
504.021	1	-3
505.213	1	10
506.404	1	-1
507.596	1	1
508.788	1	15
509.979	1	-5
511.171	1	-3
512.362	1	-3
513.553	1	-15
514.745	1	-1
515.936	1	-6
517.127	1	-6
518.319	1	-4
519.510	1	3
520.701	1	1
521.892	1	8
523.083	1	-3
524.274	1	-1
525.465	1	4
526.656	1	-3
527.847	1	5
529.038	1	-5
530.229	1	1
531.419	1	-3
532.610	1	-5
533.801	1	3
534.991	1	5
536.182	1	-7
537.373	1	4
538.563	1	7
539.754	1	2
540.944	1	1
542.134	1	-1
543.325	1	2
544.515	1	-8
545.705	1	0
546.896	1	-1
548.086	1	-5
549.276	1	-1
550.466	1	-2
551.656	1	7
552.846	1	4
554.036	1	4
555.226	1	-12
556.416	1	-6
557.606	1	2
558.796	1	8
559.986	1	-2
561.175	1	4
562.365	1	-1
563.555	1	0
564.744	1	1
565.934	1	-2
567.123	1	5
568.313	1	5
569.502	1	-8
570.692	1	8
571.881	1	12
573.070	1	2
574.260	1	9
575.449	1	-2
576.638	1	5
577.827	1	-2
579.016	1	3
580.205	1	-1
581.394	1	-5
582.583	1	12
583.772	1	7
584.961	1	1
586.150	1	-12
587.339	1	-9
588.528	1	6
589.717	1	4
590.905	1	1
592.094	1	4
593.283	1	-1
594.471	1	5
595.660	1	2
596.848	1	1
598.037	1	0
599.225	1	-10
600.413	1	1
601.602	1	13
602.790	1	8
603.978	1	0
605.166	1	4
606.355	1	8
607.543	1	-1
608.731	1	5
609.919	1	8
611.107	1	-1
612.295	1	-2
613.483	1	4
614.671	1	3
615.858	1	2
617.046	1	-4
618.234	1	-1
619.422	1	-3
620.609	1	3
621.797	1	4
622.985	1	-2
624.172	1	3
625.360	1	-6
626.547	1	-1
627.735	1	6
628.922	1	4
630.109	1	-17
631.297	1	8
632.484	1	-3
633.671	1	0
634.858	1	3
636.045	1	11
637.232	1	-7
638.419	1	-2
639.606	1	3
640.793	1	10
641.980	1	10
643.167	1	-2
644.354	1	4
645.541	1	6
646.728	1	1
647.914	1	-10
649.101	1	-11
650.288	1	3
651.474	1	-5
652.661	1	-4
653.847	1	2
655.034	1	4
656.220	1	-5
657.406	1	4
658.593	1	3
659.779	1	2
660.965	1	7
662.152	1	5
663.338	1	13
664.524	1	4
665.710	1	1
666.896	1	0
668.082	1	0
669.268	1	-3
670.454	1	-1
671.640	1	1
672.826	1	-4
674.011	1	4
675.197	1	-4
676.383	1	3
677.569	1	-8
678.754	1	-6
679.940	1	-1
681.125	1	2
682.311	1	1
683.496	1	2
684.682	1	-6
685.867	1	-2
687.053	1	3
688.238	1	6
688.746	1	-1

File: GaN_sample F_spot 12_UVVIS_200 K_200um_800 ms 2x2mm1_9.txt
340.368	1	-4
341.565	1	-10
342.763	1	7
343.960	1	3
345.157	1	-1
346.354	1	-2
347.552	1	-5
348.749	1	-5
349.946	1	-6
351.143	1	4
352.340	1	9
353.537	1	-4
354.734	1	6
355.931	1	2
357.127	1	4
358.324	1	-5
359.521	1	6
360.718	1	3
361.914	1	6
363.111	1	-3
364.308	1	-4
365.504	1	1
366.701	1	-3
367.897	1	5
369.093	1	-13
370.290	1	0
371.486	1	12
372.682	1	15
373.879	1	-4
375.075	1	-12
376.271	1	2
377.467	1	-3
378.663	1	-8
379.859	1	3
381.055	1	5
382.251	1	-7
383.447	1	0
384.643	1	17
385.839	1	-3
387.035	1	0
388.230	1	5
389.426	1	2
390.622	1	-5
391.817	1	9
393.013	1	0
394.208	1	0
395.404	1	1
396.599	1	-7
397.795	1	-7
398.990	1	5
400.186	1	-2
401.381	1	-9
402.576	1	-3
403.771	1	4
404.967	1	6
406.162	1	4
407.357	1	-6
408.552	1	0
409.747	1	4
410.942	1	1
412.137	1	6
413.332	1	3
414.526	1	2
415.721	1	-5
416.916	1	-1
418.111	1	-2
419.305	1	8
420.500	1	-3
421.695	1	1
422.889	1	-4
424.084	1	-3
425.278	1	7
426.472	1	1
427.667	1	13
428.861	1	-5
430.055	1	6
431.250	1	-2
432.444	1	-1
433.638	1	7
434.832	1	12
436.026	1	5
437.220	1	4
438.414	1	3
439.608	1	-10
440.802	1	1
441.996	1	0
443.190	1	-1
444.384	1	-10
445.578	1	-1
446.771	1	19
447.965	1	9
449.159	1	2
450.352	1	0
451.546	1	-9
452.739	1	8
453.933	1	-4
455.126	1	-7
456.320	1	-3
457.513	1	10
458.706	1	6
459.899	1	10
461.093	1	-5
462.286	1	-5
463.479	1	-1
464.672	1	-3
465.865	1	2
467.058	1	0
468.251	1	0
469.444	1	-6
470.637	1	7
471.830	1	6
473.023	1	7
474.215	1	10
475.408	1	0
476.601	1	4
477.793	1	0
478.986	1	-7
480.179	1	-3
481.371	1	0
482.564	1	2
483.756	1	14
484.948	1	-2
486.141	1	-4
487.333	1	6
488.525	1	1
489.718	1	10
490.910	1	-4
492.102	1	-4
493.294	1	-5
494.486	1	10
495.678	1	3
496.870	1	1
498.062	1	-5
499.254	1	-9
500.446	1	-4
501.638	1	4
502.829	1	4
504.021	1	-3
505.213	1	4
506.404	1	3
507.596	1	-1
508.788	1	15
509.979	1	-3
511.171	1	-5
512.362	1	-1
513.553	1	-8
514.745	1	-7
515.936	1	2
517.127	1	-5
518.319	1	1
519.510	1	9
520.701	1	2
521.892	1	-2
523.083	1	-4
524.274	1	3
525.465	1	6
526.656	1	-11
527.847	1	6
529.038	1	0
530.229	1	4
531.419	1	1
532.610	1	-3
533.801	1	15
534.991	1	7
536.182	1	3
537.373	1	-1
538.563	1	3
539.754	1	0
540.944	1	-4
542.134	1	8
543.325	1	-2
544.515	1	2
545.705	1	2
546.896	1	-1
548.086	1	4
549.276	1	-1
550.466	1	9
551.656	1	-5
552.846	1	-6
554.036	1	-4
555.226	1	-9
556.416	1	-4
557.606	1	6
558.796	1	-2
559.986	1	-4
561.175	1	4
562.365	1	2
563.555	1	0
564.744	1	-4
565.934	1	6
567.123	1	0
568.313	1	9
569.502	1	-3
570.692	1	-6
571.881	1	8
573.070	1	9
574.260	1	11
575.449	1	-2
576.638	1	-6
577.827	1	-1
579.016	1	10
580.205	1	2
581.394	1	-4
582.583	1	5
583.772	1	6
584.961	1	-4
586.150	1	-1
587.339	1	2
588.528	1	7
589.717	1	3
590.905	1	-1
592.094	1	-1
593.283	1	-6
594.471	1	10
595.660	1	12
596.848	1	7
598.037	1	0
599.225	1	-6
600.413	1	7
601.602	1	11
602.790	1	-2
603.978	1	-2
605.166	1	7
606.355	1	-2
607.543	1	-5
608.731	1	5
609.919	1	13
611.107	1	0
612.295	1	-3
613.483	1	-7
614.671	1	3
615.858	1	-2
617.046	1	1
618.234	1	-5
619.422	1	-2
620.609	1	1
621.797	1	1
622.985	1	1
624.172	1	5
625.360	1	-2
626.547	1	9
627.735	1	-2
628.922	1	-1
630.109	1	-5
631.297	1	-2
632.484	1	-1
633.671	1	-3
634.858	1	-5
636.045	1	3
637.232	1	-2
638.419	1	-3
639.606	1	4
640.793	1	11
641.980	1	10
643.167	1	-14
644.354	1	5
645.541	1	2
646.728	1	0
647.914	1	-5
649.101	1	2
650.288	1	11
651.474	1	4
652.661	1	-2
653.847	1	12
655.034	1	0
656.220	1	-16
657.406	1	5
658.593	1	4
659.779	1	4
660.965	1	6
662.152	1	7
663.338	1	8
664.524	1	2
665.710	1	-1
666.896	1	-6
668.082	1	-2
669.268	1	-8
670.454	1	4
671.640	1	0
672.826	1	-5
674.011	1	-7
675.197	1	2
676.383	1	2
677.569	1	-1
678.754	1	-1
679.940	1	0
681.125	1	-1
682.311	1	0
683.496	1	11
684.682	1	-3
685.867	1	0
687.053	1	8
688.238	1	5
688.746	1	-7

File: GaN_sample F_spot 12_UVVIS_200 K_200um_800 ms 2x2mm1_11.txt
340.368	1	3
341.565	1	-12
342.763	1	5
343.960	1	-3
345.157	1	-9
346.354	1	-2
347.552	1	-1
348.749	1	-4
349.946	1	-3
351.143	1	1
352.340	1	3
353.537	1	-3
354.734	1	8
355.931	1	3
357.127	1	3
358.324	1	0
359.521	1	13
360.718	1	-3
361.914	1	0
363.111	1	-4
364.308	1	-3
365.504	1	8
366.701	1	-4
367.897	1	3
369.093	1	-6
370.290	1	-3
371.486	1	5
372.682	1	4
373.879	1	0
375.075	1	-5
376.271	1	10
377.467	1	2
378.663	1	-4
379.859	1	2
381.055	1	-6
382.251	1	-4
383.447	1	-9
384.643	1	10
385.839	1	-2
387.035	1	-5
388.230	1	5
389.426	1	-1
390.622	1	-1
391.817	1	4
393.013	1	-5
394.208	1	0
395.404	1	-7
396.599	1	-1
397.795	1	1
398.990	1	2
400.186	1	7
401.381	1	-9
402.576	1	0
403.771	1	2
404.967	1	0
406.162	1	16
407.357	1	2
408.552	1	-5
409.747	1	3
410.942	1	1
412.137	1	6
413.332	1	9
414.526	1	-3
415.721	1	0
416.916	1	3
418.111	1	6
419.305	1	1
420.500	1	0
421.695	1	-1
422.889	1	-7
424.084	1	-3
425.278	1	6
426.472	1	1
427.667	1	9
428.861	1	-1
430.055	1	4
431.250	1	0
432.444	1	4
433.638	1	3
434.832	1	9
436.026	1	4
437.220	1	4
438.414	1	-8
439.608	1	-8
440.802	1	-6
441.996	1	-1
443.190	1	-7
444.384	1	-3
445.578	1	-9
446.771	1	14
447.965	1	-3
449.159	1	2
450.352	1	-2
451.546	1	4
452.739	1	4
453.933	1	-6
455.126	1	3
456.320	1	-7
457.513	1	4
458.706	1	10
459.899	1	6
461.093	1	-1
462.286	1	-5
463.479	1	0
464.672	1	0
465.865	1	5
467.058	1	-4
468.251	1	-1
469.444	1	-4
470.637	1	-4
471.830	1	-4
473.023	1	1
474.215	1	3
475.408	1	-7
476.601	1	0
477.793	1	0
478.986	1	-1
480.179	1	2
481.371	1	0
482.564	1	-1
483.756	1	4
484.948	1	-7
486.141	1	-5
487.333	1	7
488.525	1	0
489.718	1	4
490.910	1	-3
492.102	1	-8
493.294	1	-4
494.486	1	6
495.678	1	1
496.870	1	-3
498.062	1	2
499.254	1	-2
500.446	1	-12
501.638	1	-10
502.829	1	0
504.021	1	3
505.213	1	17
506.404	1	-2
507.596	1	-5
508.788	1	12
509.979	1	0
511.171	1	-5
512.362	1	-3
513.553	1	-3
514.745	1	-2
515.936	1	-1
517.127	1	-5
518.319	1	4
519.510	1	7
520.701	1	4
521.892	1	7
523.083	1	-3
524.274	1	8
525.465	1	12
526.656	1	-2
527.847	1	5
529.038	1	-2
530.229	1	9
531.419	1	8
532.610	1	6
533.801	1	13
534.991	1	2
536.182	1	0
537.373	1	-2
538.563	1	7
539.754	1	7
540.944	1	-7
542.134	1	9
543.325	1	-7
544.515	1	-1
545.705	1	3
546.896	1	-3
548.086	1	-2
549.276	1	4
550.466	1	-2
551.656	1	5
552.846	1	6
554.036	1	1
555.226	1	-10
556.416	1	-6
557.606	1	6
558.796	1	-10
559.986	1	-6
561.175	1	4
562.365	1	1
563.555	1	-5
564.744	1	3
565.934	1	12
567.123	1	5
568.313	1	5
569.502	1	-2
570.692	1	0
571.881	1	6
573.070	1	4
574.260	1	10
575.449	1	0
576.638	1	-3
577.827	1	-6
579.016	1	3
580.205	1	-3
581.394	1	-4
582.583	1	8
583.772	1	7
584.961	1	11
586.150	1	1
587.339	1	1
588.528	1	9
589.717	1	4
590.905	1	-2
592.094	1	-7
593.283	1	1
594.471	1	11
595.660	1	1
596.848	1	3
598.037	1	11
599.225	1	-5
600.413	1	18
601.602	1	7
602.790	1	0
603.978	1	-3
605.166	1	13
606.355	1	6
607.543	1	-6
608.731	1	10
609.919	1	3
611.107	1	-5
612.295	1	-6
613.483	1	3
614.671	1	4
615.858	1	9
617.046	1	6
618.234	1	0
619.422	1	-9
620.609	1	11
621.797	1	-2
622.985	1	6
624.172	1	-3
625.360	1	2
626.547	1	3
627.735	1	2
628.922	1	2
630.109	1	-10
631.297	1	4
632.484	1	5
633.671	1	-12
634.858	1	-8
636.045	1	2
637.232	1	-8
638.419	1	-7
639.606	1	6
640.793	1	15
641.980	1	15
643.167	1	2
644.354	1	-2
645.541	1	-1
646.728	1	-4
647.914	1	-4
649.101	1	-7
650.288	1	1
651.474	1	3
652.661	1	-6
653.847	1	-1
655.034	1	6
656.220	1	-10
657.406	1	7
658.593	1	5
659.779	1	9
660.965	1	-2
662.152	1	8
663.338	1	10
664.524	1	8
665.710	1	5
666.896	1	-6
668.082	1	-4
669.268	1	-3
670.454	1	3
671.640	1	2
672.826	1	2
674.011	1	-5
675.197	1	-7
676.383	1	1
677.569	1	2
678.754	1	4
679.940	1	-3
681.125	1	7
682.311	1	7
683.496	1	-2
684.682	1	-3
685.867	1	-6
687.053	1	0
688.238	1	3
688.746	1	-3

File: GaN_sample F_spot 12_UVVIS_200 K_200um_800 ms 2x2mm1_12.txt
340.368	1	-2
341.565	1	-14
342.763	1	4
343.960	1	0
345.157	1	-6
346.354	1	-1
347.552	1	-5
348.749	1	0
349.946	1	-3
351.143	1	2
352.340	1	4
353.537	1	1
354.734	1	5
355.931	1	-5
357.127	1	3
358.324	1	-13
359.521	1	8
360.718	1	4
361.914	1	11
363.111	1	7
364.308	1	-2
365.504	1	3
366.701	1	-3
367.897	1	-4
369.093	1	-5
370.290	1	-4
371.486	1	11
372.682	1	10
373.879	1	0
375.075	1	0
376.271	1	4
377.467	1	0
378.663	1	-10
379.859	1	-5
381.055	1	3
382.251	1	-10
383.447	1	-11
384.643	1	3
385.839	1	-1
387.035	1	3
388.230	1	6
389.426	1	-10
390.622	1	-7
391.817	1	5
393.013	1	-13
394.208	1	3
395.404	1	1
396.599	1	-2
397.795	1	6
398.990	1	4
400.186	1	-1
401.381	1	-9
402.576	1	-10
403.771	1	3
404.967	1	8
406.162	1	4
407.357	1	6
408.552	1	-10
409.747	1	-5
410.942	1	5
412.137	1	4
413.332	1	2
414.526	1	3
415.721	1	-1
416.916	1	-1
418.111	1	-4
419.305	1	-2
420.500	1	-4
421.695	1	-6
422.889	1	-12
424.084	1	1
425.278	1	10
426.472	1	3
427.667	1	13
428.861	1	-12
430.055	1	9
431.250	1	-4
432.444	1	6
433.638	1	5
434.832	1	-3
436.026	1	6
437.220	1	4
438.414	1	-5
439.608	1	-11
440.802	1	-3
441.996	1	4
443.190	1	-3
444.384	1	-6
445.578	1	-5
446.771	1	18
447.965	1	3
449.159	1	6
450.352	1	2
451.546	1	-3
452.739	1	8
453.933	1	-3
455.126	1	-2
456.320	1	4
457.513	1	4
458.706	1	0
459.899	1	2
461.093	1	5
462.286	1	3
463.479	1	-3
464.672	1	0
465.865	1	-4
467.058	1	1
468.251	1	2
469.444	1	-9
470.637	1	0
471.830	1	2
473.023	1	6
474.215	1	11
475.408	1	2
476.601	1	-1
477.793	1	2
478.986	1	4
480.179	1	0
481.371	1	2
482.564	1	11
483.756	1	0
484.948	1	-5
486.141	1	-7
487.333	1	-2
488.525	1	7
489.718	1	10
490.910	1	-2
492.102	1	-2
493.294	1	1
494.486	1	-1
495.678	1	0
496.870	1	8
498.062	1	13
499.254	1	8
500.446	1	-12
501.638	1	-1
502.829	1	-2
504.021	1	-2
505.213	1	10
506.404	1	5
507.596	1	3
508.788	1	11
509.979	1	-6
511.171	1	-4
512.362	1	1
513.553	1	-12
514.745	1	-5
515.936	1	3
517.127	1	2
518.319	1	4
519.510	1	2
520.701	1	5
521.892	1	10
523.083	1	0
524.274	1	1
525.465	1	4
526.656	1	-4
527.847	1	5
529.038	1	3
530.229	1	6
531.419	1	-1
532.610	1	-1
533.801	1	9
534.991	1	0
536.182	1	5
537.373	1	6
538.563	1	11
539.754	1	6
540.944	1	-7
542.134	1	8
543.325	1	0
544.515	1	-11
545.705	1	8
546.896	1	7
548.086	1	-9
549.276	1	0
550.466	1	-5
551.656	1	10
552.846	1	9
554.036	1	-9
555.226	1	-5
556.416	1	-6
557.606	1	8
558.796	1	-2
559.986	1	-8
561.175	1	8
562.365	1	2
563.555	1	-3
564.744	1	3
565.934	1	12
567.123	1	-1
568.313	1	8
569.502	1	-1
570.692	1	-3
571.881	1	11
573.070	1	7
574.260	1	15
575.449	1	-4
576.638	1	-7
577.827	1	2
579.016	1	10
580.205	1	-8
581.394	1	1
582.583	1	6
583.772	1	8
584.961	1	2
586.150	1	-4
587.339	1	3
588.528	1	-1
589.717	1	7
590.905	1	-2
592.094	1	-2
593.283	1	-2
594.471	1	14
595.660	1	-7
596.848	1	-4
598.037	1	1
599.225	1	-5
600.413	1	9
601.602	1	8
602.790	1	2
603.978	1	-6
605.166	1	10
606.355	1	7
607.543	1	-4
608.731	1	5
609.919	1	8
611.107	1	-4
612.295	1	-9
613.483	1	0
614.671	1	5
615.858	1	4
617.046	1	5
618.234	1	-7
619.422	1	2
620.609	1	4
621.797	1	-7
622.985	1	0
624.172	1	2
625.360	1	-3
626.547	1	2
627.735	1	-8
628.922	1	9
630.109	1	-6
631.297	1	-3
632.484	1	-7
633.671	1	-4
634.858	1	-3
636.045	1	9
637.232	1	-2
638.419	1	0
639.606	1	5
640.793	1	10
641.980	1	4
643.167	1	-7
644.354	1	0
645.541	1	4
646.728	1	-3
647.914	1	-5
649.101	1	1
650.288	1	3
651.474	1	-5
652.661	1	-2
653.847	1	4
655.034	1	-2
656.220	1	-10
657.406	1	9
658.593	1	4
659.779	1	-1
660.965	1	11
662.152	1	1
663.338	1	12
664.524	1	0
665.710	1	3
666.896	1	-2
668.082	1	7
669.268	1	5
670.454	1	4
671.640	1	3
672.826	1	3
674.011	1	5
675.197	1	-7
676.383	1	-2
677.569	1	-6
678.754	1	-3
679.940	1	3
681.125	1	-7
682.311	1	9
683.496	1	2
684.682	1	-4
685.867	1	1
687.053	1	-4
688.238	1	7
688.746	1	-2