Folder: cryo-il_analysis/Data/GaN_200K_800ms (part 9)

File: GaN_sample F_spot 12_UVVIS_200 K_200um_800 ms 2x2mm1_65.txt
340.368	1	11
341.565	1	-11
342.763	1	7
343.960	1	2
345.157	1	-4
346.354	1	7
347.552	1	2
348.749	1	-12
349.946	1	10
351.143	1	8
352.340	1	11
353.537	1	12
354.734	1	15
355.931	1	10
357.127	1	28
358.324	1	28
359.521	1	44
360.718	1	50
361.914	1	60
363.111	1	84
364.308	1	95
365.504	1	136
366.701	1	161
367.897	1	217
369.093	1	248
370.290	1	234
371.486	1	211
372.682	1	178
373.879	1	157
375.075	1	124
376.271	1	124
377.467	1	87
378.663	1	87
379.859	1	60
381.055	1	61
382.251	1	49
383.447	1	35
384.643	1	55
385.839	1	41
387.035	1	28
388.230	1	35
389.426	1	24
390.622	1	32
391.817	1	26
393.013	1	22
394.208	1	18
395.404	1	7
396.599	1	14
397.795	1	9
398.990	1	10
400.186	1	12
401.381	1	6
402.576	1	10
403.771	1	12
404.967	1	4
406.162	1	12
407.357	1	0
408.552	1	1
409.747	1	1
410.942	1	17
412.137	1	12
413.332	1	-1
414.526	1	4
415.721	1	3
416.916	1	2
418.111	1	4
419.305	1	9
420.500	1	-6
421.695	1	3
422.889	1	-6
424.084	1	10
425.278	1	17
426.472	1	4
427.667	1	9
428.861	1	13
430.055	1	7
431.250	1	-3
432.444	1	10
433.638	1	-6
434.832	1	10
436.026	1	11
437.220	1	3
438.414	1	-7
439.608	1	-3
440.802	1	-6
441.996	1	4
443.190	1	6
444.384	1	-5
445.578	1	-9
446.771	1	15
447.965	1	6
449.159	1	-1
450.352	1	-6
451.546	1	-1
452.739	1	9
453.933	1	1
455.126	1	4
456.320	1	4
457.513	1	12
458.706	1	4
459.899	1	1
461.093	1	7
462.286	1	16
463.479	1	6
464.672	1	-6
465.865	1	-6
467.058	1	-1
468.251	1	3
469.444	1	-7
470.637	1	-1
471.830	1	5
473.023	1	8
474.215	1	9
475.408	1	7
476.601	1	0
477.793	1	3
478.986	1	-5
480.179	1	4
481.371	1	8
482.564	1	5
483.756	1	3
484.948	1	5
486.141	1	0
487.333	1	5
488.525	1	4
489.718	1	4
490.910	1	7
492.102	1	3
493.294	1	-1
494.486	1	5
495.678	1	7
496.870	1	5
498.062	1	1
499.254	1	13
500.446	1	-3
501.638	1	4
502.829	1	5
504.021	1	6
505.213	1	18
506.404	1	13
507.596	1	9
508.788	1	29
509.979	1	4
511.171	1	13
512.362	1	13
513.553	1	10
514.745	1	6
515.936	1	9
517.127	1	9
518.319	1	18
519.510	1	13
520.701	1	21
521.892	1	16
523.083	1	19
524.274	1	13
525.465	1	14
526.656	1	21
527.847	1	17
529.038	1	13
530.229	1	21
531.419	1	25
532.610	1	16
533.801	1	32
534.991	1	25
536.182	1	11
537.373	1	33
538.563	1	24
539.754	1	24
540.944	1	16
542.134	1	28
543.325	1	16
544.515	1	14
545.705	1	22
546.896	1	17
548.086	1	29
549.276	1	33
550.466	1	24
551.656	1	26
552.846	1	27
554.036	1	22
555.226	1	7
556.416	1	20
557.606	1	32
558.796	1	17
559.986	1	15
561.175	1	28
562.365	1	19
563.555	1	34
564.744	1	28
565.934	1	37
567.123	1	19
568.313	1	33
569.502	1	20
570.692	1	27
571.881	1	39
573.070	1	17
574.260	1	30
575.449	1	19
576.638	1	18
577.827	1	13
579.016	1	31
580.205	1	30
581.394	1	10
582.583	1	41
583.772	1	31
584.961	1	18
586.150	1	27
587.339	1	10
588.528	1	24
589.717	1	31
590.905	1	17
592.094	1	12
593.283	1	10
594.471	1	27
595.660	1	13
596.848	1	20
598.037	1	22
599.225	1	9
600.413	1	28
601.602	1	23
602.790	1	19
603.978	1	21
605.166	1	31
606.355	1	16
607.543	1	8
608.731	1	8
609.919	1	34
611.107	1	8
612.295	1	7
613.483	1	18
614.671	1	16
615.858	1	7
617.046	1	11
618.234	1	15
619.422	1	8
620.609	1	10
621.797	1	8
622.985	1	13
624.172	1	10
625.360	1	17
626.547	1	24
627.735	1	6
628.922	1	19
630.109	1	1
631.297	1	13
632.484	1	9
633.671	1	9
634.858	1	6
636.045	1	23
637.232	1	11
638.419	1	8
639.606	1	11
640.793	1	18
641.980	1	20
643.167	1	11
644.354	1	7
645.541	1	12
646.728	1	3
647.914	1	3
649.101	1	4
650.288	1	17
651.474	1	4
652.661	1	3
653.847	1	10
655.034	1	5
656.220	1	-4
657.406	1	20
658.593	1	17
659.779	1	13
660.965	1	8
662.152	1	5
663.338	1	12
664.524	1	6
665.710	1	14
666.896	1	6
668.082	1	7
669.268	1	7
670.454	1	7
671.640	1	8
672.826	1	3
674.011	1	5
675.197	1	-4
676.383	1	14
677.569	1	1
678.754	1	-1
679.940	1	3
681.125	1	25
682.311	1	18
683.496	1	14
684.682	1	-10
685.867	1	6
687.053	1	15
688.238	1	7
688.746	1	6

File: GaN_sample F_spot 12_UVVIS_200 K_200um_800 ms 2x2mm1_66.txt
340.368	1	4
341.565	1	3
342.763	1	7
343.960	1	7
345.157	1	2
346.354	1	13
347.552	1	4
348.749	1	0
349.946	1	0
351.143	1	7
352.340	1	6
353.537	1	17
354.734	1	17
355.931	1	12
357.127	1	23
358.324	1	25
359.521	1	38
360.718	1	39
361.914	1	53
363.111	1	66
364.308	1	81
365.504	1	141
366.701	1	152
367.897	1	197
369.093	1	212
370.290	1	221
371.486	1	204
372.682	1	164
373.879	1	145
375.075	1	122
376.271	1	128
377.467	1	104
378.663	1	73
379.859	1	61
381.055	1	55
382.251	1	49
383.447	1	53
384.643	1	45
385.839	1	38
387.035	1	33
388.230	1	32
389.426	1	19
390.622	1	18
391.817	1	29
393.013	1	18
394.208	1	14
395.404	1	10
396.599	1	9
397.795	1	15
398.990	1	14
400.186	1	12
401.381	1	3
402.576	1	6
403.771	1	16
404.967	1	5
406.162	1	16
407.357	1	2
408.552	1	5
409.747	1	4
410.942	1	23
412.137	1	7
413.332	1	3
414.526	1	1
415.721	1	7
416.916	1	0
418.111	1	0
419.305	1	8
420.500	1	1
421.695	1	-5
422.889	1	5
424.084	1	2
425.278	1	9
426.472	1	-4
427.667	1	8
428.861	1	2
430.055	1	7
431.250	1	-2
432.444	1	10
433.638	1	-1
434.832	1	9
436.026	1	15
437.220	1	5
438.414	1	-7
439.608	1	-1
440.802	1	5
441.996	1	13
443.190	1	3
444.384	1	-8
445.578	1	-1
446.771	1	20
447.965	1	3
449.159	1	0
450.352	1	3
451.546	1	7
452.739	1	-4
453.933	1	3
455.126	1	-3
456.320	1	-1
457.513	1	8
458.706	1	-2
459.899	1	10
461.093	1	4
462.286	1	9
463.479	1	-3
464.672	1	3
465.865	1	1
467.058	1	9
468.251	1	-1
469.444	1	-8
470.637	1	9
471.830	1	-4
473.023	1	8
474.215	1	13
475.408	1	4
476.601	1	5
477.793	1	1
478.986	1	0
480.179	1	2
481.371	1	7
482.564	1	7
483.756	1	6
484.948	1	1
486.141	1	4
487.333	1	3
488.525	1	8
489.718	1	7
490.910	1	10
492.102	1	-1
493.294	1	-1
494.486	1	6
495.678	1	8
496.870	1	9
498.062	1	15
499.254	1	7
500.446	1	4
501.638	1	-1
502.829	1	14
504.021	1	9
505.213	1	11
506.404	1	11
507.596	1	8
508.788	1	25
509.979	1	15
511.171	1	5
512.362	1	4
513.553	1	7
514.745	1	6
515.936	1	7
517.127	1	16
518.319	1	18
519.510	1	14
520.701	1	18
521.892	1	24
523.083	1	12
524.274	1	18
525.465	1	24
526.656	1	17
527.847	1	19
529.038	1	23
530.229	1	24
531.419	1	23
532.610	1	10
533.801	1	26
534.991	1	30
536.182	1	21
537.373	1	28
538.563	1	24
539.754	1	27
540.944	1	10
542.134	1	23
543.325	1	16
544.515	1	16
545.705	1	26
546.896	1	25
548.086	1	27
549.276	1	28
550.466	1	31
551.656	1	34
552.846	1	22
554.036	1	23
555.226	1	10
556.416	1	21
557.606	1	14
558.796	1	27
559.986	1	12
561.175	1	22
562.365	1	27
563.555	1	17
564.744	1	27
565.934	1	41
567.123	1	27
568.313	1	21
569.502	1	24
570.692	1	31
571.881	1	42
573.070	1	17
574.260	1	31
575.449	1	14
576.638	1	10
577.827	1	15
579.016	1	37
580.205	1	16
581.394	1	19
582.583	1	27
583.772	1	19
584.961	1	29
586.150	1	23
587.339	1	13
588.528	1	30
589.717	1	15
590.905	1	22
592.094	1	16
593.283	1	16
594.471	1	16
595.660	1	17
596.848	1	12
598.037	1	17
599.225	1	8
600.413	1	17
601.602	1	23
602.790	1	15
603.978	1	23
605.166	1	22
606.355	1	18
607.543	1	15
608.731	1	21
609.919	1	23
611.107	1	19
612.295	1	16
613.483	1	20
614.671	1	21
615.858	1	14
617.046	1	7
618.234	1	10
619.422	1	0
620.609	1	17
621.797	1	11
622.985	1	9
624.172	1	12
625.360	1	10
626.547	1	16
627.735	1	15
628.922	1	11
630.109	1	3
631.297	1	9
632.484	1	5
633.671	1	-3
634.858	1	14
636.045	1	20
637.232	1	3
638.419	1	5
639.606	1	12
640.793	1	21
641.980	1	15
643.167	1	6
644.354	1	14
645.541	1	14
646.728	1	10
647.914	1	7
649.101	1	16
650.288	1	9
651.474	1	3
652.661	1	1
653.847	1	21
655.034	1	6
656.220	1	-6
657.406	1	13
658.593	1	18
659.779	1	8
660.965	1	13
662.152	1	8
663.338	1	13
664.524	1	11
665.710	1	12
666.896	1	1
668.082	1	14
669.268	1	2
670.454	1	-1
671.640	1	8
672.826	1	11
674.011	1	7
675.197	1	0
676.383	1	11
677.569	1	0
678.754	1	-2
679.940	1	2
681.125	1	14
682.311	1	12
683.496	1	16
684.682	1	11
685.867	1	3
687.053	1	16
688.238	1	20
688.746	1	5

File: GaN_sample F_spot 12_UVVIS_200 K_200um_800 ms 2x2mm1_67.txt
340.368	1	4
341.565	1	-6
342.763	1	9
343.960	1	-3
345.157	1	4
346.354	1	5
347.552	1	4
348.749	1	0
349.946	1	-2
351.143	1	4
352.340	1	14
353.537	1	8
354.734	1	15
355.931	1	12
357.127	1	14
358.324	1	16
359.521	1	44
360.718	1	41
361.914	1	53
363.111	1	67
364.308	1	95
365.504	1	129
366.701	1	160
367.897	1	199
369.093	1	213
370.290	1	216
371.486	1	205
372.682	1	175
373.879	1	142
375.075	1	111
376.271	1	97
377.467	1	100
378.663	1	71
379.859	1	60
381.055	1	53
382.251	1	36
383.447	1	38
384.643	1	39
385.839	1	40
387.035	1	26
388.230	1	34
389.426	1	17
390.622	1	19
391.817	1	23
393.013	1	18
394.208	1	17
395.404	1	5
396.599	1	18
397.795	1	12
398.990	1	14
400.186	1	12
401.381	1	6
402.576	1	5
403.771	1	10
404.967	1	6
406.162	1	10
407.357	1	-1
408.552	1	9
409.747	1	9
410.942	1	13
412.137	1	17
413.332	1	11
414.526	1	4
415.721	1	12
416.916	1	-5
418.111	1	5
419.305	1	16
420.500	1	-2
421.695	1	-1
422.889	1	-11
424.084	1	5
425.278	1	17
426.472	1	4
427.667	1	9
428.861	1	2
430.055	1	4
431.250	1	4
432.444	1	10
433.638	1	0
434.832	1	-3
436.026	1	7
437.220	1	7
438.414	1	-4
439.608	1	1
440.802	1	-9
441.996	1	11
443.190	1	2
444.384	1	-3
445.578	1	-9
446.771	1	11
447.965	1	-3
449.159	1	-9
450.352	1	1
451.546	1	-1
452.739	1	11
453.933	1	-4
455.126	1	2
456.320	1	-3
457.513	1	11
458.706	1	7
459.899	1	1
461.093	1	5
462.286	1	-4
463.479	1	1
464.672	1	5
465.865	1	2
467.058	1	5
468.251	1	3
469.444	1	2
470.637	1	2
471.830	1	-2
473.023	1	-3
474.215	1	9
475.408	1	7
476.601	1	-1
477.793	1	0
478.986	1	-5
480.179	1	2
481.371	1	2
482.564	1	7
483.756	1	3
484.948	1	-4
486.141	1	4
487.333	1	5
488.525	1	10
489.718	1	8
490.910	1	5
492.102	1	-6
493.294	1	2
494.486	1	8
495.678	1	12
496.870	1	7
498.062	1	2
499.254	1	10
500.446	1	6
501.638	1	-5
502.829	1	10
504.021	1	5
505.213	1	21
506.404	1	10
507.596	1	3
508.788	1	31
509.979	1	8
511.171	1	1
512.362	1	6
513.553	1	4
514.745	1	4
515.936	1	11
517.127	1	17
518.319	1	9
519.510	1	10
520.701	1	8
521.892	1	17
523.083	1	9
524.274	1	13
525.465	1	17
526.656	1	8
527.847	1	17
529.038	1	18
530.229	1	16
531.419	1	27
532.610	1	13
533.801	1	42
534.991	1	18
536.182	1	19
537.373	1	27
538.563	1	16
539.754	1	23
540.944	1	14
542.134	1	19
543.325	1	16
544.515	1	18
545.705	1	10
546.896	1	22
548.086	1	20
549.276	1	13
550.466	1	20
551.656	1	30
552.846	1	27
554.036	1	29
555.226	1	15
556.416	1	17
557.606	1	27
558.796	1	23
559.986	1	20
561.175	1	21
562.365	1	28
563.555	1	20
564.744	1	23
565.934	1	32
567.123	1	26
568.313	1	37
569.502	1	20
570.692	1	24
571.881	1	38
573.070	1	27
574.260	1	31
575.449	1	24
576.638	1	13
577.827	1	19
579.016	1	28
580.205	1	7
581.394	1	13
582.583	1	33
583.772	1	29
584.961	1	23
586.150	1	12
587.339	1	26
588.528	1	23
589.717	1	30
590.905	1	21
592.094	1	21
593.283	1	11
594.471	1	19
595.660	1	13
596.848	1	10
598.037	1	16
599.225	1	5
600.413	1	25
601.602	1	31
602.790	1	10
603.978	1	27
605.166	1	18
606.355	1	21
607.543	1	18
608.731	1	15
609.919	1	21
611.107	1	20
612.295	1	10
613.483	1	17
614.671	1	23
615.858	1	17
617.046	1	13
618.234	1	14
619.422	1	3
620.609	1	25
621.797	1	16
622.985	1	15
624.172	1	11
625.360	1	11
626.547	1	15
627.735	1	13
628.922	1	19
630.109	1	5
631.297	1	12
632.484	1	7
633.671	1	7
634.858	1	4
636.045	1	26
637.232	1	8
638.419	1	3
639.606	1	24
640.793	1	10
641.980	1	18
643.167	1	-1
644.354	1	8
645.541	1	6
646.728	1	14
647.914	1	3
649.101	1	11
650.288	1	15
651.474	1	7
652.661	1	8
653.847	1	11
655.034	1	23
656.220	1	-1
657.406	1	9
658.593	1	17
659.779	1	8
660.965	1	9
662.152	1	13
663.338	1	15
664.524	1	8
665.710	1	11
666.896	1	2
668.082	1	12
669.268	1	13
670.454	1	16
671.640	1	8
672.826	1	6
674.011	1	6
675.197	1	-3
676.383	1	-1
677.569	1	5
678.754	1	11
679.940	1	7
681.125	1	6
682.311	1	10
683.496	1	4
684.682	1	13
685.867	1	8
687.053	1	8
688.238	1	14
688.746	1	14

File: GaN_sample F_spot 12_UVVIS_200 K_200um_800 ms 2x2mm1_68.txt
340.368	1	9
341.565	1	-4
342.763	1	5
343.960	1	4
345.157	1	7
346.354	1	8
347.552	1	-8
348.749	1	-6
349.946	1	-2
351.143	1	4
352.340	1	16
353.537	1	13
354.734	1	17
355.931	1	13
357.127	1	22
358.324	1	24
359.521	1	40
360.718	1	40
361.914	1	49
363.111	1	61
364.308	1	84
365.504	1	133
366.701	1	155
367.897	1	193
369.093	1	203
370.290	1	215
371.486	1	199
372.682	1	170
373.879	1	130
375.075	1	104
376.271	1	117
377.467	1	89
378.663	1	68
379.859	1	55
381.055	1	58
382.251	1	39
383.447	1	43
384.643	1	46
385.839	1	30
387.035	1	33
388.230	1	40
389.426	1	16
390.622	1	14
391.817	1	13
393.013	1	18
394.208	1	15
395.404	1	9
396.599	1	13
397.795	1	8
398.990	1	8
400.186	1	2
401.381	1	9
402.576	1	14
403.771	1	9
404.967	1	7
406.162	1	8
407.357	1	3
408.552	1	-6
409.747	1	2
410.942	1	15
412.137	1	8
413.332	1	13
414.526	1	8
415.721	1	4
416.916	1	-4
418.111	1	4
419.305	1	10
420.500	1	-7
421.695	1	-6
422.889	1	-1
424.084	1	6
425.278	1	13
426.472	1	10
427.667	1	11
428.861	1	4
430.055	1	15
431.250	1	1
432.444	1	9
433.638	1	1
434.832	1	16
436.026	1	13
437.220	1	0
438.414	1	-9
439.608	1	-8
440.802	1	-6
441.996	1	2
443.190	1	5
444.384	1	-4
445.578	1	-8
446.771	1	18
447.965	1	6
449.159	1	-4
450.352	1	4
451.546	1	6
452.739	1	9
453.933	1	3
455.126	1	-4
456.320	1	1
457.513	1	4
458.706	1	-2
459.899	1	1
461.093	1	1
462.286	1	6
463.479	1	7
464.672	1	-5
465.865	1	3
467.058	1	-1
468.251	1	9
469.444	1	1
470.637	1	5
471.830	1	7
473.023	1	6
474.215	1	15
475.408	1	2
476.601	1	5
477.793	1	1
478.986	1	4
480.179	1	-1
481.371	1	1
482.564	1	-2
483.756	1	17
484.948	1	-7
486.141	1	1
487.333	1	9
488.525	1	13
489.718	1	-1
490.910	1	9
492.102	1	6
493.294	1	-7
494.486	1	8
495.678	1	11
496.870	1	11
498.062	1	11
499.254	1	7
500.446	1	-4
501.638	1	2
502.829	1	17
504.021	1	14
505.213	1	12
506.404	1	10
507.596	1	10
508.788	1	22
509.979	1	15
511.171	1	10
512.362	1	4
513.553	1	-6
514.745	1	19
515.936	1	10
517.127	1	11
518.319	1	12
519.510	1	15
520.701	1	20
521.892	1	19
523.083	1	13
524.274	1	12
525.465	1	14
526.656	1	7
527.847	1	24
529.038	1	26
530.229	1	18
531.419	1	22
532.610	1	13
533.801	1	42
534.991	1	19
536.182	1	12
537.373	1	16
538.563	1	24
539.754	1	32
540.944	1	21
542.134	1	25
543.325	1	18
544.515	1	19
545.705	1	19
546.896	1	26
548.086	1	22
549.276	1	12
550.466	1	26
551.656	1	33
552.846	1	25
554.036	1	26
555.226	1	11
556.416	1	13
557.606	1	21
558.796	1	16
559.986	1	12
561.175	1	20
562.365	1	16
563.555	1	11
564.744	1	29
565.934	1	21
567.123	1	21
568.313	1	28
569.502	1	12
570.692	1	31
571.881	1	33
573.070	1	27
574.260	1	35
575.449	1	13
576.638	1	25
577.827	1	13
579.016	1	28
580.205	1	24
581.394	1	12
582.583	1	27
583.772	1	33
584.961	1	22
586.150	1	18
587.339	1	21
588.528	1	6
589.717	1	18
590.905	1	18
592.094	1	21
593.283	1	13
594.471	1	28
595.660	1	21
596.848	1	20
598.037	1	8
599.225	1	5
600.413	1	16
601.602	1	27
602.790	1	14
603.978	1	24
605.166	1	22
606.355	1	18
607.543	1	29
608.731	1	19
609.919	1	20
611.107	1	7
612.295	1	8
613.483	1	15
614.671	1	24
615.858	1	17
617.046	1	10
618.234	1	14
619.422	1	2
620.609	1	16
621.797	1	12
622.985	1	12
624.172	1	13
625.360	1	5
626.547	1	12
627.735	1	15
628.922	1	10
630.109	1	0
631.297	1	12
632.484	1	8
633.671	1	2
634.858	1	6
636.045	1	10
637.232	1	5
638.419	1	4
639.606	1	7
640.793	1	22
641.980	1	15
643.167	1	7
644.354	1	7
645.541	1	13
646.728	1	10
647.914	1	9
649.101	1	7
650.288	1	9
651.474	1	2
652.661	1	6
653.847	1	16
655.034	1	10
656.220	1	1
657.406	1	15
658.593	1	20
659.779	1	15
660.965	1	17
662.152	1	6
663.338	1	9
664.524	1	10
665.710	1	9
666.896	1	-2
668.082	1	6
669.268	1	13
670.454	1	9
671.640	1	11
672.826	1	4
674.011	1	6
675.197	1	3
676.383	1	13
677.569	1	9
678.754	1	7
679.940	1	4
681.125	1	11
682.311	1	8
683.496	1	21
684.682	1	12
685.867	1	7
687.053	1	3
688.238	1	5
688.746	1	8

File: GaN_sample F_spot 12_UVVIS_200 K_200um_800 ms 2x2mm1_69.txt
340.368	1	3
341.565	1	-2
342.763	1	3
343.960	1	9
345.157	1	-7
346.354	1	4
347.552	1	-5
348.749	1	1
349.946	1	1
351.143	1	13
352.340	1	13
353.537	1	9
354.734	1	19
355.931	1	9
357.127	1	12
358.324	1	16
359.521	1	25
360.718	1	37
361.914	1	57
363.111	1	66
364.308	1	79
365.504	1	110
366.701	1	151
367.897	1	180
369.093	1	189
370.290	1	210
371.486	1	199
372.682	1	163
373.879	1	142
375.075	1	121
376.271	1	97
377.467	1	90
378.663	1	61
379.859	1	66
381.055	1	59
382.251	1	46
383.447	1	29
384.643	1	43
385.839	1	29
387.035	1	40
388.230	1	32
389.426	1	16
390.622	1	11
391.817	1	9
393.013	1	18
394.208	1	9
395.404	1	8
396.599	1	5
397.795	1	15
398.990	1	8
400.186	1	10
401.381	1	11
402.576	1	3
403.771	1	6
404.967	1	6
406.162	1	6
407.357	1	-4
408.552	1	5
409.747	1	1
410.942	1	5
412.137	1	10
413.332	1	5
414.526	1	1
415.721	1	7
416.916	1	2
418.111	1	4
419.305	1	15
420.500	1	-1
421.695	1	-4
422.889	1	-14
424.084	1	4
425.278	1	12
426.472	1	-1
427.667	1	18
428.861	1	6
430.055	1	8
431.250	1	9
432.444	1	2
433.638	1	8
434.832	1	5
436.026	1	7
437.220	1	12
438.414	1	-5
439.608	1	-7
440.802	1	1
441.996	1	2
443.190	1	6
444.384	1	-12
445.578	1	-9
446.771	1	11
447.965	1	-4
449.159	1	-6
450.352	1	5
451.546	1	4
452.739	1	4
453.933	1	7
455.126	1	0
456.320	1	7
457.513	1	10
458.706	1	-2
459.899	1	-4
461.093	1	-1
462.286	1	8
463.479	1	3
464.672	1	4
465.865	1	0
467.058	1	-1
468.251	1	4
469.444	1	-1
470.637	1	8
471.830	1	-3
473.023	1	3
474.215	1	10
475.408	1	8
476.601	1	0
477.793	1	13
478.986	1	7
480.179	1	-3
481.371	1	12
482.564	1	7
483.756	1	10
484.948	1	0
486.141	1	9
487.333	1	6
488.525	1	6
489.718	1	0
490.910	1	-4
492.102	1	5
493.294	1	5
494.486	1	8
495.678	1	17
496.870	1	20
498.062	1	6
499.254	1	13
500.446	1	-3
501.638	1	4
502.829	1	8
504.021	1	9
505.213	1	7
506.404	1	7
507.596	1	11
508.788	1	25
509.979	1	10
511.171	1	1
512.362	1	6
513.553	1	3
514.745	1	8
515.936	1	7
517.127	1	11
518.319	1	10
519.510	1	8
520.701	1	24
521.892	1	18
523.083	1	4
524.274	1	7
525.465	1	21
526.656	1	26
527.847	1	19
529.038	1	12
530.229	1	16
531.419	1	21
532.610	1	18
533.801	1	26
534.991	1	26
536.182	1	19
537.373	1	14
538.563	1	15
539.754	1	21
540.944	1	13
542.134	1	19
543.325	1	18
544.515	1	12
545.705	1	24
546.896	1	20
548.086	1	20
549.276	1	14
550.466	1	23
551.656	1	34
552.846	1	19
554.036	1	20
555.226	1	7
556.416	1	6
557.606	1	24
558.796	1	25
559.986	1	22
561.175	1	22
562.365	1	21
563.555	1	12
564.744	1	22
565.934	1	24
567.123	1	30
568.313	1	20
569.502	1	21
570.692	1	29
571.881	1	31
573.070	1	13
574.260	1	27
575.449	1	6
576.638	1	11
577.827	1	12
579.016	1	25
580.205	1	25
581.394	1	20
582.583	1	24
583.772	1	29
584.961	1	27
586.150	1	11
587.339	1	22
588.528	1	18
589.717	1	19
590.905	1	10
592.094	1	13
593.283	1	13
594.471	1	30
595.660	1	15
596.848	1	10
598.037	1	9
599.225	1	1
600.413	1	27
601.602	1	15
602.790	1	15
603.978	1	14
605.166	1	24
606.355	1	16
607.543	1	14
608.731	1	16
609.919	1	21
611.107	1	11
612.295	1	16
613.483	1	14
614.671	1	13
615.858	1	5
617.046	1	11
618.234	1	10
619.422	1	0
620.609	1	16
621.797	1	15
622.985	1	15
624.172	1	10
625.360	1	6
626.547	1	16
627.735	1	16
628.922	1	19
630.109	1	3
631.297	1	16
632.484	1	9
633.671	1	8
634.858	1	7
636.045	1	26
637.232	1	10
638.419	1	3
639.606	1	14
640.793	1	16
641.980	1	21
643.167	1	0
644.354	1	15
645.541	1	10
646.728	1	13
647.914	1	0
649.101	1	17
650.288	1	19
651.474	1	0
652.661	1	6
653.847	1	8
655.034	1	5
656.220	1	-9
657.406	1	7
658.593	1	7
659.779	1	5
660.965	1	12
662.152	1	12
663.338	1	18
664.524	1	12
665.710	1	3
666.896	1	-4
668.082	1	4
669.268	1	5
670.454	1	14
671.640	1	11
672.826	1	9
674.011	1	14
675.197	1	-5
676.383	1	11
677.569	1	-1
678.754	1	4
679.940	1	6
681.125	1	13
682.311	1	7
683.496	1	14
684.682	1	4
685.867	1	8
687.053	1	12
688.238	1	14
688.746	1	19

File: GaN_sample F_spot 12_UVVIS_200 K_200um_800 ms 2x2mm1_70.txt
340.368	1	9
341.565	1	-6
342.763	1	6
343.960	1	-1
345.157	1	5
346.354	1	1
347.552	1	1
348.749	1	-10
349.946	1	8
351.143	1	8
352.340	1	9
353.537	1	11
354.734	1	19
355.931	1	9
357.127	1	20
358.324	1	20
359.521	1	39
360.718	1	41
361.914	1	56
363.111	1	51
364.308	1	81
365.504	1	114
366.701	1	142
367.897	1	171
369.093	1	192
370.290	1	195
371.486	1	180
372.682	1	167
373.879	1	144
375.075	1	113
376.271	1	105
377.467	1	84
378.663	1	75
379.859	1	52
381.055	1	60
382.251	1	39
383.447	1	39
384.643	1	44
385.839	1	41
387.035	1	27
388.230	1	35
389.426	1	22
390.622	1	22
391.817	1	8
393.013	1	10
394.208	1	14
395.404	1	9
396.599	1	7
397.795	1	17
398.990	1	13
400.186	1	12
401.381	1	3
402.576	1	7
403.771	1	7
404.967	1	15
406.162	1	18
407.357	1	13
408.552	1	-6
409.747	1	6
410.942	1	10
412.137	1	6
413.332	1	7
414.526	1	-4
415.721	1	12
416.916	1	5
418.111	1	4
419.305	1	18
420.500	1	7
421.695	1	4
422.889	1	-4
424.084	1	2
425.278	1	5
426.472	1	12
427.667	1	10
428.861	1	-8
430.055	1	1
431.250	1	3
432.444	1	17
433.638	1	-3
434.832	1	0
436.026	1	8
437.220	1	7
438.414	1	-3
439.608	1	-10
440.802	1	2
441.996	1	2
443.190	1	2
444.384	1	-1
445.578	1	-6
446.771	1	20
447.965	1	-4
449.159	1	5
450.352	1	-2
451.546	1	5
452.739	1	4
453.933	1	5
455.126	1	1
456.320	1	-1
457.513	1	2
458.706	1	3
459.899	1	2
461.093	1	5
462.286	1	12
463.479	1	8
464.672	1	1
465.865	1	9
467.058	1	-2
468.251	1	9
469.444	1	-4
470.637	1	0
471.830	1	2
473.023	1	12
474.215	1	8
475.408	1	3
476.601	1	5
477.793	1	1
478.986	1	7
480.179	1	3
481.371	1	12
482.564	1	12
483.756	1	16
484.948	1	-3
486.141	1	3
487.333	1	3
488.525	1	8
489.718	1	9
490.910	1	8
492.102	1	7
493.294	1	3
494.486	1	5
495.678	1	3
496.870	1	10
498.062	1	9
499.254	1	7
500.446	1	1
501.638	1	8
502.829	1	12
504.021	1	2
505.213	1	18
506.404	1	3
507.596	1	17
508.788	1	30
509.979	1	3
511.171	1	10
512.362	1	10
513.553	1	-6
514.745	1	11
515.936	1	14
517.127	1	11
518.319	1	14
519.510	1	21
520.701	1	22
521.892	1	16
523.083	1	14
524.274	1	21
525.465	1	20
526.656	1	11
527.847	1	21
529.038	1	15
530.229	1	26
531.419	1	28
532.610	1	15
533.801	1	29
534.991	1	8
536.182	1	16
537.373	1	16
538.563	1	27
539.754	1	21
540.944	1	10
542.134	1	17
543.325	1	20
544.515	1	13
545.705	1	15
546.896	1	19
548.086	1	6
549.276	1	23
550.466	1	26
551.656	1	21
552.846	1	18
554.036	1	15
555.226	1	14
556.416	1	17
557.606	1	8
558.796	1	21
559.986	1	11
561.175	1	27
562.365	1	12
563.555	1	21
564.744	1	20
565.934	1	31
567.123	1	18
568.313	1	28
569.502	1	30
570.692	1	29
571.881	1	24
573.070	1	32
574.260	1	30
575.449	1	10
576.638	1	14
577.827	1	9
579.016	1	39
580.205	1	24
581.394	1	12
582.583	1	32
583.772	1	22
584.961	1	24
586.150	1	21
587.339	1	17
588.528	1	25
589.717	1	21
590.905	1	11
592.094	1	14
593.283	1	25
594.471	1	31
595.660	1	12
596.848	1	21
598.037	1	19
599.225	1	3
600.413	1	23
601.602	1	21
602.790	1	7
603.978	1	9
605.166	1	28
606.355	1	15
607.543	1	21
608.731	1	9
609.919	1	15
611.107	1	20
612.295	1	18
613.483	1	7
614.671	1	13
615.858	1	14
617.046	1	12
618.234	1	4
619.422	1	3
620.609	1	17
621.797	1	7
622.985	1	11
624.172	1	7
625.360	1	17
626.547	1	6
627.735	1	13
628.922	1	17
630.109	1	-2
631.297	1	13
632.484	1	2
633.671	1	10
634.858	1	5
636.045	1	17
637.232	1	6
638.419	1	7
639.606	1	8
640.793	1	17
641.980	1	10
643.167	1	7
644.354	1	12
645.541	1	7
646.728	1	6
647.914	1	9
649.101	1	0
650.288	1	13
651.474	1	4
652.661	1	6
653.847	1	19
655.034	1	11
656.220	1	-1
657.406	1	8
658.593	1	8
659.779	1	7
660.965	1	17
662.152	1	7
663.338	1	14
664.524	1	9
665.710	1	1
666.896	1	11
668.082	1	7
669.268	1	3
670.454	1	11
671.640	1	15
672.826	1	1
674.011	1	8
675.197	1	3
676.383	1	11
677.569	1	7
678.754	1	5
679.940	1	9
681.125	1	10
682.311	1	-1
683.496	1	18
684.682	1	-3
685.867	1	4
687.053	1	11
688.238	1	22
688.746	1	2