Folder: cryo-il_analysis/Data/GaN_130K_350ms (part 18)

File: GaN_sample F_spot6_UVVIS_130 K_200um_350 ms 2x2mm1_221.txt
340.368	1	2
341.565	1	-6
342.763	1	10
343.960	1	-5
345.157	1	-2
346.354	1	-4
347.552	1	2
348.749	1	11
349.946	1	4
351.143	1	8
352.340	1	13
353.537	1	2
354.734	1	-1
355.931	1	13
357.127	1	9
358.324	1	5
359.521	1	-7
360.718	1	11
361.914	1	6
363.111	1	17
364.308	1	16
365.504	1	11
366.701	1	20
367.897	1	7
369.093	1	17
370.290	1	25
371.486	1	15
372.682	1	12
373.879	1	11
375.075	1	19
376.271	1	10
377.467	1	16
378.663	1	13
379.859	1	9
381.055	1	11
382.251	1	10
383.447	1	5
384.643	1	2
385.839	1	4
387.035	1	10
388.230	1	1
389.426	1	13
390.622	1	-4
391.817	1	9
393.013	1	2
394.208	1	-4
395.404	1	0
396.599	1	2
397.795	1	-5
398.990	1	4
400.186	1	-4
401.381	1	4
402.576	1	-1
403.771	1	4
404.967	1	4
406.162	1	2
407.357	1	4
408.552	1	2
409.747	1	3
410.942	1	7
412.137	1	-6
413.332	1	1
414.526	1	2
415.721	1	3
416.916	1	-1
418.111	1	13
419.305	1	7
420.500	1	0
421.695	1	0
422.889	1	6
424.084	1	8
425.278	1	-1
426.472	1	4
427.667	1	14
428.861	1	7
430.055	1	2
431.250	1	11
432.444	1	9
433.638	1	5
434.832	1	-2
436.026	1	11
437.220	1	-5
438.414	1	-7
439.608	1	16
440.802	1	-2
441.996	1	18
443.190	1	0
444.384	1	-11
445.578	1	0
446.771	1	3
447.965	1	4
449.159	1	10
450.352	1	13
451.546	1	13
452.739	1	7
453.933	1	4
455.126	1	-2
456.320	1	-4
457.513	1	-3
458.706	1	11
459.899	1	3
461.093	1	6
462.286	1	-2
463.479	1	13
464.672	1	3
465.865	1	-6
467.058	1	5
468.251	1	2
469.444	1	9
470.637	1	7
471.830	1	5
473.023	1	6
474.215	1	8
475.408	1	-1
476.601	1	0
477.793	1	3
478.986	1	-1
480.179	1	-6
481.371	1	7
482.564	1	2
483.756	1	-8
484.948	1	5
486.141	1	5
487.333	1	-8
488.525	1	1
489.718	1	11
490.910	1	-4
492.102	1	1
493.294	1	10
494.486	1	22
495.678	1	-6
496.870	1	9
498.062	1	5
499.254	1	6
500.446	1	5
501.638	1	2
502.829	1	-2
504.021	1	6
505.213	1	-1
506.404	1	4
507.596	1	-1
508.788	1	1
509.979	1	3
511.171	1	13
512.362	1	1
513.553	1	4
514.745	1	3
515.936	1	20
517.127	1	7
518.319	1	-3
519.510	1	7
520.701	1	6
521.892	1	8
523.083	1	11
524.274	1	3
525.465	1	3
526.656	1	8
527.847	1	6
529.038	1	-4
530.229	1	8
531.419	1	17
532.610	1	1
533.801	1	10
534.991	1	7
536.182	1	10
537.373	1	9
538.563	1	10
539.754	1	1
540.944	1	0
542.134	1	8
543.325	1	5
544.515	1	6
545.705	1	-1
546.896	1	1
548.086	1	-8
549.276	1	-2
550.466	1	15
551.656	1	2
552.846	1	5
554.036	1	7
555.226	1	9
556.416	1	14
557.606	1	0
558.796	1	4
559.986	1	10
561.175	1	9
562.365	1	9
563.555	1	12
564.744	1	7
565.934	1	-4
567.123	1	10
568.313	1	1
569.502	1	7
570.692	1	13
571.881	1	1
573.070	1	-5
574.260	1	3
575.449	1	9
576.638	1	-2
577.827	1	-1
579.016	1	1
580.205	1	1
581.394	1	2
582.583	1	12
583.772	1	3
584.961	1	-5
586.150	1	16
587.339	1	-7
588.528	1	15
589.717	1	6
590.905	1	12
592.094	1	7
593.283	1	-7
594.471	1	5
595.660	1	8
596.848	1	2
598.037	1	8
599.225	1	6
600.413	1	30
601.602	1	-1
602.790	1	-2
603.978	1	-2
605.166	1	8
606.355	1	11
607.543	1	5
608.731	1	2
609.919	1	6
611.107	1	2
612.295	1	8
613.483	1	-1
614.671	1	8
615.858	1	-3
617.046	1	8
618.234	1	-2
619.422	1	5
620.609	1	-2
621.797	1	-3
622.985	1	8
624.172	1	-4
625.360	1	7
626.547	1	4
627.735	1	6
628.922	1	-3
630.109	1	6
631.297	1	-5
632.484	1	-7
633.671	1	-7
634.858	1	5
636.045	1	8
637.232	1	-4
638.419	1	7
639.606	1	6
640.793	1	-10
641.980	1	2
643.167	1	6
644.354	1	-4
645.541	1	3
646.728	1	10
647.914	1	-5
649.101	1	-7
650.288	1	5
651.474	1	4
652.661	1	-1
653.847	1	3
655.034	1	4
656.220	1	-6
657.406	1	7
658.593	1	-1
659.779	1	0
660.965	1	0
662.152	1	-1
663.338	1	3
664.524	1	0
665.710	1	6
666.896	1	7
668.082	1	4
669.268	1	4
670.454	1	6
671.640	1	-9
672.826	1	-3
674.011	1	-1
675.197	1	1
676.383	1	12
677.569	1	-6
678.754	1	2
679.940	1	-2
681.125	1	16
682.311	1	-7
683.496	1	0
684.682	1	-6
685.867	1	1
687.053	1	0
688.238	1	17
688.746	1	1

File: GaN_sample F_spot6_UVVIS_130 K_200um_350 ms 2x2mm1_222.txt
340.368	1	3
341.565	1	-1
342.763	1	7
343.960	1	0
345.157	1	-12
346.354	1	1
347.552	1	3
348.749	1	-1
349.946	1	10
351.143	1	5
352.340	1	12
353.537	1	-3
354.734	1	-4
355.931	1	6
357.127	1	7
358.324	1	0
359.521	1	4
360.718	1	12
361.914	1	8
363.111	1	20
364.308	1	21
365.504	1	12
366.701	1	13
367.897	1	7
369.093	1	17
370.290	1	26
371.486	1	11
372.682	1	10
373.879	1	28
375.075	1	16
376.271	1	16
377.467	1	14
378.663	1	8
379.859	1	-1
381.055	1	8
382.251	1	3
383.447	1	9
384.643	1	11
385.839	1	6
387.035	1	4
388.230	1	5
389.426	1	10
390.622	1	4
391.817	1	12
393.013	1	5
394.208	1	5
395.404	1	-4
396.599	1	6
397.795	1	5
398.990	1	5
400.186	1	-4
401.381	1	7
402.576	1	7
403.771	1	2
404.967	1	4
406.162	1	-1
407.357	1	-1
408.552	1	-3
409.747	1	12
410.942	1	1
412.137	1	-10
413.332	1	1
414.526	1	-2
415.721	1	1
416.916	1	-2
418.111	1	12
419.305	1	-3
420.500	1	4
421.695	1	6
422.889	1	6
424.084	1	5
425.278	1	2
426.472	1	-3
427.667	1	12
428.861	1	7
430.055	1	4
431.250	1	19
432.444	1	11
433.638	1	5
434.832	1	5
436.026	1	9
437.220	1	1
438.414	1	2
439.608	1	9
440.802	1	-9
441.996	1	2
443.190	1	3
444.384	1	-3
445.578	1	2
446.771	1	10
447.965	1	-4
449.159	1	6
450.352	1	17
451.546	1	9
452.739	1	0
453.933	1	3
455.126	1	-2
456.320	1	-7
457.513	1	-8
458.706	1	9
459.899	1	-1
461.093	1	5
462.286	1	7
463.479	1	0
464.672	1	-1
465.865	1	-10
467.058	1	9
468.251	1	7
469.444	1	6
470.637	1	0
471.830	1	7
473.023	1	3
474.215	1	7
475.408	1	7
476.601	1	-8
477.793	1	7
478.986	1	1
480.179	1	-3
481.371	1	7
482.564	1	2
483.756	1	1
484.948	1	0
486.141	1	0
487.333	1	-4
488.525	1	6
489.718	1	6
490.910	1	5
492.102	1	4
493.294	1	7
494.486	1	19
495.678	1	2
496.870	1	-4
498.062	1	-3
499.254	1	17
500.446	1	8
501.638	1	2
502.829	1	-5
504.021	1	-2
505.213	1	12
506.404	1	-8
507.596	1	5
508.788	1	2
509.979	1	4
511.171	1	7
512.362	1	2
513.553	1	14
514.745	1	-2
515.936	1	16
517.127	1	6
518.319	1	0
519.510	1	12
520.701	1	8
521.892	1	8
523.083	1	5
524.274	1	-10
525.465	1	5
526.656	1	4
527.847	1	5
529.038	1	-4
530.229	1	11
531.419	1	3
532.610	1	1
533.801	1	19
534.991	1	6
536.182	1	13
537.373	1	13
538.563	1	11
539.754	1	0
540.944	1	8
542.134	1	0
543.325	1	4
544.515	1	2
545.705	1	4
546.896	1	12
548.086	1	8
549.276	1	-2
550.466	1	16
551.656	1	1
552.846	1	2
554.036	1	-2
555.226	1	15
556.416	1	3
557.606	1	5
558.796	1	10
559.986	1	10
561.175	1	5
562.365	1	5
563.555	1	5
564.744	1	1
565.934	1	11
567.123	1	5
568.313	1	4
569.502	1	4
570.692	1	12
571.881	1	-1
573.070	1	4
574.260	1	8
575.449	1	3
576.638	1	-2
577.827	1	-2
579.016	1	4
580.205	1	-4
581.394	1	2
582.583	1	6
583.772	1	5
584.961	1	-1
586.150	1	7
587.339	1	1
588.528	1	9
589.717	1	-5
590.905	1	8
592.094	1	5
593.283	1	-13
594.471	1	9
595.660	1	6
596.848	1	6
598.037	1	8
599.225	1	0
600.413	1	4
601.602	1	-5
602.790	1	-5
603.978	1	0
605.166	1	7
606.355	1	7
607.543	1	2
608.731	1	5
609.919	1	9
611.107	1	13
612.295	1	13
613.483	1	-4
614.671	1	8
615.858	1	-9
617.046	1	1
618.234	1	9
619.422	1	2
620.609	1	-6
621.797	1	-9
622.985	1	-6
624.172	1	-1
625.360	1	-1
626.547	1	2
627.735	1	15
628.922	1	-8
630.109	1	7
631.297	1	-3
632.484	1	-3
633.671	1	-7
634.858	1	6
636.045	1	11
637.232	1	-1
638.419	1	8
639.606	1	10
640.793	1	-10
641.980	1	-7
643.167	1	3
644.354	1	-7
645.541	1	0
646.728	1	-1
647.914	1	-10
649.101	1	-7
650.288	1	9
651.474	1	-3
652.661	1	8
653.847	1	5
655.034	1	-2
656.220	1	2
657.406	1	8
658.593	1	2
659.779	1	2
660.965	1	10
662.152	1	3
663.338	1	5
664.524	1	-8
665.710	1	1
666.896	1	9
668.082	1	5
669.268	1	1
670.454	1	-5
671.640	1	-6
672.826	1	1
674.011	1	1
675.197	1	-2
676.383	1	10
677.569	1	5
678.754	1	5
679.940	1	-6
681.125	1	3
682.311	1	-7
683.496	1	-3
684.682	1	2
685.867	1	-1
687.053	1	7
688.238	1	4
688.746	1	2

File: GaN_sample F_spot6_UVVIS_130 K_200um_350 ms 2x2mm1_224.txt
340.368	1	4
341.565	1	-7
342.763	1	9
343.960	1	-7
345.157	1	-8
346.354	1	-3
347.552	1	0
348.749	1	5
349.946	1	5
351.143	1	2
352.340	1	12
353.537	1	1
354.734	1	2
355.931	1	18
357.127	1	14
358.324	1	-5
359.521	1	2
360.718	1	3
361.914	1	3
363.111	1	25
364.308	1	15
365.504	1	9
366.701	1	14
367.897	1	10
369.093	1	7
370.290	1	20
371.486	1	8
372.682	1	17
373.879	1	24
375.075	1	8
376.271	1	9
377.467	1	8
378.663	1	10
379.859	1	4
381.055	1	1
382.251	1	13
383.447	1	4
384.643	1	11
385.839	1	11
387.035	1	3
388.230	1	5
389.426	1	2
390.622	1	7
391.817	1	11
393.013	1	10
394.208	1	2
395.404	1	-4
396.599	1	16
397.795	1	6
398.990	1	1
400.186	1	0
401.381	1	2
402.576	1	7
403.771	1	13
404.967	1	-1
406.162	1	-2
407.357	1	13
408.552	1	4
409.747	1	6
410.942	1	9
412.137	1	3
413.332	1	1
414.526	1	5
415.721	1	4
416.916	1	6
418.111	1	12
419.305	1	-6
420.500	1	5
421.695	1	8
422.889	1	7
424.084	1	5
425.278	1	0
426.472	1	-1
427.667	1	16
428.861	1	0
430.055	1	-2
431.250	1	12
432.444	1	9
433.638	1	0
434.832	1	4
436.026	1	9
437.220	1	-3
438.414	1	0
439.608	1	11
440.802	1	0
441.996	1	0
443.190	1	6
444.384	1	-11
445.578	1	-6
446.771	1	7
447.965	1	8
449.159	1	4
450.352	1	3
451.546	1	19
452.739	1	11
453.933	1	-1
455.126	1	-3
456.320	1	-5
457.513	1	-5
458.706	1	8
459.899	1	5
461.093	1	12
462.286	1	9
463.479	1	2
464.672	1	8
465.865	1	-5
467.058	1	18
468.251	1	-3
469.444	1	4
470.637	1	2
471.830	1	5
473.023	1	6
474.215	1	2
475.408	1	0
476.601	1	-2
477.793	1	-2
478.986	1	-1
480.179	1	2
481.371	1	12
482.564	1	-2
483.756	1	7
484.948	1	-2
486.141	1	-3
487.333	1	4
488.525	1	9
489.718	1	6
490.910	1	-6
492.102	1	6
493.294	1	5
494.486	1	11
495.678	1	-2
496.870	1	5
498.062	1	0
499.254	1	11
500.446	1	4
501.638	1	0
502.829	1	0
504.021	1	4
505.213	1	2
506.404	1	2
507.596	1	0
508.788	1	9
509.979	1	3
511.171	1	16
512.362	1	-11
513.553	1	9
514.745	1	3
515.936	1	16
517.127	1	5
518.319	1	3
519.510	1	9
520.701	1	7
521.892	1	6
523.083	1	5
524.274	1	7
525.465	1	16
526.656	1	3
527.847	1	4
529.038	1	1
530.229	1	12
531.419	1	-1
532.610	1	-1
533.801	1	16
534.991	1	2
536.182	1	13
537.373	1	-1
538.563	1	18
539.754	1	0
540.944	1	7
542.134	1	3
543.325	1	3
544.515	1	10
545.705	1	5
546.896	1	14
548.086	1	5
549.276	1	0
550.466	1	13
551.656	1	3
552.846	1	-4
554.036	1	9
555.226	1	6
556.416	1	4
557.606	1	-6
558.796	1	8
559.986	1	5
561.175	1	9
562.365	1	1
563.555	1	11
564.744	1	8
565.934	1	4
567.123	1	6
568.313	1	6
569.502	1	-1
570.692	1	17
571.881	1	5
573.070	1	6
574.260	1	7
575.449	1	9
576.638	1	2
577.827	1	-6
579.016	1	1
580.205	1	-1
581.394	1	3
582.583	1	6
583.772	1	2
584.961	1	-2
586.150	1	3
587.339	1	2
588.528	1	10
589.717	1	5
590.905	1	7
592.094	1	1
593.283	1	-6
594.471	1	-1
595.660	1	-5
596.848	1	8
598.037	1	4
599.225	1	4
600.413	1	13
601.602	1	-8
602.790	1	5
603.978	1	3
605.166	1	12
606.355	1	2
607.543	1	3
608.731	1	-1
609.919	1	1
611.107	1	-1
612.295	1	10
613.483	1	7
614.671	1	-1
615.858	1	-4
617.046	1	4
618.234	1	-4
619.422	1	4
620.609	1	-2
621.797	1	1
622.985	1	9
624.172	1	-3
625.360	1	2
626.547	1	3
627.735	1	8
628.922	1	-3
630.109	1	7
631.297	1	-6
632.484	1	-5
633.671	1	3
634.858	1	0
636.045	1	11
637.232	1	0
638.419	1	3
639.606	1	-2
640.793	1	-9
641.980	1	-3
643.167	1	9
644.354	1	3
645.541	1	11
646.728	1	11
647.914	1	-3
649.101	1	1
650.288	1	11
651.474	1	3
652.661	1	-4
653.847	1	-1
655.034	1	1
656.220	1	2
657.406	1	-1
658.593	1	5
659.779	1	-6
660.965	1	8
662.152	1	7
663.338	1	-4
664.524	1	1
665.710	1	9
666.896	1	4
668.082	1	1
669.268	1	-2
670.454	1	-2
671.640	1	-9
672.826	1	2
674.011	1	-4
675.197	1	0
676.383	1	1
677.569	1	8
678.754	1	5
679.940	1	-5
681.125	1	10
682.311	1	-16
683.496	1	2
684.682	1	-2
685.867	1	6
687.053	1	10
688.238	1	2
688.746	1	9

File: GaN_sample F_spot6_UVVIS_130 K_200um_350 ms 2x2mm1_225.txt
340.368	1	3
341.565	1	-9
342.763	1	11
343.960	1	-3
345.157	1	-8
346.354	1	1
347.552	1	-3
348.749	1	6
349.946	1	1
351.143	1	2
352.340	1	15
353.537	1	-2
354.734	1	-1
355.931	1	3
357.127	1	15
358.324	1	3
359.521	1	-1
360.718	1	6
361.914	1	2
363.111	1	18
364.308	1	14
365.504	1	14
366.701	1	20
367.897	1	9
369.093	1	16
370.290	1	14
371.486	1	14
372.682	1	11
373.879	1	24
375.075	1	12
376.271	1	9
377.467	1	21
378.663	1	9
379.859	1	5
381.055	1	6
382.251	1	5
383.447	1	11
384.643	1	22
385.839	1	5
387.035	1	9
388.230	1	2
389.426	1	6
390.622	1	3
391.817	1	5
393.013	1	3
394.208	1	1
395.404	1	1
396.599	1	10
397.795	1	-7
398.990	1	6
400.186	1	8
401.381	1	4
402.576	1	8
403.771	1	6
404.967	1	-3
406.162	1	-3
407.357	1	4
408.552	1	-3
409.747	1	0
410.942	1	1
412.137	1	-6
413.332	1	-5
414.526	1	1
415.721	1	2
416.916	1	8
418.111	1	4
419.305	1	2
420.500	1	8
421.695	1	5
422.889	1	4
424.084	1	13
425.278	1	-3
426.472	1	3
427.667	1	16
428.861	1	1
430.055	1	2
431.250	1	10
432.444	1	12
433.638	1	0
434.832	1	2
436.026	1	7
437.220	1	-9
438.414	1	6
439.608	1	16
440.802	1	-15
441.996	1	8
443.190	1	0
444.384	1	-2
445.578	1	1
446.771	1	4
447.965	1	6
449.159	1	2
450.352	1	9
451.546	1	13
452.739	1	4
453.933	1	7
455.126	1	-1
456.320	1	8
457.513	1	-3
458.706	1	12
459.899	1	-1
461.093	1	5
462.286	1	8
463.479	1	7
464.672	1	13
465.865	1	-9
467.058	1	8
468.251	1	3
469.444	1	1
470.637	1	5
471.830	1	8
473.023	1	13
474.215	1	3
475.408	1	4
476.601	1	1
477.793	1	0
478.986	1	-1
480.179	1	0
481.371	1	4
482.564	1	-1
483.756	1	1
484.948	1	-1
486.141	1	3
487.333	1	-4
488.525	1	6
489.718	1	6
490.910	1	-2
492.102	1	10
493.294	1	5
494.486	1	11
495.678	1	1
496.870	1	2
498.062	1	-14
499.254	1	6
500.446	1	0
501.638	1	6
502.829	1	-1
504.021	1	2
505.213	1	3
506.404	1	2
507.596	1	10
508.788	1	0
509.979	1	-1
511.171	1	14
512.362	1	0
513.553	1	12
514.745	1	2
515.936	1	11
517.127	1	5
518.319	1	0
519.510	1	4
520.701	1	0
521.892	1	13
523.083	1	-1
524.274	1	-1
525.465	1	4
526.656	1	0
527.847	1	-2
529.038	1	2
530.229	1	-2
531.419	1	3
532.610	1	0
533.801	1	16
534.991	1	0
536.182	1	13
537.373	1	12
538.563	1	8
539.754	1	1
540.944	1	7
542.134	1	7
543.325	1	0
544.515	1	12
545.705	1	-5
546.896	1	9
548.086	1	-3
549.276	1	5
550.466	1	9
551.656	1	0
552.846	1	-7
554.036	1	1
555.226	1	8
556.416	1	3
557.606	1	0
558.796	1	10
559.986	1	4
561.175	1	5
562.365	1	3
563.555	1	13
564.744	1	4
565.934	1	5
567.123	1	3
568.313	1	7
569.502	1	4
570.692	1	3
571.881	1	-1
573.070	1	-3
574.260	1	2
575.449	1	2
576.638	1	-5
577.827	1	-1
579.016	1	5
580.205	1	-6
581.394	1	-3
582.583	1	9
583.772	1	6
584.961	1	5
586.150	1	8
587.339	1	7
588.528	1	1
589.717	1	7
590.905	1	14
592.094	1	4
593.283	1	-7
594.471	1	2
595.660	1	10
596.848	1	2
598.037	1	3
599.225	1	4
600.413	1	11
601.602	1	-5
602.790	1	7
603.978	1	3
605.166	1	7
606.355	1	6
607.543	1	8
608.731	1	4
609.919	1	15
611.107	1	5
612.295	1	6
613.483	1	-3
614.671	1	10
615.858	1	-10
617.046	1	9
618.234	1	4
619.422	1	2
620.609	1	-7
621.797	1	5
622.985	1	3
624.172	1	-2
625.360	1	4
626.547	1	-1
627.735	1	11
628.922	1	0
630.109	1	12
631.297	1	-2
632.484	1	-2
633.671	1	-1
634.858	1	5
636.045	1	12
637.232	1	-6
638.419	1	4
639.606	1	5
640.793	1	-9
641.980	1	2
643.167	1	0
644.354	1	-4
645.541	1	9
646.728	1	9
647.914	1	-4
649.101	1	-7
650.288	1	10
651.474	1	6
652.661	1	3
653.847	1	9
655.034	1	2
656.220	1	4
657.406	1	4
658.593	1	9
659.779	1	3
660.965	1	2
662.152	1	7
663.338	1	3
664.524	1	-4
665.710	1	-3
666.896	1	11
668.082	1	6
669.268	1	-2
670.454	1	1
671.640	1	-2
672.826	1	1
674.011	1	8
675.197	1	-11
676.383	1	2
677.569	1	2
678.754	1	6
679.940	1	-9
681.125	1	8
682.311	1	-3
683.496	1	6
684.682	1	5
685.867	1	7
687.053	1	-3
688.238	1	2
688.746	1	9

File: GaN_sample F_spot6_UVVIS_130 K_200um_350 ms 2x2mm1_228.txt
340.368	1	-2
341.565	1	1
342.763	1	-1
343.960	1	-6
345.157	1	-1
346.354	1	-3
347.552	1	3
348.749	1	8
349.946	1	3
351.143	1	-3
352.340	1	15
353.537	1	-1
354.734	1	5
355.931	1	4
357.127	1	9
358.324	1	6
359.521	1	-10
360.718	1	15
361.914	1	0
363.111	1	9
364.308	1	14
365.504	1	14
366.701	1	20
367.897	1	11
369.093	1	16
370.290	1	17
371.486	1	9
372.682	1	15
373.879	1	13
375.075	1	20
376.271	1	15
377.467	1	18
378.663	1	4
379.859	1	9
381.055	1	6
382.251	1	4
383.447	1	12
384.643	1	4
385.839	1	8
387.035	1	12
388.230	1	-1
389.426	1	7
390.622	1	3
391.817	1	11
393.013	1	8
394.208	1	-3
395.404	1	-3
396.599	1	9
397.795	1	-6
398.990	1	-2
400.186	1	2
401.381	1	13
402.576	1	4
403.771	1	15
404.967	1	4
406.162	1	7
407.357	1	8
408.552	1	5
409.747	1	5
410.942	1	6
412.137	1	2
413.332	1	-2
414.526	1	7
415.721	1	4
416.916	1	-3
418.111	1	10
419.305	1	2
420.500	1	4
421.695	1	2
422.889	1	4
424.084	1	12
425.278	1	0
426.472	1	5
427.667	1	7
428.861	1	11
430.055	1	1
431.250	1	2
432.444	1	11
433.638	1	5
434.832	1	-2
436.026	1	8
437.220	1	3
438.414	1	-9
439.608	1	14
440.802	1	-9
441.996	1	12
443.190	1	4
444.384	1	0
445.578	1	0
446.771	1	2
447.965	1	1
449.159	1	7
450.352	1	3
451.546	1	8
452.739	1	6
453.933	1	-6
455.126	1	-6
456.320	1	-1
457.513	1	-9
458.706	1	1
459.899	1	2
461.093	1	2
462.286	1	6
463.479	1	10
464.672	1	3
465.865	1	0
467.058	1	11
468.251	1	9
469.444	1	-1
470.637	1	-1
471.830	1	7
473.023	1	9
474.215	1	10
475.408	1	6
476.601	1	8
477.793	1	-3
478.986	1	1
480.179	1	-4
481.371	1	10
482.564	1	-4
483.756	1	-4
484.948	1	17
486.141	1	6
487.333	1	6
488.525	1	2
489.718	1	8
490.910	1	3
492.102	1	5
493.294	1	5
494.486	1	9
495.678	1	5
496.870	1	1
498.062	1	0
499.254	1	11
500.446	1	1
501.638	1	1
502.829	1	0
504.021	1	4
505.213	1	3
506.404	1	3
507.596	1	2
508.788	1	7
509.979	1	0
511.171	1	5
512.362	1	-4
513.553	1	7
514.745	1	7
515.936	1	12
517.127	1	10
518.319	1	2
519.510	1	6
520.701	1	-4
521.892	1	2
523.083	1	10
524.274	1	0
525.465	1	15
526.656	1	8
527.847	1	4
529.038	1	-5
530.229	1	8
531.419	1	8
532.610	1	1
533.801	1	13
534.991	1	5
536.182	1	12
537.373	1	9
538.563	1	3
539.754	1	2
540.944	1	5
542.134	1	4
543.325	1	1
544.515	1	8
545.705	1	7
546.896	1	16
548.086	1	6
549.276	1	2
550.466	1	10
551.656	1	-1
552.846	1	2
554.036	1	10
555.226	1	7
556.416	1	6
557.606	1	1
558.796	1	4
559.986	1	-1
561.175	1	13
562.365	1	12
563.555	1	8
564.744	1	3
565.934	1	2
567.123	1	-3
568.313	1	8
569.502	1	8
570.692	1	9
571.881	1	4
573.070	1	0
574.260	1	7
575.449	1	11
576.638	1	-7
577.827	1	1
579.016	1	1
580.205	1	-3
581.394	1	-1
582.583	1	17
583.772	1	2
584.961	1	1
586.150	1	7
587.339	1	-2
588.528	1	16
589.717	1	7
590.905	1	-1
592.094	1	2
593.283	1	-6
594.471	1	8
595.660	1	0
596.848	1	0
598.037	1	0
599.225	1	11
600.413	1	10
601.602	1	9
602.790	1	9
603.978	1	14
605.166	1	9
606.355	1	5
607.543	1	7
608.731	1	6
609.919	1	11
611.107	1	10
612.295	1	5
613.483	1	-3
614.671	1	9
615.858	1	-4
617.046	1	4
618.234	1	2
619.422	1	7
620.609	1	-2
621.797	1	0
622.985	1	7
624.172	1	7
625.360	1	0
626.547	1	-5
627.735	1	10
628.922	1	-2
630.109	1	3
631.297	1	-1
632.484	1	-8
633.671	1	-1
634.858	1	11
636.045	1	13
637.232	1	-2
638.419	1	2
639.606	1	3
640.793	1	-5
641.980	1	2
643.167	1	9
644.354	1	3
645.541	1	0
646.728	1	9
647.914	1	0
649.101	1	-5
650.288	1	4
651.474	1	1
652.661	1	0
653.847	1	0
655.034	1	0
656.220	1	-1
657.406	1	6
658.593	1	12
659.779	1	11
660.965	1	-3
662.152	1	-3
663.338	1	-1
664.524	1	-4
665.710	1	-2
666.896	1	6
668.082	1	4
669.268	1	-3
670.454	1	5
671.640	1	-10
672.826	1	-3
674.011	1	3
675.197	1	2
676.383	1	8
677.569	1	-5
678.754	1	7
679.940	1	-2
681.125	1	5
682.311	1	-4
683.496	1	-5
684.682	1	9
685.867	1	4
687.053	1	8
688.238	1	10
688.746	1	7

File: GaN_sample F_spot6_UVVIS_130 K_200um_350 ms 2x2mm1_229.txt
340.368	1	8
341.565	1	5
342.763	1	5
343.960	1	-9
345.157	1	-11
346.354	1	3
347.552	1	-1
348.749	1	7
349.946	1	6
351.143	1	1
352.340	1	10
353.537	1	-6
354.734	1	-2
355.931	1	9
357.127	1	4
358.324	1	-5
359.521	1	-1
360.718	1	4
361.914	1	0
363.111	1	10
364.308	1	16
365.504	1	12
366.701	1	14
367.897	1	5
369.093	1	6
370.290	1	21
371.486	1	14
372.682	1	14
373.879	1	13
375.075	1	7
376.271	1	15
377.467	1	13
378.663	1	9
379.859	1	6
381.055	1	13
382.251	1	5
383.447	1	4
384.643	1	8
385.839	1	-1
387.035	1	5
388.230	1	6
389.426	1	9
390.622	1	3
391.817	1	4
393.013	1	11
394.208	1	-2
395.404	1	-4
396.599	1	19
397.795	1	-1
398.990	1	-1
400.186	1	3
401.381	1	12
402.576	1	0
403.771	1	8
404.967	1	-5
406.162	1	-2
407.357	1	4
408.552	1	-4
409.747	1	-5
410.942	1	10
412.137	1	-8
413.332	1	3
414.526	1	10
415.721	1	4
416.916	1	0
418.111	1	9
419.305	1	2
420.500	1	-1
421.695	1	-2
422.889	1	3
424.084	1	10
425.278	1	4
426.472	1	4
427.667	1	8
428.861	1	-1
430.055	1	4
431.250	1	5
432.444	1	8
433.638	1	8
434.832	1	4
436.026	1	8
437.220	1	-6
438.414	1	-7
439.608	1	21
440.802	1	-5
441.996	1	15
443.190	1	2
444.384	1	1
445.578	1	-10
446.771	1	-3
447.965	1	2
449.159	1	2
450.352	1	7
451.546	1	20
452.739	1	7
453.933	1	11
455.126	1	-13
456.320	1	5
457.513	1	-2
458.706	1	5
459.899	1	6
461.093	1	6
462.286	1	5
463.479	1	19
464.672	1	8
465.865	1	-7
467.058	1	6
468.251	1	9
469.444	1	1
470.637	1	-2
471.830	1	6
473.023	1	14
474.215	1	3
475.408	1	9
476.601	1	1
477.793	1	-1
478.986	1	2
480.179	1	2
481.371	1	13
482.564	1	4
483.756	1	0
484.948	1	1
486.141	1	3
487.333	1	-5
488.525	1	2
489.718	1	5
490.910	1	-3
492.102	1	7
493.294	1	4
494.486	1	12
495.678	1	3
496.870	1	3
498.062	1	-7
499.254	1	11
500.446	1	5
501.638	1	8
502.829	1	-1
504.021	1	4
505.213	1	1
506.404	1	-5
507.596	1	2
508.788	1	7
509.979	1	1
511.171	1	15
512.362	1	-6
513.553	1	10
514.745	1	1
515.936	1	7
517.127	1	10
518.319	1	4
519.510	1	-2
520.701	1	15
521.892	1	12
523.083	1	4
524.274	1	-3
525.465	1	12
526.656	1	13
527.847	1	4
529.038	1	1
530.229	1	9
531.419	1	6
532.610	1	0
533.801	1	6
534.991	1	8
536.182	1	13
537.373	1	12
538.563	1	16
539.754	1	3
540.944	1	8
542.134	1	3
543.325	1	-1
544.515	1	11
545.705	1	8
546.896	1	7
548.086	1	2
549.276	1	-2
550.466	1	13
551.656	1	8
552.846	1	5
554.036	1	5
555.226	1	-1
556.416	1	9
557.606	1	4
558.796	1	18
559.986	1	4
561.175	1	10
562.365	1	4
563.555	1	12
564.744	1	10
565.934	1	1
567.123	1	6
568.313	1	1
569.502	1	-1
570.692	1	17
571.881	1	-2
573.070	1	2
574.260	1	9
575.449	1	-2
576.638	1	-1
577.827	1	-1
579.016	1	1
580.205	1	-6
581.394	1	-4
582.583	1	13
583.772	1	3
584.961	1	-1
586.150	1	-1
587.339	1	2
588.528	1	9
589.717	1	4
590.905	1	11
592.094	1	4
593.283	1	-3
594.471	1	5
595.660	1	4
596.848	1	11
598.037	1	11
599.225	1	7
600.413	1	11
601.602	1	-3
602.790	1	1
603.978	1	8
605.166	1	9
606.355	1	11
607.543	1	5
608.731	1	6
609.919	1	1
611.107	1	9
612.295	1	10
613.483	1	-1
614.671	1	10
615.858	1	-8
617.046	1	13
618.234	1	-3
619.422	1	-3
620.609	1	-3
621.797	1	-5
622.985	1	3
624.172	1	-2
625.360	1	7
626.547	1	9
627.735	1	10
628.922	1	-5
630.109	1	8
631.297	1	2
632.484	1	-3
633.671	1	-5
634.858	1	-5
636.045	1	9
637.232	1	-5
638.419	1	6
639.606	1	5
640.793	1	-6
641.980	1	4
643.167	1	5
644.354	1	-1
645.541	1	-1
646.728	1	15
647.914	1	-1
649.101	1	4
650.288	1	5
651.474	1	4
652.661	1	-1
653.847	1	0
655.034	1	1
656.220	1	2
657.406	1	1
658.593	1	1
659.779	1	-4
660.965	1	-2
662.152	1	-1
663.338	1	9
664.524	1	-8
665.710	1	4
666.896	1	11
668.082	1	12
669.268	1	10
670.454	1	0
671.640	1	-15
672.826	1	3
674.011	1	13
675.197	1	1
676.383	1	6
677.569	1	6
678.754	1	16
679.940	1	-10
681.125	1	7
682.311	1	0
683.496	1	-7
684.682	1	-8
685.867	1	-4
687.053	1	7
688.238	1	8
688.746	1	10