Folder: cryo-il_analysis/Data/GaN_150K_450ms (part 20)

File: GaN_sample D_spot15_UVVIS_150 K_200um_450 ms 2x2mm1_161.txt
340.368	1	3
341.565	1	10
342.763	1	8
343.960	1	3
345.157	1	9
346.354	1	4
347.552	1	3
348.749	1	19
349.946	1	10
351.143	1	10
352.340	1	12
353.537	1	-2
354.734	1	0
355.931	1	12
357.127	1	10
358.324	1	7
359.521	1	16
360.718	1	13
361.914	1	12
363.111	1	13
364.308	1	28
365.504	1	13
366.701	1	33
367.897	1	40
369.093	1	38
370.290	1	30
371.486	1	30
372.682	1	23
373.879	1	25
375.075	1	11
376.271	1	10
377.467	1	24
378.663	1	18
379.859	1	0
381.055	1	0
382.251	1	-8
383.447	1	6
384.643	1	8
385.839	1	11
387.035	1	3
388.230	1	6
389.426	1	0
390.622	1	-6
391.817	1	-5
393.013	1	15
394.208	1	-2
395.404	1	3
396.599	1	11
397.795	1	0
398.990	1	14
400.186	1	10
401.381	1	6
402.576	1	18
403.771	1	1
404.967	1	15
406.162	1	1
407.357	1	19
408.552	1	5
409.747	1	-1
410.942	1	12
412.137	1	2
413.332	1	12
414.526	1	-2
415.721	1	5
416.916	1	3
418.111	1	10
419.305	1	7
420.500	1	7
421.695	1	14
422.889	1	4
424.084	1	13
425.278	1	13
426.472	1	19
427.667	1	10
428.861	1	7
430.055	1	6
431.250	1	7
432.444	1	6
433.638	1	13
434.832	1	5
436.026	1	10
437.220	1	9
438.414	1	9
439.608	1	-1
440.802	1	12
441.996	1	7
443.190	1	13
444.384	1	15
445.578	1	-6
446.771	1	3
447.965	1	9
449.159	1	4
450.352	1	-5
451.546	1	5
452.739	1	5
453.933	1	-1
455.126	1	2
456.320	1	7
457.513	1	1
458.706	1	8
459.899	1	3
461.093	1	3
462.286	1	-2
463.479	1	1
464.672	1	3
465.865	1	12
467.058	1	7
468.251	1	-4
469.444	1	6
470.637	1	3
471.830	1	-1
473.023	1	0
474.215	1	8
475.408	1	2
476.601	1	1
477.793	1	-2
478.986	1	8
480.179	1	15
481.371	1	-5
482.564	1	5
483.756	1	4
484.948	1	10
486.141	1	1
487.333	1	-8
488.525	1	-2
489.718	1	2
490.910	1	15
492.102	1	8
493.294	1	-5
494.486	1	8
495.678	1	8
496.870	1	12
498.062	1	7
499.254	1	-6
500.446	1	7
501.638	1	8
502.829	1	6
504.021	1	5
505.213	1	5
506.404	1	7
507.596	1	8
508.788	1	8
509.979	1	8
511.171	1	8
512.362	1	12
513.553	1	14
514.745	1	5
515.936	1	5
517.127	1	15
518.319	1	0
519.510	1	4
520.701	1	6
521.892	1	18
523.083	1	6
524.274	1	11
525.465	1	8
526.656	1	8
527.847	1	-1
529.038	1	17
530.229	1	10
531.419	1	10
532.610	1	11
533.801	1	15
534.991	1	6
536.182	1	2
537.373	1	10
538.563	1	11
539.754	1	11
540.944	1	8
542.134	1	5
543.325	1	11
544.515	1	6
545.705	1	6
546.896	1	9
548.086	1	9
549.276	1	1
550.466	1	1
551.656	1	10
552.846	1	11
554.036	1	19
555.226	1	2
556.416	1	11
557.606	1	-4
558.796	1	7
559.986	1	5
561.175	1	7
562.365	1	1
563.555	1	12
564.744	1	11
565.934	1	10
567.123	1	-3
568.313	1	-2
569.502	1	2
570.692	1	10
571.881	1	-1
573.070	1	8
574.260	1	1
575.449	1	-3
576.638	1	10
577.827	1	-2
579.016	1	5
580.205	1	9
581.394	1	5
582.583	1	0
583.772	1	9
584.961	1	-7
586.150	1	10
587.339	1	4
588.528	1	-5
589.717	1	1
590.905	1	-4
592.094	1	9
593.283	1	10
594.471	1	-2
595.660	1	12
596.848	1	1
598.037	1	2
599.225	1	-3
600.413	1	8
601.602	1	5
602.790	1	11
603.978	1	5
605.166	1	6
606.355	1	-12
607.543	1	5
608.731	1	-5
609.919	1	3
611.107	1	8
612.295	1	10
613.483	1	-2
614.671	1	-2
615.858	1	-6
617.046	1	1
618.234	1	-8
619.422	1	8
620.609	1	-1
621.797	1	7
622.985	1	-4
624.172	1	4
625.360	1	0
626.547	1	-2
627.735	1	5
628.922	1	12
630.109	1	-7
631.297	1	0
632.484	1	10
633.671	1	3
634.858	1	4
636.045	1	-2
637.232	1	4
638.419	1	-1
639.606	1	14
640.793	1	11
641.980	1	10
643.167	1	7
644.354	1	11
645.541	1	5
646.728	1	8
647.914	1	-1
649.101	1	-6
650.288	1	10
651.474	1	7
652.661	1	3
653.847	1	11
655.034	1	-1
656.220	1	8
657.406	1	-2
658.593	1	9
659.779	1	2
660.965	1	10
662.152	1	4
663.338	1	4
664.524	1	3
665.710	1	2
666.896	1	8
668.082	1	12
669.268	1	4
670.454	1	1
671.640	1	10
672.826	1	10
674.011	1	15
675.197	1	16
676.383	1	3
677.569	1	17
678.754	1	5
679.940	1	0
681.125	1	4
682.311	1	4
683.496	1	12
684.682	1	2
685.867	1	0
687.053	1	13
688.238	1	15
688.746	1	0

File: GaN_sample D_spot15_UVVIS_150 K_200um_450 ms 2x2mm1_164.txt
340.368	1	-5
341.565	1	8
342.763	1	0
343.960	1	7
345.157	1	10
346.354	1	3
347.552	1	13
348.749	1	11
349.946	1	5
351.143	1	8
352.340	1	7
353.537	1	1
354.734	1	1
355.931	1	5
357.127	1	9
358.324	1	7
359.521	1	9
360.718	1	2
361.914	1	14
363.111	1	19
364.308	1	14
365.504	1	13
366.701	1	24
367.897	1	25
369.093	1	29
370.290	1	34
371.486	1	35
372.682	1	31
373.879	1	17
375.075	1	2
376.271	1	9
377.467	1	19
378.663	1	16
379.859	1	6
381.055	1	10
382.251	1	5
383.447	1	3
384.643	1	12
385.839	1	6
387.035	1	13
388.230	1	3
389.426	1	-1
390.622	1	3
391.817	1	-3
393.013	1	12
394.208	1	13
395.404	1	10
396.599	1	9
397.795	1	2
398.990	1	15
400.186	1	9
401.381	1	5
402.576	1	10
403.771	1	2
404.967	1	11
406.162	1	-1
407.357	1	8
408.552	1	-8
409.747	1	-3
410.942	1	16
412.137	1	7
413.332	1	6
414.526	1	-5
415.721	1	8
416.916	1	0
418.111	1	9
419.305	1	11
420.500	1	13
421.695	1	8
422.889	1	11
424.084	1	3
425.278	1	9
426.472	1	17
427.667	1	9
428.861	1	10
430.055	1	13
431.250	1	9
432.444	1	8
433.638	1	14
434.832	1	4
436.026	1	3
437.220	1	11
438.414	1	9
439.608	1	9
440.802	1	1
441.996	1	2
443.190	1	16
444.384	1	11
445.578	1	-6
446.771	1	3
447.965	1	4
449.159	1	5
450.352	1	9
451.546	1	10
452.739	1	5
453.933	1	-3
455.126	1	7
456.320	1	8
457.513	1	3
458.706	1	11
459.899	1	4
461.093	1	3
462.286	1	-2
463.479	1	1
464.672	1	7
465.865	1	12
467.058	1	2
468.251	1	-4
469.444	1	9
470.637	1	10
471.830	1	4
473.023	1	5
474.215	1	8
475.408	1	9
476.601	1	-3
477.793	1	7
478.986	1	5
480.179	1	10
481.371	1	-1
482.564	1	12
483.756	1	7
484.948	1	9
486.141	1	5
487.333	1	-3
488.525	1	-4
489.718	1	-13
490.910	1	7
492.102	1	7
493.294	1	0
494.486	1	3
495.678	1	3
496.870	1	7
498.062	1	0
499.254	1	5
500.446	1	0
501.638	1	12
502.829	1	-2
504.021	1	15
505.213	1	4
506.404	1	5
507.596	1	10
508.788	1	5
509.979	1	2
511.171	1	10
512.362	1	10
513.553	1	7
514.745	1	5
515.936	1	5
517.127	1	18
518.319	1	11
519.510	1	5
520.701	1	7
521.892	1	10
523.083	1	10
524.274	1	4
525.465	1	22
526.656	1	4
527.847	1	-5
529.038	1	9
530.229	1	9
531.419	1	5
532.610	1	14
533.801	1	14
534.991	1	13
536.182	1	8
537.373	1	11
538.563	1	9
539.754	1	4
540.944	1	7
542.134	1	14
543.325	1	14
544.515	1	7
545.705	1	5
546.896	1	3
548.086	1	3
549.276	1	14
550.466	1	11
551.656	1	6
552.846	1	13
554.036	1	19
555.226	1	6
556.416	1	16
557.606	1	-2
558.796	1	10
559.986	1	13
561.175	1	-3
562.365	1	2
563.555	1	9
564.744	1	17
565.934	1	9
567.123	1	3
568.313	1	2
569.502	1	9
570.692	1	3
571.881	1	0
573.070	1	15
574.260	1	6
575.449	1	-4
576.638	1	14
577.827	1	-3
579.016	1	5
580.205	1	5
581.394	1	5
582.583	1	4
583.772	1	2
584.961	1	1
586.150	1	4
587.339	1	-1
588.528	1	6
589.717	1	8
590.905	1	-1
592.094	1	12
593.283	1	0
594.471	1	-3
595.660	1	11
596.848	1	2
598.037	1	-2
599.225	1	7
600.413	1	6
601.602	1	18
602.790	1	4
603.978	1	3
605.166	1	8
606.355	1	-11
607.543	1	3
608.731	1	-11
609.919	1	-6
611.107	1	15
612.295	1	7
613.483	1	3
614.671	1	7
615.858	1	-5
617.046	1	6
618.234	1	-2
619.422	1	13
620.609	1	3
621.797	1	-8
622.985	1	-3
624.172	1	7
625.360	1	8
626.547	1	-5
627.735	1	6
628.922	1	16
630.109	1	-3
631.297	1	0
632.484	1	8
633.671	1	4
634.858	1	8
636.045	1	-2
637.232	1	-3
638.419	1	3
639.606	1	14
640.793	1	4
641.980	1	14
643.167	1	11
644.354	1	9
645.541	1	6
646.728	1	4
647.914	1	4
649.101	1	-1
650.288	1	5
651.474	1	13
652.661	1	10
653.847	1	-1
655.034	1	-2
656.220	1	4
657.406	1	-1
658.593	1	6
659.779	1	4
660.965	1	3
662.152	1	4
663.338	1	-3
664.524	1	13
665.710	1	7
666.896	1	6
668.082	1	4
669.268	1	4
670.454	1	2
671.640	1	7
672.826	1	2
674.011	1	4
675.197	1	12
676.383	1	5
677.569	1	12
678.754	1	7
679.940	1	-6
681.125	1	-3
682.311	1	7
683.496	1	-1
684.682	1	2
685.867	1	1
687.053	1	19
688.238	1	5
688.746	1	3

File: GaN_sample D_spot15_UVVIS_150 K_200um_450 ms 2x2mm1_165.txt
340.368	1	4
341.565	1	5
342.763	1	7
343.960	1	1
345.157	1	12
346.354	1	5
347.552	1	16
348.749	1	8
349.946	1	-2
351.143	1	2
352.340	1	3
353.537	1	-2
354.734	1	2
355.931	1	10
357.127	1	13
358.324	1	14
359.521	1	11
360.718	1	12
361.914	1	10
363.111	1	9
364.308	1	29
365.504	1	6
366.701	1	29
367.897	1	28
369.093	1	36
370.290	1	36
371.486	1	29
372.682	1	13
373.879	1	27
375.075	1	14
376.271	1	14
377.467	1	16
378.663	1	13
379.859	1	11
381.055	1	8
382.251	1	3
383.447	1	0
384.643	1	5
385.839	1	9
387.035	1	9
388.230	1	7
389.426	1	5
390.622	1	2
391.817	1	5
393.013	1	18
394.208	1	0
395.404	1	2
396.599	1	14
397.795	1	3
398.990	1	11
400.186	1	3
401.381	1	6
402.576	1	9
403.771	1	0
404.967	1	1
406.162	1	1
407.357	1	12
408.552	1	1
409.747	1	7
410.942	1	17
412.137	1	7
413.332	1	13
414.526	1	3
415.721	1	14
416.916	1	4
418.111	1	15
419.305	1	8
420.500	1	14
421.695	1	16
422.889	1	6
424.084	1	4
425.278	1	13
426.472	1	22
427.667	1	1
428.861	1	14
430.055	1	6
431.250	1	4
432.444	1	7
433.638	1	14
434.832	1	7
436.026	1	8
437.220	1	15
438.414	1	12
439.608	1	7
440.802	1	11
441.996	1	6
443.190	1	19
444.384	1	13
445.578	1	-6
446.771	1	16
447.965	1	4
449.159	1	-5
450.352	1	-1
451.546	1	6
452.739	1	9
453.933	1	-4
455.126	1	4
456.320	1	12
457.513	1	7
458.706	1	15
459.899	1	5
461.093	1	16
462.286	1	0
463.479	1	-4
464.672	1	1
465.865	1	8
467.058	1	10
468.251	1	-1
469.444	1	9
470.637	1	0
471.830	1	5
473.023	1	6
474.215	1	4
475.408	1	6
476.601	1	7
477.793	1	1
478.986	1	5
480.179	1	2
481.371	1	-2
482.564	1	9
483.756	1	7
484.948	1	5
486.141	1	6
487.333	1	-4
488.525	1	8
489.718	1	-15
490.910	1	1
492.102	1	9
493.294	1	-11
494.486	1	4
495.678	1	0
496.870	1	4
498.062	1	2
499.254	1	-3
500.446	1	-6
501.638	1	11
502.829	1	-5
504.021	1	11
505.213	1	1
506.404	1	8
507.596	1	2
508.788	1	17
509.979	1	6
511.171	1	8
512.362	1	10
513.553	1	12
514.745	1	6
515.936	1	7
517.127	1	7
518.319	1	8
519.510	1	1
520.701	1	7
521.892	1	14
523.083	1	8
524.274	1	7
525.465	1	9
526.656	1	14
527.847	1	-5
529.038	1	16
530.229	1	16
531.419	1	15
532.610	1	23
533.801	1	9
534.991	1	1
536.182	1	7
537.373	1	12
538.563	1	5
539.754	1	6
540.944	1	5
542.134	1	1
543.325	1	4
544.515	1	10
545.705	1	6
546.896	1	6
548.086	1	11
549.276	1	7
550.466	1	8
551.656	1	11
552.846	1	8
554.036	1	16
555.226	1	0
556.416	1	12
557.606	1	-5
558.796	1	15
559.986	1	8
561.175	1	6
562.365	1	0
563.555	1	10
564.744	1	17
565.934	1	27
567.123	1	-2
568.313	1	7
569.502	1	13
570.692	1	6
571.881	1	4
573.070	1	-1
574.260	1	14
575.449	1	-1
576.638	1	17
577.827	1	-1
579.016	1	10
580.205	1	10
581.394	1	8
582.583	1	7
583.772	1	12
584.961	1	3
586.150	1	3
587.339	1	3
588.528	1	-10
589.717	1	5
590.905	1	9
592.094	1	18
593.283	1	16
594.471	1	-7
595.660	1	9
596.848	1	9
598.037	1	2
599.225	1	4
600.413	1	3
601.602	1	-4
602.790	1	5
603.978	1	2
605.166	1	2
606.355	1	-4
607.543	1	1
608.731	1	-6
609.919	1	-5
611.107	1	10
612.295	1	8
613.483	1	4
614.671	1	7
615.858	1	1
617.046	1	2
618.234	1	-3
619.422	1	14
620.609	1	5
621.797	1	4
622.985	1	1
624.172	1	3
625.360	1	1
626.547	1	3
627.735	1	1
628.922	1	12
630.109	1	-7
631.297	1	2
632.484	1	8
633.671	1	4
634.858	1	-1
636.045	1	-7
637.232	1	9
638.419	1	0
639.606	1	9
640.793	1	7
641.980	1	12
643.167	1	8
644.354	1	7
645.541	1	-3
646.728	1	12
647.914	1	6
649.101	1	4
650.288	1	4
651.474	1	5
652.661	1	1
653.847	1	7
655.034	1	-1
656.220	1	9
657.406	1	3
658.593	1	7
659.779	1	6
660.965	1	-3
662.152	1	-1
663.338	1	-1
664.524	1	16
665.710	1	13
666.896	1	8
668.082	1	5
669.268	1	-6
670.454	1	12
671.640	1	15
672.826	1	12
674.011	1	4
675.197	1	7
676.383	1	12
677.569	1	17
678.754	1	2
679.940	1	3
681.125	1	1
682.311	1	9
683.496	1	-2
684.682	1	5
685.867	1	4
687.053	1	19
688.238	1	9
688.746	1	-5

File: GaN_sample D_spot15_UVVIS_150 K_200um_450 ms 2x2mm1_166.txt
340.368	1	6
341.565	1	8
342.763	1	7
343.960	1	19
345.157	1	15
346.354	1	7
347.552	1	16
348.749	1	18
349.946	1	2
351.143	1	2
352.340	1	4
353.537	1	-6
354.734	1	12
355.931	1	15
357.127	1	18
358.324	1	7
359.521	1	18
360.718	1	12
361.914	1	5
363.111	1	5
364.308	1	24
365.504	1	10
366.701	1	35
367.897	1	38
369.093	1	29
370.290	1	32
371.486	1	27
372.682	1	29
373.879	1	15
375.075	1	19
376.271	1	9
377.467	1	20
378.663	1	13
379.859	1	4
381.055	1	12
382.251	1	6
383.447	1	1
384.643	1	9
385.839	1	6
387.035	1	16
388.230	1	2
389.426	1	-5
390.622	1	-4
391.817	1	2
393.013	1	5
394.208	1	8
395.404	1	8
396.599	1	-4
397.795	1	6
398.990	1	13
400.186	1	13
401.381	1	-2
402.576	1	6
403.771	1	-1
404.967	1	9
406.162	1	0
407.357	1	12
408.552	1	0
409.747	1	5
410.942	1	15
412.137	1	3
413.332	1	4
414.526	1	5
415.721	1	7
416.916	1	0
418.111	1	9
419.305	1	5
420.500	1	8
421.695	1	16
422.889	1	18
424.084	1	7
425.278	1	7
426.472	1	16
427.667	1	6
428.861	1	9
430.055	1	12
431.250	1	12
432.444	1	7
433.638	1	10
434.832	1	2
436.026	1	-7
437.220	1	11
438.414	1	14
439.608	1	-2
440.802	1	6
441.996	1	9
443.190	1	2
444.384	1	16
445.578	1	-3
446.771	1	8
447.965	1	2
449.159	1	-2
450.352	1	2
451.546	1	1
452.739	1	-2
453.933	1	-2
455.126	1	12
456.320	1	2
457.513	1	1
458.706	1	9
459.899	1	-1
461.093	1	4
462.286	1	1
463.479	1	7
464.672	1	-1
465.865	1	4
467.058	1	6
468.251	1	2
469.444	1	10
470.637	1	1
471.830	1	6
473.023	1	10
474.215	1	0
475.408	1	-2
476.601	1	3
477.793	1	5
478.986	1	17
480.179	1	1
481.371	1	-8
482.564	1	8
483.756	1	-3
484.948	1	10
486.141	1	6
487.333	1	-4
488.525	1	-3
489.718	1	-3
490.910	1	13
492.102	1	2
493.294	1	-1
494.486	1	8
495.678	1	-2
496.870	1	-4
498.062	1	1
499.254	1	-1
500.446	1	5
501.638	1	11
502.829	1	6
504.021	1	8
505.213	1	-1
506.404	1	10
507.596	1	17
508.788	1	6
509.979	1	8
511.171	1	11
512.362	1	11
513.553	1	4
514.745	1	7
515.936	1	11
517.127	1	16
518.319	1	6
519.510	1	1
520.701	1	14
521.892	1	10
523.083	1	4
524.274	1	10
525.465	1	21
526.656	1	8
527.847	1	2
529.038	1	8
530.229	1	14
531.419	1	14
532.610	1	12
533.801	1	8
534.991	1	6
536.182	1	1
537.373	1	3
538.563	1	6
539.754	1	5
540.944	1	1
542.134	1	12
543.325	1	10
544.515	1	-2
545.705	1	9
546.896	1	6
548.086	1	5
549.276	1	1
550.466	1	0
551.656	1	11
552.846	1	11
554.036	1	13
555.226	1	2
556.416	1	8
557.606	1	2
558.796	1	12
559.986	1	10
561.175	1	11
562.365	1	7
563.555	1	9
564.744	1	20
565.934	1	20
567.123	1	9
568.313	1	4
569.502	1	12
570.692	1	9
571.881	1	0
573.070	1	17
574.260	1	9
575.449	1	6
576.638	1	10
577.827	1	3
579.016	1	9
580.205	1	9
581.394	1	4
582.583	1	-2
583.772	1	2
584.961	1	-9
586.150	1	14
587.339	1	3
588.528	1	-4
589.717	1	1
590.905	1	5
592.094	1	4
593.283	1	3
594.471	1	-4
595.660	1	6
596.848	1	16
598.037	1	9
599.225	1	10
600.413	1	6
601.602	1	-1
602.790	1	16
603.978	1	1
605.166	1	6
606.355	1	-9
607.543	1	3
608.731	1	-3
609.919	1	-4
611.107	1	11
612.295	1	8
613.483	1	-2
614.671	1	8
615.858	1	-6
617.046	1	3
618.234	1	-2
619.422	1	15
620.609	1	3
621.797	1	-5
622.985	1	8
624.172	1	-7
625.360	1	1
626.547	1	-1
627.735	1	8
628.922	1	5
630.109	1	-7
631.297	1	14
632.484	1	8
633.671	1	5
634.858	1	13
636.045	1	-2
637.232	1	6
638.419	1	7
639.606	1	12
640.793	1	-1
641.980	1	10
643.167	1	7
644.354	1	16
645.541	1	2
646.728	1	3
647.914	1	7
649.101	1	3
650.288	1	15
651.474	1	-1
652.661	1	0
653.847	1	13
655.034	1	6
656.220	1	9
657.406	1	-4
658.593	1	7
659.779	1	4
660.965	1	13
662.152	1	4
663.338	1	-3
664.524	1	5
665.710	1	4
666.896	1	1
668.082	1	6
669.268	1	-11
670.454	1	11
671.640	1	2
672.826	1	-2
674.011	1	12
675.197	1	-5
676.383	1	5
677.569	1	15
678.754	1	2
679.940	1	-11
681.125	1	5
682.311	1	0
683.496	1	-2
684.682	1	7
685.867	1	0
687.053	1	13
688.238	1	1
688.746	1	4

File: GaN_sample D_spot15_UVVIS_150 K_200um_450 ms 2x2mm1_167.txt
340.368	1	3
341.565	1	7
342.763	1	15
343.960	1	3
345.157	1	8
346.354	1	6
347.552	1	10
348.749	1	3
349.946	1	-1
351.143	1	3
352.340	1	9
353.537	1	-5
354.734	1	7
355.931	1	18
357.127	1	11
358.324	1	6
359.521	1	16
360.718	1	8
361.914	1	5
363.111	1	4
364.308	1	19
365.504	1	13
366.701	1	32
367.897	1	20
369.093	1	35
370.290	1	28
371.486	1	29
372.682	1	25
373.879	1	13
375.075	1	7
376.271	1	14
377.467	1	16
378.663	1	15
379.859	1	3
381.055	1	6
382.251	1	-7
383.447	1	6
384.643	1	5
385.839	1	14
387.035	1	4
388.230	1	5
389.426	1	6
390.622	1	-2
391.817	1	-7
393.013	1	6
394.208	1	1
395.404	1	2
396.599	1	6
397.795	1	11
398.990	1	15
400.186	1	11
401.381	1	6
402.576	1	13
403.771	1	0
404.967	1	8
406.162	1	-2
407.357	1	14
408.552	1	0
409.747	1	7
410.942	1	20
412.137	1	8
413.332	1	10
414.526	1	0
415.721	1	9
416.916	1	7
418.111	1	11
419.305	1	14
420.500	1	10
421.695	1	7
422.889	1	14
424.084	1	7
425.278	1	16
426.472	1	14
427.667	1	9
428.861	1	20
430.055	1	19
431.250	1	20
432.444	1	11
433.638	1	13
434.832	1	0
436.026	1	2
437.220	1	15
438.414	1	8
439.608	1	-9
440.802	1	3
441.996	1	5
443.190	1	-2
444.384	1	6
445.578	1	-5
446.771	1	10
447.965	1	-7
449.159	1	-9
450.352	1	9
451.546	1	7
452.739	1	2
453.933	1	3
455.126	1	1
456.320	1	7
457.513	1	-1
458.706	1	4
459.899	1	14
461.093	1	3
462.286	1	4
463.479	1	-3
464.672	1	0
465.865	1	8
467.058	1	6
468.251	1	-3
469.444	1	6
470.637	1	4
471.830	1	2
473.023	1	12
474.215	1	8
475.408	1	9
476.601	1	4
477.793	1	4
478.986	1	9
480.179	1	11
481.371	1	-1
482.564	1	9
483.756	1	3
484.948	1	8
486.141	1	12
487.333	1	-1
488.525	1	-5
489.718	1	-5
490.910	1	17
492.102	1	7
493.294	1	-8
494.486	1	3
495.678	1	-8
496.870	1	7
498.062	1	5
499.254	1	-1
500.446	1	2
501.638	1	10
502.829	1	5
504.021	1	3
505.213	1	-1
506.404	1	4
507.596	1	7
508.788	1	-9
509.979	1	2
511.171	1	6
512.362	1	13
513.553	1	10
514.745	1	2
515.936	1	13
517.127	1	20
518.319	1	-3
519.510	1	4
520.701	1	15
521.892	1	14
523.083	1	4
524.274	1	5
525.465	1	8
526.656	1	10
527.847	1	2
529.038	1	13
530.229	1	20
531.419	1	8
532.610	1	9
533.801	1	13
534.991	1	3
536.182	1	11
537.373	1	11
538.563	1	1
539.754	1	13
540.944	1	9
542.134	1	2
543.325	1	13
544.515	1	12
545.705	1	1
546.896	1	12
548.086	1	7
549.276	1	7
550.466	1	8
551.656	1	11
552.846	1	10
554.036	1	18
555.226	1	5
556.416	1	9
557.606	1	-6
558.796	1	12
559.986	1	11
561.175	1	-1
562.365	1	2
563.555	1	9
564.744	1	17
565.934	1	9
567.123	1	2
568.313	1	9
569.502	1	5
570.692	1	6
571.881	1	-7
573.070	1	-1
574.260	1	10
575.449	1	-5
576.638	1	11
577.827	1	0
579.016	1	5
580.205	1	5
581.394	1	5
582.583	1	-4
583.772	1	11
584.961	1	3
586.150	1	4
587.339	1	-3
588.528	1	4
589.717	1	13
590.905	1	-1
592.094	1	-1
593.283	1	8
594.471	1	-3
595.660	1	16
596.848	1	15
598.037	1	8
599.225	1	5
600.413	1	8
601.602	1	13
602.790	1	-4
603.978	1	-3
605.166	1	10
606.355	1	-10
607.543	1	4
608.731	1	-7
609.919	1	-6
611.107	1	8
612.295	1	8
613.483	1	6
614.671	1	7
615.858	1	0
617.046	1	-2
618.234	1	-4
619.422	1	8
620.609	1	6
621.797	1	7
622.985	1	2
624.172	1	-1
625.360	1	0
626.547	1	-2
627.735	1	9
628.922	1	5
630.109	1	4
631.297	1	0
632.484	1	10
633.671	1	13
634.858	1	6
636.045	1	1
637.232	1	12
638.419	1	2
639.606	1	2
640.793	1	11
641.980	1	18
643.167	1	0
644.354	1	6
645.541	1	-2
646.728	1	4
647.914	1	1
649.101	1	-1
650.288	1	7
651.474	1	2
652.661	1	9
653.847	1	4
655.034	1	2
656.220	1	-2
657.406	1	-2
658.593	1	5
659.779	1	-2
660.965	1	1
662.152	1	2
663.338	1	2
664.524	1	19
665.710	1	6
666.896	1	10
668.082	1	4
669.268	1	-1
670.454	1	14
671.640	1	-2
672.826	1	2
674.011	1	6
675.197	1	10
676.383	1	2
677.569	1	15
678.754	1	5
679.940	1	5
681.125	1	9
682.311	1	10
683.496	1	4
684.682	1	-3
685.867	1	8
687.053	1	18
688.238	1	10
688.746	1	-2

File: GaN_sample D_spot15_UVVIS_150 K_200um_450 ms 2x2mm1_168.txt
340.368	1	7
341.565	1	4
342.763	1	-2
343.960	1	9
345.157	1	14
346.354	1	3
347.552	1	17
348.749	1	10
349.946	1	2
351.143	1	1
352.340	1	13
353.537	1	7
354.734	1	1
355.931	1	11
357.127	1	11
358.324	1	3
359.521	1	16
360.718	1	12
361.914	1	11
363.111	1	12
364.308	1	20
365.504	1	20
366.701	1	29
367.897	1	36
369.093	1	28
370.290	1	33
371.486	1	34
372.682	1	17
373.879	1	15
375.075	1	5
376.271	1	7
377.467	1	24
378.663	1	14
379.859	1	13
381.055	1	5
382.251	1	8
383.447	1	12
384.643	1	3
385.839	1	8
387.035	1	16
388.230	1	7
389.426	1	17
390.622	1	-5
391.817	1	0
393.013	1	16
394.208	1	6
395.404	1	10
396.599	1	5
397.795	1	10
398.990	1	14
400.186	1	11
401.381	1	4
402.576	1	3
403.771	1	-2
404.967	1	-3
406.162	1	4
407.357	1	10
408.552	1	0
409.747	1	13
410.942	1	17
412.137	1	6
413.332	1	12
414.526	1	8
415.721	1	17
416.916	1	5
418.111	1	11
419.305	1	13
420.500	1	11
421.695	1	12
422.889	1	4
424.084	1	16
425.278	1	13
426.472	1	13
427.667	1	7
428.861	1	10
430.055	1	8
431.250	1	11
432.444	1	-1
433.638	1	21
434.832	1	1
436.026	1	-1
437.220	1	14
438.414	1	15
439.608	1	4
440.802	1	6
441.996	1	4
443.190	1	4
444.384	1	12
445.578	1	4
446.771	1	7
447.965	1	4
449.159	1	6
450.352	1	3
451.546	1	6
452.739	1	16
453.933	1	-3
455.126	1	5
456.320	1	13
457.513	1	8
458.706	1	17
459.899	1	5
461.093	1	3
462.286	1	-3
463.479	1	3
464.672	1	5
465.865	1	13
467.058	1	12
468.251	1	6
469.444	1	0
470.637	1	4
471.830	1	2
473.023	1	7
474.215	1	5
475.408	1	7
476.601	1	5
477.793	1	-1
478.986	1	16
480.179	1	5
481.371	1	-4
482.564	1	14
483.756	1	8
484.948	1	8
486.141	1	9
487.333	1	-1
488.525	1	4
489.718	1	0
490.910	1	7
492.102	1	4
493.294	1	-4
494.486	1	2
495.678	1	-3
496.870	1	1
498.062	1	-1
499.254	1	1
500.446	1	-3
501.638	1	15
502.829	1	6
504.021	1	4
505.213	1	0
506.404	1	9
507.596	1	10
508.788	1	8
509.979	1	4
511.171	1	13
512.362	1	8
513.553	1	6
514.745	1	7
515.936	1	8
517.127	1	13
518.319	1	8
519.510	1	3
520.701	1	7
521.892	1	5
523.083	1	0
524.274	1	9
525.465	1	16
526.656	1	10
527.847	1	-9
529.038	1	8
530.229	1	10
531.419	1	6
532.610	1	14
533.801	1	13
534.991	1	7
536.182	1	17
537.373	1	8
538.563	1	3
539.754	1	-2
540.944	1	10
542.134	1	14
543.325	1	5
544.515	1	13
545.705	1	12
546.896	1	8
548.086	1	8
549.276	1	14
550.466	1	11
551.656	1	11
552.846	1	14
554.036	1	13
555.226	1	6
556.416	1	5
557.606	1	-10
558.796	1	19
559.986	1	9
561.175	1	2
562.365	1	6
563.555	1	7
564.744	1	16
565.934	1	10
567.123	1	7
568.313	1	13
569.502	1	11
570.692	1	-4
571.881	1	4
573.070	1	10
574.260	1	8
575.449	1	-3
576.638	1	19
577.827	1	-4
579.016	1	4
580.205	1	4
581.394	1	4
582.583	1	-3
583.772	1	2
584.961	1	3
586.150	1	8
587.339	1	4
588.528	1	-7
589.717	1	12
590.905	1	-7
592.094	1	12
593.283	1	17
594.471	1	-4
595.660	1	5
596.848	1	11
598.037	1	1
599.225	1	3
600.413	1	6
601.602	1	15
602.790	1	10
603.978	1	4
605.166	1	2
606.355	1	-14
607.543	1	-4
608.731	1	-5
609.919	1	-9
611.107	1	16
612.295	1	8
613.483	1	8
614.671	1	1
615.858	1	-2
617.046	1	0
618.234	1	2
619.422	1	15
620.609	1	-5
621.797	1	-1
622.985	1	-4
624.172	1	2
625.360	1	0
626.547	1	-4
627.735	1	12
628.922	1	18
630.109	1	-2
631.297	1	7
632.484	1	2
633.671	1	12
634.858	1	13
636.045	1	-6
637.232	1	10
638.419	1	0
639.606	1	9
640.793	1	5
641.980	1	10
643.167	1	5
644.354	1	12
645.541	1	6
646.728	1	3
647.914	1	4
649.101	1	-3
650.288	1	1
651.474	1	9
652.661	1	-2
653.847	1	2
655.034	1	1
656.220	1	11
657.406	1	-2
658.593	1	3
659.779	1	13
660.965	1	7
662.152	1	6
663.338	1	-3
664.524	1	11
665.710	1	10
666.896	1	1
668.082	1	7
669.268	1	3
670.454	1	11
671.640	1	8
672.826	1	2
674.011	1	6
675.197	1	12
676.383	1	4
677.569	1	11
678.754	1	10
679.940	1	0
681.125	1	12
682.311	1	14
683.496	1	-8
684.682	1	13
685.867	1	1
687.053	1	27
688.238	1	16
688.746	1	4