Folder: cryo-il_analysis/Data/GaN_170K_550ms (part 21)

File: GaN_sample D_spot 18_UVVIS_170 K_200um_550 ms 2x2mm1_245.txt
340.368	1	8
341.565	1	7
342.763	1	4
343.960	1	3
345.157	1	0
346.354	1	-11
347.552	1	3
348.749	1	2
349.946	1	15
351.143	1	8
352.340	1	0
353.537	1	4
354.734	1	2
355.931	1	-3
357.127	1	5
358.324	1	2
359.521	1	7
360.718	1	-1
361.914	1	3
363.111	1	15
364.308	1	8
365.504	1	10
366.701	1	14
367.897	1	10
369.093	1	-3
370.290	1	15
371.486	1	0
372.682	1	11
373.879	1	23
375.075	1	7
376.271	1	22
377.467	1	11
378.663	1	16
379.859	1	3
381.055	1	3
382.251	1	1
383.447	1	-1
384.643	1	3
385.839	1	-2
387.035	1	0
388.230	1	1
389.426	1	6
390.622	1	0
391.817	1	6
393.013	1	6
394.208	1	6
395.404	1	5
396.599	1	-6
397.795	1	7
398.990	1	-7
400.186	1	2
401.381	1	12
402.576	1	-4
403.771	1	6
404.967	1	0
406.162	1	10
407.357	1	1
408.552	1	6
409.747	1	-1
410.942	1	5
412.137	1	-4
413.332	1	-2
414.526	1	3
415.721	1	1
416.916	1	-7
418.111	1	10
419.305	1	3
420.500	1	1
421.695	1	-6
422.889	1	2
424.084	1	11
425.278	1	-2
426.472	1	6
427.667	1	5
428.861	1	-1
430.055	1	9
431.250	1	9
432.444	1	7
433.638	1	2
434.832	1	6
436.026	1	1
437.220	1	-3
438.414	1	4
439.608	1	-7
440.802	1	10
441.996	1	0
443.190	1	-1
444.384	1	1
445.578	1	7
446.771	1	-7
447.965	1	3
449.159	1	1
450.352	1	-2
451.546	1	-13
452.739	1	6
453.933	1	5
455.126	1	13
456.320	1	1
457.513	1	13
458.706	1	0
459.899	1	2
461.093	1	12
462.286	1	-7
463.479	1	-3
464.672	1	-3
465.865	1	3
467.058	1	6
468.251	1	5
469.444	1	2
470.637	1	-6
471.830	1	-2
473.023	1	3
474.215	1	4
475.408	1	-7
476.601	1	2
477.793	1	6
478.986	1	-1
480.179	1	-3
481.371	1	7
482.564	1	-3
483.756	1	3
484.948	1	-7
486.141	1	3
487.333	1	-2
488.525	1	0
489.718	1	1
490.910	1	8
492.102	1	5
493.294	1	-8
494.486	1	11
495.678	1	0
496.870	1	0
498.062	1	0
499.254	1	9
500.446	1	3
501.638	1	-7
502.829	1	1
504.021	1	2
505.213	1	0
506.404	1	2
507.596	1	-7
508.788	1	-1
509.979	1	8
511.171	1	8
512.362	1	4
513.553	1	6
514.745	1	-1
515.936	1	-7
517.127	1	13
518.319	1	8
519.510	1	8
520.701	1	9
521.892	1	6
523.083	1	5
524.274	1	-4
525.465	1	6
526.656	1	9
527.847	1	4
529.038	1	2
530.229	1	17
531.419	1	3
532.610	1	-2
533.801	1	4
534.991	1	-4
536.182	1	5
537.373	1	4
538.563	1	-7
539.754	1	-2
540.944	1	-5
542.134	1	-2
543.325	1	9
544.515	1	4
545.705	1	6
546.896	1	9
548.086	1	2
549.276	1	5
550.466	1	0
551.656	1	2
552.846	1	9
554.036	1	2
555.226	1	-15
556.416	1	-3
557.606	1	1
558.796	1	2
559.986	1	9
561.175	1	-6
562.365	1	1
563.555	1	8
564.744	1	12
565.934	1	1
567.123	1	4
568.313	1	-1
569.502	1	3
570.692	1	12
571.881	1	3
573.070	1	-1
574.260	1	5
575.449	1	8
576.638	1	0
577.827	1	-1
579.016	1	4
580.205	1	-5
581.394	1	2
582.583	1	-7
583.772	1	-1
584.961	1	4
586.150	1	2
587.339	1	-3
588.528	1	1
589.717	1	12
590.905	1	5
592.094	1	10
593.283	1	0
594.471	1	11
595.660	1	8
596.848	1	4
598.037	1	5
599.225	1	11
600.413	1	0
601.602	1	7
602.790	1	12
603.978	1	3
605.166	1	3
606.355	1	3
607.543	1	6
608.731	1	8
609.919	1	-1
611.107	1	-7
612.295	1	0
613.483	1	-1
614.671	1	8
615.858	1	-5
617.046	1	-7
618.234	1	3
619.422	1	-8
620.609	1	3
621.797	1	10
622.985	1	6
624.172	1	0
625.360	1	8
626.547	1	-3
627.735	1	-15
628.922	1	-9
630.109	1	-3
631.297	1	2
632.484	1	4
633.671	1	-2
634.858	1	-1
636.045	1	2
637.232	1	-3
638.419	1	-6
639.606	1	-3
640.793	1	-3
641.980	1	-9
643.167	1	-4
644.354	1	-2
645.541	1	8
646.728	1	-2
647.914	1	2
649.101	1	5
650.288	1	-6
651.474	1	7
652.661	1	-3
653.847	1	0
655.034	1	2
656.220	1	-6
657.406	1	4
658.593	1	7
659.779	1	4
660.965	1	12
662.152	1	10
663.338	1	7
664.524	1	10
665.710	1	-5
666.896	1	-5
668.082	1	10
669.268	1	0
670.454	1	-10
671.640	1	2
672.826	1	-3
674.011	1	-1
675.197	1	6
676.383	1	-1
677.569	1	-9
678.754	1	7
679.940	1	10
681.125	1	6
682.311	1	-1
683.496	1	3
684.682	1	-5
685.867	1	3
687.053	1	-5
688.238	1	-11
688.746	1	-7

File: GaN_sample D_spot 18_UVVIS_170 K_200um_550 ms 2x2mm1_246.txt
340.368	1	0
341.565	1	-1
342.763	1	9
343.960	1	0
345.157	1	6
346.354	1	-2
347.552	1	11
348.749	1	5
349.946	1	8
351.143	1	-5
352.340	1	0
353.537	1	8
354.734	1	8
355.931	1	3
357.127	1	-8
358.324	1	4
359.521	1	7
360.718	1	2
361.914	1	2
363.111	1	10
364.308	1	8
365.504	1	7
366.701	1	14
367.897	1	9
369.093	1	2
370.290	1	10
371.486	1	4
372.682	1	17
373.879	1	11
375.075	1	7
376.271	1	9
377.467	1	11
378.663	1	4
379.859	1	6
381.055	1	15
382.251	1	2
383.447	1	13
384.643	1	-3
385.839	1	-8
387.035	1	2
388.230	1	1
389.426	1	-2
390.622	1	3
391.817	1	1
393.013	1	1
394.208	1	6
395.404	1	-1
396.599	1	-2
397.795	1	2
398.990	1	-2
400.186	1	2
401.381	1	8
402.576	1	2
403.771	1	7
404.967	1	2
406.162	1	3
407.357	1	-2
408.552	1	-7
409.747	1	0
410.942	1	7
412.137	1	-7
413.332	1	-8
414.526	1	9
415.721	1	-7
416.916	1	-1
418.111	1	4
419.305	1	4
420.500	1	-7
421.695	1	-5
422.889	1	-2
424.084	1	14
425.278	1	9
426.472	1	0
427.667	1	6
428.861	1	0
430.055	1	-8
431.250	1	12
432.444	1	-4
433.638	1	3
434.832	1	7
436.026	1	-2
437.220	1	0
438.414	1	-1
439.608	1	6
440.802	1	19
441.996	1	-5
443.190	1	-1
444.384	1	7
445.578	1	10
446.771	1	-8
447.965	1	0
449.159	1	-8
450.352	1	-3
451.546	1	-8
452.739	1	6
453.933	1	5
455.126	1	13
456.320	1	-6
457.513	1	12
458.706	1	6
459.899	1	-3
461.093	1	9
462.286	1	-11
463.479	1	-9
464.672	1	3
465.865	1	7
467.058	1	-1
468.251	1	8
469.444	1	0
470.637	1	-2
471.830	1	-2
473.023	1	0
474.215	1	4
475.408	1	-4
476.601	1	0
477.793	1	2
478.986	1	4
480.179	1	-2
481.371	1	4
482.564	1	-4
483.756	1	1
484.948	1	-7
486.141	1	10
487.333	1	-2
488.525	1	13
489.718	1	13
490.910	1	-4
492.102	1	-7
493.294	1	3
494.486	1	9
495.678	1	-5
496.870	1	2
498.062	1	-5
499.254	1	6
500.446	1	3
501.638	1	-10
502.829	1	3
504.021	1	0
505.213	1	-3
506.404	1	5
507.596	1	8
508.788	1	2
509.979	1	2
511.171	1	9
512.362	1	-4
513.553	1	6
514.745	1	5
515.936	1	2
517.127	1	4
518.319	1	11
519.510	1	11
520.701	1	10
521.892	1	-4
523.083	1	0
524.274	1	-2
525.465	1	4
526.656	1	4
527.847	1	9
529.038	1	-1
530.229	1	7
531.419	1	12
532.610	1	3
533.801	1	2
534.991	1	-5
536.182	1	2
537.373	1	-3
538.563	1	5
539.754	1	4
540.944	1	-4
542.134	1	0
543.325	1	6
544.515	1	5
545.705	1	9
546.896	1	2
548.086	1	4
549.276	1	3
550.466	1	1
551.656	1	-1
552.846	1	-5
554.036	1	-8
555.226	1	0
556.416	1	1
557.606	1	2
558.796	1	1
559.986	1	-7
561.175	1	-6
562.365	1	3
563.555	1	-2
564.744	1	3
565.934	1	6
567.123	1	4
568.313	1	-1
569.502	1	-2
570.692	1	-3
571.881	1	-3
573.070	1	0
574.260	1	5
575.449	1	2
576.638	1	12
577.827	1	-6
579.016	1	11
580.205	1	-1
581.394	1	-1
582.583	1	-2
583.772	1	-5
584.961	1	-3
586.150	1	-8
587.339	1	1
588.528	1	-4
589.717	1	3
590.905	1	5
592.094	1	12
593.283	1	8
594.471	1	6
595.660	1	3
596.848	1	3
598.037	1	3
599.225	1	3
600.413	1	1
601.602	1	-3
602.790	1	7
603.978	1	8
605.166	1	7
606.355	1	5
607.543	1	0
608.731	1	1
609.919	1	-5
611.107	1	4
612.295	1	-9
613.483	1	-7
614.671	1	12
615.858	1	-2
617.046	1	-4
618.234	1	5
619.422	1	-2
620.609	1	3
621.797	1	-6
622.985	1	5
624.172	1	0
625.360	1	2
626.547	1	-1
627.735	1	-14
628.922	1	5
630.109	1	-1
631.297	1	-7
632.484	1	-1
633.671	1	1
634.858	1	1
636.045	1	0
637.232	1	-5
638.419	1	-13
639.606	1	-2
640.793	1	-1
641.980	1	6
643.167	1	-7
644.354	1	3
645.541	1	4
646.728	1	8
647.914	1	0
649.101	1	3
650.288	1	6
651.474	1	4
652.661	1	7
653.847	1	4
655.034	1	-4
656.220	1	-2
657.406	1	1
658.593	1	-1
659.779	1	1
660.965	1	13
662.152	1	1
663.338	1	11
664.524	1	-2
665.710	1	4
666.896	1	3
668.082	1	7
669.268	1	2
670.454	1	-1
671.640	1	-3
672.826	1	2
674.011	1	2
675.197	1	11
676.383	1	6
677.569	1	-2
678.754	1	2
679.940	1	12
681.125	1	4
682.311	1	6
683.496	1	3
684.682	1	7
685.867	1	8
687.053	1	1
688.238	1	-1
688.746	1	1

File: GaN_sample D_spot 18_UVVIS_170 K_200um_550 ms 2x2mm1_249.txt
340.368	1	-7
341.565	1	2
342.763	1	2
343.960	1	-12
345.157	1	-6
346.354	1	4
347.552	1	4
348.749	1	3
349.946	1	10
351.143	1	3
352.340	1	-1
353.537	1	11
354.734	1	-1
355.931	1	0
357.127	1	3
358.324	1	13
359.521	1	2
360.718	1	5
361.914	1	10
363.111	1	13
364.308	1	18
365.504	1	5
366.701	1	7
367.897	1	14
369.093	1	2
370.290	1	12
371.486	1	0
372.682	1	18
373.879	1	7
375.075	1	9
376.271	1	8
377.467	1	9
378.663	1	7
379.859	1	10
381.055	1	5
382.251	1	0
383.447	1	5
384.643	1	5
385.839	1	-3
387.035	1	6
388.230	1	-7
389.426	1	1
390.622	1	2
391.817	1	-5
393.013	1	12
394.208	1	7
395.404	1	15
396.599	1	-13
397.795	1	-10
398.990	1	-5
400.186	1	1
401.381	1	19
402.576	1	-3
403.771	1	9
404.967	1	10
406.162	1	3
407.357	1	-1
408.552	1	2
409.747	1	5
410.942	1	1
412.137	1	-10
413.332	1	0
414.526	1	10
415.721	1	-9
416.916	1	0
418.111	1	0
419.305	1	4
420.500	1	3
421.695	1	-9
422.889	1	-1
424.084	1	12
425.278	1	3
426.472	1	8
427.667	1	9
428.861	1	5
430.055	1	2
431.250	1	12
432.444	1	5
433.638	1	-1
434.832	1	3
436.026	1	2
437.220	1	-4
438.414	1	-11
439.608	1	0
440.802	1	6
441.996	1	1
443.190	1	7
444.384	1	-1
445.578	1	-4
446.771	1	-4
447.965	1	2
449.159	1	6
450.352	1	-3
451.546	1	-3
452.739	1	-7
453.933	1	-1
455.126	1	16
456.320	1	0
457.513	1	9
458.706	1	-1
459.899	1	-8
461.093	1	4
462.286	1	0
463.479	1	-3
464.672	1	-4
465.865	1	5
467.058	1	5
468.251	1	3
469.444	1	1
470.637	1	4
471.830	1	-4
473.023	1	-1
474.215	1	-3
475.408	1	-3
476.601	1	6
477.793	1	12
478.986	1	-1
480.179	1	-7
481.371	1	-2
482.564	1	-1
483.756	1	6
484.948	1	4
486.141	1	2
487.333	1	-7
488.525	1	8
489.718	1	6
490.910	1	6
492.102	1	6
493.294	1	1
494.486	1	9
495.678	1	1
496.870	1	-5
498.062	1	-1
499.254	1	6
500.446	1	-2
501.638	1	-5
502.829	1	-1
504.021	1	6
505.213	1	-3
506.404	1	-3
507.596	1	7
508.788	1	-6
509.979	1	5
511.171	1	-7
512.362	1	-3
513.553	1	-2
514.745	1	6
515.936	1	-3
517.127	1	-1
518.319	1	8
519.510	1	7
520.701	1	-4
521.892	1	4
523.083	1	0
524.274	1	5
525.465	1	1
526.656	1	12
527.847	1	-2
529.038	1	3
530.229	1	18
531.419	1	8
532.610	1	-3
533.801	1	1
534.991	1	-7
536.182	1	0
537.373	1	-6
538.563	1	7
539.754	1	2
540.944	1	-4
542.134	1	-6
543.325	1	0
544.515	1	3
545.705	1	3
546.896	1	3
548.086	1	3
549.276	1	-1
550.466	1	0
551.656	1	-1
552.846	1	2
554.036	1	9
555.226	1	5
556.416	1	-8
557.606	1	2
558.796	1	5
559.986	1	5
561.175	1	-6
562.365	1	0
563.555	1	1
564.744	1	4
565.934	1	4
567.123	1	12
568.313	1	-3
569.502	1	4
570.692	1	8
571.881	1	-10
573.070	1	-8
574.260	1	9
575.449	1	7
576.638	1	2
577.827	1	7
579.016	1	8
580.205	1	-7
581.394	1	2
582.583	1	4
583.772	1	2
584.961	1	6
586.150	1	-15
587.339	1	-2
588.528	1	-11
589.717	1	6
590.905	1	-1
592.094	1	6
593.283	1	3
594.471	1	3
595.660	1	0
596.848	1	5
598.037	1	7
599.225	1	6
600.413	1	-1
601.602	1	8
602.790	1	1
603.978	1	0
605.166	1	3
606.355	1	15
607.543	1	5
608.731	1	10
609.919	1	-5
611.107	1	0
612.295	1	-2
613.483	1	-4
614.671	1	-5
615.858	1	3
617.046	1	-3
618.234	1	-2
619.422	1	-4
620.609	1	1
621.797	1	2
622.985	1	-5
624.172	1	-2
625.360	1	0
626.547	1	-5
627.735	1	-7
628.922	1	-6
630.109	1	1
631.297	1	-7
632.484	1	-3
633.671	1	9
634.858	1	-5
636.045	1	7
637.232	1	-1
638.419	1	-4
639.606	1	5
640.793	1	2
641.980	1	2
643.167	1	-9
644.354	1	-1
645.541	1	4
646.728	1	7
647.914	1	-4
649.101	1	6
650.288	1	7
651.474	1	1
652.661	1	0
653.847	1	8
655.034	1	1
656.220	1	6
657.406	1	-2
658.593	1	7
659.779	1	5
660.965	1	8
662.152	1	-3
663.338	1	5
664.524	1	-2
665.710	1	5
666.896	1	0
668.082	1	12
669.268	1	-2
670.454	1	-2
671.640	1	8
672.826	1	-1
674.011	1	9
675.197	1	13
676.383	1	6
677.569	1	-6
678.754	1	12
679.940	1	7
681.125	1	7
682.311	1	4
683.496	1	0
684.682	1	4
685.867	1	9
687.053	1	-3
688.238	1	-5
688.746	1	-8

File: GaN_sample D_spot 18_UVVIS_170 K_200um_550 ms 2x2mm1_252.txt
340.368	1	0
341.565	1	-1
342.763	1	2
343.960	1	5
345.157	1	-12
346.354	1	-1
347.552	1	7
348.749	1	8
349.946	1	5
351.143	1	-5
352.340	1	-2
353.537	1	1
354.734	1	-1
355.931	1	0
357.127	1	-3
358.324	1	5
359.521	1	13
360.718	1	-3
361.914	1	6
363.111	1	13
364.308	1	12
365.504	1	3
366.701	1	4
367.897	1	9
369.093	1	1
370.290	1	6
371.486	1	-3
372.682	1	11
373.879	1	5
375.075	1	9
376.271	1	20
377.467	1	8
378.663	1	2
379.859	1	2
381.055	1	-2
382.251	1	1
383.447	1	10
384.643	1	5
385.839	1	-2
387.035	1	5
388.230	1	-3
389.426	1	7
390.622	1	1
391.817	1	3
393.013	1	-2
394.208	1	15
395.404	1	4
396.599	1	-5
397.795	1	2
398.990	1	-13
400.186	1	4
401.381	1	-1
402.576	1	-5
403.771	1	4
404.967	1	-6
406.162	1	6
407.357	1	-7
408.552	1	-1
409.747	1	-4
410.942	1	-5
412.137	1	-3
413.332	1	3
414.526	1	6
415.721	1	0
416.916	1	-2
418.111	1	12
419.305	1	0
420.500	1	6
421.695	1	-3
422.889	1	-3
424.084	1	15
425.278	1	-5
426.472	1	-2
427.667	1	4
428.861	1	2
430.055	1	6
431.250	1	14
432.444	1	3
433.638	1	7
434.832	1	11
436.026	1	0
437.220	1	7
438.414	1	-4
439.608	1	-6
440.802	1	6
441.996	1	-5
443.190	1	-5
444.384	1	0
445.578	1	-1
446.771	1	-11
447.965	1	4
449.159	1	-6
450.352	1	-5
451.546	1	-7
452.739	1	0
453.933	1	-1
455.126	1	12
456.320	1	4
457.513	1	8
458.706	1	4
459.899	1	9
461.093	1	1
462.286	1	-7
463.479	1	-9
464.672	1	-9
465.865	1	7
467.058	1	2
468.251	1	2
469.444	1	-1
470.637	1	6
471.830	1	-8
473.023	1	4
474.215	1	4
475.408	1	-11
476.601	1	0
477.793	1	1
478.986	1	2
480.179	1	0
481.371	1	3
482.564	1	8
483.756	1	7
484.948	1	4
486.141	1	15
487.333	1	-5
488.525	1	5
489.718	1	10
490.910	1	0
492.102	1	-4
493.294	1	4
494.486	1	7
495.678	1	3
496.870	1	-1
498.062	1	-5
499.254	1	14
500.446	1	1
501.638	1	-6
502.829	1	0
504.021	1	-3
505.213	1	0
506.404	1	2
507.596	1	1
508.788	1	-7
509.979	1	7
511.171	1	-1
512.362	1	-3
513.553	1	8
514.745	1	-7
515.936	1	2
517.127	1	4
518.319	1	0
519.510	1	11
520.701	1	1
521.892	1	6
523.083	1	-9
524.274	1	-2
525.465	1	11
526.656	1	9
527.847	1	-6
529.038	1	6
530.229	1	5
531.419	1	11
532.610	1	3
533.801	1	10
534.991	1	-6
536.182	1	-1
537.373	1	3
538.563	1	12
539.754	1	11
540.944	1	-9
542.134	1	1
543.325	1	8
544.515	1	9
545.705	1	5
546.896	1	0
548.086	1	-4
549.276	1	1
550.466	1	3
551.656	1	-2
552.846	1	1
554.036	1	-1
555.226	1	-5
556.416	1	12
557.606	1	1
558.796	1	9
559.986	1	6
561.175	1	-8
562.365	1	5
563.555	1	2
564.744	1	7
565.934	1	2
567.123	1	3
568.313	1	8
569.502	1	-9
570.692	1	13
571.881	1	0
573.070	1	1
574.260	1	2
575.449	1	13
576.638	1	3
577.827	1	4
579.016	1	0
580.205	1	-2
581.394	1	2
582.583	1	4
583.772	1	5
584.961	1	-4
586.150	1	5
587.339	1	-1
588.528	1	-6
589.717	1	4
590.905	1	3
592.094	1	9
593.283	1	11
594.471	1	14
595.660	1	1
596.848	1	5
598.037	1	-3
599.225	1	-2
600.413	1	-5
601.602	1	12
602.790	1	8
603.978	1	8
605.166	1	9
606.355	1	3
607.543	1	9
608.731	1	5
609.919	1	-2
611.107	1	2
612.295	1	-6
613.483	1	-2
614.671	1	14
615.858	1	-1
617.046	1	-3
618.234	1	4
619.422	1	7
620.609	1	5
621.797	1	-2
622.985	1	7
624.172	1	1
625.360	1	-2
626.547	1	-8
627.735	1	-9
628.922	1	-2
630.109	1	1
631.297	1	-7
632.484	1	-5
633.671	1	9
634.858	1	7
636.045	1	5
637.232	1	13
638.419	1	-5
639.606	1	-4
640.793	1	1
641.980	1	-5
643.167	1	4
644.354	1	6
645.541	1	6
646.728	1	5
647.914	1	4
649.101	1	-4
650.288	1	-1
651.474	1	6
652.661	1	-2
653.847	1	0
655.034	1	-10
656.220	1	1
657.406	1	2
658.593	1	0
659.779	1	0
660.965	1	9
662.152	1	-4
663.338	1	6
664.524	1	2
665.710	1	5
666.896	1	6
668.082	1	9
669.268	1	-5
670.454	1	-3
671.640	1	4
672.826	1	0
674.011	1	6
675.197	1	10
676.383	1	1
677.569	1	-6
678.754	1	1
679.940	1	9
681.125	1	11
682.311	1	0
683.496	1	3
684.682	1	6
685.867	1	0
687.053	1	-2
688.238	1	-3
688.746	1	-9

File: GaN_sample D_spot 18_UVVIS_170 K_200um_550 ms 2x2mm1_253.txt
340.368	1	0
341.565	1	1
342.763	1	1
343.960	1	-7
345.157	1	-12
346.354	1	-6
347.552	1	13
348.749	1	7
349.946	1	11
351.143	1	0
352.340	1	-2
353.537	1	-1
354.734	1	6
355.931	1	-3
357.127	1	4
358.324	1	7
359.521	1	6
360.718	1	5
361.914	1	4
363.111	1	17
364.308	1	13
365.504	1	5
366.701	1	4
367.897	1	12
369.093	1	-3
370.290	1	13
371.486	1	2
372.682	1	17
373.879	1	14
375.075	1	4
376.271	1	14
377.467	1	13
378.663	1	4
379.859	1	0
381.055	1	12
382.251	1	4
383.447	1	13
384.643	1	-7
385.839	1	1
387.035	1	6
388.230	1	1
389.426	1	8
390.622	1	-6
391.817	1	5
393.013	1	-8
394.208	1	1
395.404	1	8
396.599	1	-2
397.795	1	0
398.990	1	-11
400.186	1	1
401.381	1	16
402.576	1	6
403.771	1	6
404.967	1	1
406.162	1	6
407.357	1	-10
408.552	1	-3
409.747	1	2
410.942	1	-4
412.137	1	0
413.332	1	5
414.526	1	-3
415.721	1	-2
416.916	1	-2
418.111	1	9
419.305	1	3
420.500	1	0
421.695	1	-10
422.889	1	1
424.084	1	22
425.278	1	4
426.472	1	-1
427.667	1	6
428.861	1	5
430.055	1	1
431.250	1	6
432.444	1	8
433.638	1	6
434.832	1	3
436.026	1	-2
437.220	1	-3
438.414	1	-11
439.608	1	-1
440.802	1	6
441.996	1	-7
443.190	1	1
444.384	1	-5
445.578	1	8
446.771	1	-2
447.965	1	4
449.159	1	-1
450.352	1	-11
451.546	1	-17
452.739	1	-4
453.933	1	-4
455.126	1	2
456.320	1	4
457.513	1	8
458.706	1	7
459.899	1	0
461.093	1	8
462.286	1	-11
463.479	1	3
464.672	1	4
465.865	1	5
467.058	1	4
468.251	1	6
469.444	1	5
470.637	1	6
471.830	1	2
473.023	1	-5
474.215	1	12
475.408	1	-1
476.601	1	5
477.793	1	11
478.986	1	-1
480.179	1	-6
481.371	1	4
482.564	1	3
483.756	1	-1
484.948	1	-6
486.141	1	4
487.333	1	-7
488.525	1	9
489.718	1	2
490.910	1	1
492.102	1	3
493.294	1	1
494.486	1	13
495.678	1	-3
496.870	1	-1
498.062	1	-8
499.254	1	14
500.446	1	-1
501.638	1	-8
502.829	1	4
504.021	1	5
505.213	1	4
506.404	1	4
507.596	1	3
508.788	1	0
509.979	1	0
511.171	1	6
512.362	1	-5
513.553	1	4
514.745	1	-2
515.936	1	-1
517.127	1	13
518.319	1	1
519.510	1	11
520.701	1	8
521.892	1	-7
523.083	1	4
524.274	1	1
525.465	1	2
526.656	1	7
527.847	1	7
529.038	1	10
530.229	1	7
531.419	1	6
532.610	1	8
533.801	1	3
534.991	1	-2
536.182	1	-1
537.373	1	-5
538.563	1	-1
539.754	1	7
540.944	1	-3
542.134	1	5
543.325	1	2
544.515	1	-1
545.705	1	5
546.896	1	10
548.086	1	3
549.276	1	5
550.466	1	0
551.656	1	5
552.846	1	-3
554.036	1	1
555.226	1	-10
556.416	1	2
557.606	1	4
558.796	1	-1
559.986	1	-1
561.175	1	3
562.365	1	3
563.555	1	-2
564.744	1	4
565.934	1	5
567.123	1	0
568.313	1	-1
569.502	1	-7
570.692	1	8
571.881	1	-2
573.070	1	-1
574.260	1	7
575.449	1	4
576.638	1	5
577.827	1	-5
579.016	1	2
580.205	1	-6
581.394	1	2
582.583	1	15
583.772	1	5
584.961	1	2
586.150	1	-5
587.339	1	3
588.528	1	-3
589.717	1	8
590.905	1	6
592.094	1	1
593.283	1	12
594.471	1	5
595.660	1	6
596.848	1	5
598.037	1	6
599.225	1	4
600.413	1	-1
601.602	1	5
602.790	1	10
603.978	1	8
605.166	1	11
606.355	1	2
607.543	1	6
608.731	1	2
609.919	1	3
611.107	1	0
612.295	1	-2
613.483	1	-6
614.671	1	11
615.858	1	-1
617.046	1	9
618.234	1	7
619.422	1	-4
620.609	1	6
621.797	1	4
622.985	1	10
624.172	1	-1
625.360	1	3
626.547	1	0
627.735	1	-4
628.922	1	-2
630.109	1	-2
631.297	1	2
632.484	1	-13
633.671	1	0
634.858	1	5
636.045	1	4
637.232	1	14
638.419	1	-7
639.606	1	-9
640.793	1	0
641.980	1	-6
643.167	1	-2
644.354	1	3
645.541	1	-3
646.728	1	1
647.914	1	4
649.101	1	-1
650.288	1	9
651.474	1	5
652.661	1	6
653.847	1	5
655.034	1	-1
656.220	1	3
657.406	1	-9
658.593	1	-2
659.779	1	0
660.965	1	15
662.152	1	6
663.338	1	5
664.524	1	-3
665.710	1	4
666.896	1	0
668.082	1	8
669.268	1	-1
670.454	1	-10
671.640	1	10
672.826	1	-2
674.011	1	1
675.197	1	3
676.383	1	4
677.569	1	-12
678.754	1	5
679.940	1	6
681.125	1	8
682.311	1	0
683.496	1	0
684.682	1	-1
685.867	1	13
687.053	1	-6
688.238	1	-3
688.746	1	-3

File: GaN_sample D_spot 18_UVVIS_170 K_200um_550 ms 2x2mm1_256.txt
340.368	1	-7
341.565	1	7
342.763	1	12
343.960	1	1
345.157	1	-5
346.354	1	-1
347.552	1	1
348.749	1	8
349.946	1	6
351.143	1	-3
352.340	1	6
353.537	1	3
354.734	1	1
355.931	1	7
357.127	1	-6
358.324	1	8
359.521	1	14
360.718	1	2
361.914	1	4
363.111	1	11
364.308	1	16
365.504	1	2
366.701	1	8
367.897	1	16
369.093	1	6
370.290	1	9
371.486	1	-1
372.682	1	5
373.879	1	10
375.075	1	5
376.271	1	6
377.467	1	13
378.663	1	6
379.859	1	12
381.055	1	-2
382.251	1	10
383.447	1	8
384.643	1	3
385.839	1	2
387.035	1	-5
388.230	1	-4
389.426	1	10
390.622	1	5
391.817	1	5
393.013	1	-3
394.208	1	1
395.404	1	6
396.599	1	-7
397.795	1	6
398.990	1	-10
400.186	1	-1
401.381	1	6
402.576	1	0
403.771	1	3
404.967	1	4
406.162	1	10
407.357	1	-6
408.552	1	4
409.747	1	7
410.942	1	-1
412.137	1	-3
413.332	1	4
414.526	1	9
415.721	1	3
416.916	1	-3
418.111	1	2
419.305	1	-2
420.500	1	-2
421.695	1	-6
422.889	1	2
424.084	1	25
425.278	1	2
426.472	1	4
427.667	1	11
428.861	1	3
430.055	1	-8
431.250	1	3
432.444	1	-8
433.638	1	11
434.832	1	8
436.026	1	-2
437.220	1	3
438.414	1	-3
439.608	1	-5
440.802	1	16
441.996	1	5
443.190	1	-2
444.384	1	-1
445.578	1	7
446.771	1	0
447.965	1	5
449.159	1	0
450.352	1	-12
451.546	1	-17
452.739	1	2
453.933	1	-12
455.126	1	4
456.320	1	0
457.513	1	5
458.706	1	6
459.899	1	-2
461.093	1	3
462.286	1	-6
463.479	1	-4
464.672	1	1
465.865	1	6
467.058	1	8
468.251	1	6
469.444	1	7
470.637	1	0
471.830	1	-3
473.023	1	2
474.215	1	-2
475.408	1	-1
476.601	1	3
477.793	1	6
478.986	1	-3
480.179	1	2
481.371	1	-4
482.564	1	-6
483.756	1	5
484.948	1	3
486.141	1	8
487.333	1	-9
488.525	1	8
489.718	1	9
490.910	1	4
492.102	1	-5
493.294	1	-7
494.486	1	12
495.678	1	1
496.870	1	-7
498.062	1	-6
499.254	1	3
500.446	1	-2
501.638	1	-11
502.829	1	10
504.021	1	3
505.213	1	0
506.404	1	-1
507.596	1	10
508.788	1	-6
509.979	1	5
511.171	1	2
512.362	1	0
513.553	1	1
514.745	1	2
515.936	1	2
517.127	1	12
518.319	1	10
519.510	1	11
520.701	1	10
521.892	1	6
523.083	1	-2
524.274	1	7
525.465	1	0
526.656	1	10
527.847	1	-2
529.038	1	2
530.229	1	15
531.419	1	3
532.610	1	7
533.801	1	2
534.991	1	-6
536.182	1	0
537.373	1	-6
538.563	1	0
539.754	1	3
540.944	1	-8
542.134	1	-3
543.325	1	0
544.515	1	7
545.705	1	7
546.896	1	10
548.086	1	2
549.276	1	4
550.466	1	1
551.656	1	7
552.846	1	1
554.036	1	2
555.226	1	-9
556.416	1	-2
557.606	1	2
558.796	1	2
559.986	1	4
561.175	1	-1
562.365	1	4
563.555	1	1
564.744	1	6
565.934	1	0
567.123	1	4
568.313	1	-2
569.502	1	2
570.692	1	14
571.881	1	-3
573.070	1	1
574.260	1	0
575.449	1	2
576.638	1	3
577.827	1	0
579.016	1	4
580.205	1	-10
581.394	1	2
582.583	1	1
583.772	1	-3
584.961	1	-3
586.150	1	0
587.339	1	4
588.528	1	0
589.717	1	2
590.905	1	15
592.094	1	6
593.283	1	2
594.471	1	7
595.660	1	-6
596.848	1	-1
598.037	1	4
599.225	1	5
600.413	1	-12
601.602	1	3
602.790	1	2
603.978	1	1
605.166	1	0
606.355	1	6
607.543	1	0
608.731	1	1
609.919	1	1
611.107	1	-7
612.295	1	-6
613.483	1	3
614.671	1	6
615.858	1	-6
617.046	1	-1
618.234	1	4
619.422	1	2
620.609	1	0
621.797	1	5
622.985	1	2
624.172	1	0
625.360	1	1
626.547	1	-4
627.735	1	-9
628.922	1	-13
630.109	1	1
631.297	1	-2
632.484	1	-7
633.671	1	10
634.858	1	-2
636.045	1	8
637.232	1	5
638.419	1	-2
639.606	1	-10
640.793	1	-3
641.980	1	-5
643.167	1	0
644.354	1	4
645.541	1	-3
646.728	1	5
647.914	1	1
649.101	1	2
650.288	1	-8
651.474	1	8
652.661	1	2
653.847	1	2
655.034	1	0
656.220	1	6
657.406	1	5
658.593	1	3
659.779	1	8
660.965	1	7
662.152	1	-1
663.338	1	0
664.524	1	9
665.710	1	8
666.896	1	9
668.082	1	12
669.268	1	5
670.454	1	-7
671.640	1	0
672.826	1	-4
674.011	1	11
675.197	1	2
676.383	1	-4
677.569	1	-7
678.754	1	0
679.940	1	4
681.125	1	2
682.311	1	1
683.496	1	6
684.682	1	2
685.867	1	0
687.053	1	-11
688.238	1	-7
688.746	1	-4