Folder: cryo-il_analysis/Data/GaN_130K_350ms (part 9)

File: GaN_sample F_spot6_UVVIS_130 K_200um_350 ms 2x2mm1_145.txt
340.368	1	-1
341.565	1	3
342.763	1	3
343.960	1	-6
345.157	1	-8
346.354	1	-3
347.552	1	-3
348.749	1	0
349.946	1	15
351.143	1	-4
352.340	1	5
353.537	1	-2
354.734	1	-2
355.931	1	4
357.127	1	0
358.324	1	8
359.521	1	3
360.718	1	20
361.914	1	18
363.111	1	25
364.308	1	31
365.504	1	34
366.701	1	44
367.897	1	37
369.093	1	42
370.290	1	47
371.486	1	40
372.682	1	36
373.879	1	38
375.075	1	30
376.271	1	30
377.467	1	20
378.663	1	23
379.859	1	14
381.055	1	9
382.251	1	12
383.447	1	13
384.643	1	20
385.839	1	14
387.035	1	18
388.230	1	9
389.426	1	12
390.622	1	1
391.817	1	15
393.013	1	13
394.208	1	7
395.404	1	6
396.599	1	16
397.795	1	8
398.990	1	5
400.186	1	8
401.381	1	7
402.576	1	15
403.771	1	18
404.967	1	7
406.162	1	-1
407.357	1	10
408.552	1	-1
409.747	1	-8
410.942	1	7
412.137	1	3
413.332	1	-1
414.526	1	12
415.721	1	1
416.916	1	5
418.111	1	10
419.305	1	7
420.500	1	14
421.695	1	10
422.889	1	11
424.084	1	14
425.278	1	7
426.472	1	0
427.667	1	8
428.861	1	0
430.055	1	4
431.250	1	15
432.444	1	11
433.638	1	15
434.832	1	0
436.026	1	11
437.220	1	-1
438.414	1	-3
439.608	1	13
440.802	1	0
441.996	1	14
443.190	1	12
444.384	1	1
445.578	1	-8
446.771	1	4
447.965	1	4
449.159	1	10
450.352	1	11
451.546	1	10
452.739	1	8
453.933	1	9
455.126	1	-3
456.320	1	1
457.513	1	-16
458.706	1	10
459.899	1	2
461.093	1	10
462.286	1	4
463.479	1	5
464.672	1	11
465.865	1	-10
467.058	1	12
468.251	1	7
469.444	1	-8
470.637	1	0
471.830	1	2
473.023	1	8
474.215	1	4
475.408	1	4
476.601	1	2
477.793	1	1
478.986	1	-10
480.179	1	5
481.371	1	8
482.564	1	4
483.756	1	11
484.948	1	3
486.141	1	14
487.333	1	-3
488.525	1	13
489.718	1	9
490.910	1	-7
492.102	1	8
493.294	1	11
494.486	1	15
495.678	1	4
496.870	1	7
498.062	1	3
499.254	1	13
500.446	1	6
501.638	1	18
502.829	1	-1
504.021	1	11
505.213	1	18
506.404	1	6
507.596	1	3
508.788	1	13
509.979	1	4
511.171	1	10
512.362	1	4
513.553	1	15
514.745	1	18
515.936	1	18
517.127	1	11
518.319	1	8
519.510	1	15
520.701	1	11
521.892	1	18
523.083	1	13
524.274	1	13
525.465	1	17
526.656	1	23
527.847	1	14
529.038	1	8
530.229	1	12
531.419	1	24
532.610	1	15
533.801	1	19
534.991	1	11
536.182	1	19
537.373	1	10
538.563	1	16
539.754	1	13
540.944	1	11
542.134	1	10
543.325	1	10
544.515	1	8
545.705	1	1
546.896	1	21
548.086	1	0
549.276	1	11
550.466	1	14
551.656	1	12
552.846	1	12
554.036	1	11
555.226	1	11
556.416	1	13
557.606	1	11
558.796	1	17
559.986	1	11
561.175	1	18
562.365	1	13
563.555	1	22
564.744	1	8
565.934	1	8
567.123	1	6
568.313	1	2
569.502	1	11
570.692	1	20
571.881	1	1
573.070	1	18
574.260	1	4
575.449	1	9
576.638	1	9
577.827	1	9
579.016	1	3
580.205	1	-2
581.394	1	6
582.583	1	12
583.772	1	8
584.961	1	4
586.150	1	8
587.339	1	10
588.528	1	12
589.717	1	-2
590.905	1	6
592.094	1	4
593.283	1	2
594.471	1	8
595.660	1	11
596.848	1	5
598.037	1	7
599.225	1	17
600.413	1	15
601.602	1	-6
602.790	1	5
603.978	1	9
605.166	1	15
606.355	1	12
607.543	1	-3
608.731	1	2
609.919	1	18
611.107	1	0
612.295	1	13
613.483	1	0
614.671	1	-1
615.858	1	-6
617.046	1	12
618.234	1	2
619.422	1	3
620.609	1	-5
621.797	1	2
622.985	1	9
624.172	1	-2
625.360	1	3
626.547	1	5
627.735	1	17
628.922	1	-6
630.109	1	8
631.297	1	6
632.484	1	-1
633.671	1	1
634.858	1	9
636.045	1	13
637.232	1	3
638.419	1	5
639.606	1	5
640.793	1	-7
641.980	1	1
643.167	1	2
644.354	1	-3
645.541	1	2
646.728	1	10
647.914	1	2
649.101	1	4
650.288	1	12
651.474	1	2
652.661	1	1
653.847	1	-3
655.034	1	7
656.220	1	0
657.406	1	5
658.593	1	2
659.779	1	6
660.965	1	-4
662.152	1	6
663.338	1	3
664.524	1	-5
665.710	1	4
666.896	1	8
668.082	1	11
669.268	1	-1
670.454	1	9
671.640	1	-8
672.826	1	1
674.011	1	5
675.197	1	-2
676.383	1	12
677.569	1	-2
678.754	1	3
679.940	1	6
681.125	1	13
682.311	1	-8
683.496	1	2
684.682	1	8
685.867	1	0
687.053	1	6
688.238	1	4
688.746	1	11

File: GaN_sample F_spot6_UVVIS_130 K_200um_350 ms 2x2mm1_146.txt
340.368	1	9
341.565	1	4
342.763	1	2
343.960	1	-7
345.157	1	-12
346.354	1	0
347.552	1	-1
348.749	1	15
349.946	1	3
351.143	1	0
352.340	1	17
353.537	1	-6
354.734	1	-1
355.931	1	2
357.127	1	8
358.324	1	19
359.521	1	1
360.718	1	14
361.914	1	10
363.111	1	12
364.308	1	20
365.504	1	43
366.701	1	45
367.897	1	39
369.093	1	40
370.290	1	42
371.486	1	34
372.682	1	27
373.879	1	28
375.075	1	32
376.271	1	27
377.467	1	23
378.663	1	14
379.859	1	9
381.055	1	8
382.251	1	17
383.447	1	20
384.643	1	21
385.839	1	20
387.035	1	20
388.230	1	4
389.426	1	15
390.622	1	13
391.817	1	15
393.013	1	10
394.208	1	3
395.404	1	-1
396.599	1	15
397.795	1	1
398.990	1	5
400.186	1	-4
401.381	1	8
402.576	1	9
403.771	1	13
404.967	1	5
406.162	1	3
407.357	1	7
408.552	1	-8
409.747	1	2
410.942	1	4
412.137	1	0
413.332	1	0
414.526	1	4
415.721	1	19
416.916	1	9
418.111	1	9
419.305	1	0
420.500	1	-2
421.695	1	0
422.889	1	7
424.084	1	8
425.278	1	4
426.472	1	4
427.667	1	7
428.861	1	-5
430.055	1	3
431.250	1	13
432.444	1	4
433.638	1	1
434.832	1	-3
436.026	1	6
437.220	1	4
438.414	1	-3
439.608	1	19
440.802	1	9
441.996	1	9
443.190	1	4
444.384	1	-1
445.578	1	7
446.771	1	-5
447.965	1	4
449.159	1	7
450.352	1	14
451.546	1	14
452.739	1	7
453.933	1	6
455.126	1	-6
456.320	1	-1
457.513	1	-3
458.706	1	10
459.899	1	3
461.093	1	8
462.286	1	15
463.479	1	11
464.672	1	5
465.865	1	3
467.058	1	21
468.251	1	7
469.444	1	-3
470.637	1	5
471.830	1	3
473.023	1	7
474.215	1	9
475.408	1	5
476.601	1	10
477.793	1	6
478.986	1	-2
480.179	1	-5
481.371	1	15
482.564	1	4
483.756	1	5
484.948	1	4
486.141	1	9
487.333	1	-4
488.525	1	13
489.718	1	2
490.910	1	-3
492.102	1	11
493.294	1	5
494.486	1	14
495.678	1	9
496.870	1	12
498.062	1	2
499.254	1	17
500.446	1	1
501.638	1	5
502.829	1	2
504.021	1	-5
505.213	1	17
506.404	1	3
507.596	1	1
508.788	1	4
509.979	1	15
511.171	1	10
512.362	1	7
513.553	1	16
514.745	1	9
515.936	1	21
517.127	1	14
518.319	1	12
519.510	1	6
520.701	1	1
521.892	1	14
523.083	1	17
524.274	1	3
525.465	1	19
526.656	1	18
527.847	1	9
529.038	1	7
530.229	1	20
531.419	1	16
532.610	1	16
533.801	1	30
534.991	1	12
536.182	1	20
537.373	1	13
538.563	1	23
539.754	1	6
540.944	1	12
542.134	1	8
543.325	1	19
544.515	1	18
545.705	1	14
546.896	1	10
548.086	1	6
549.276	1	4
550.466	1	18
551.656	1	15
552.846	1	13
554.036	1	9
555.226	1	11
556.416	1	10
557.606	1	7
558.796	1	7
559.986	1	8
561.175	1	11
562.365	1	5
563.555	1	20
564.744	1	1
565.934	1	4
567.123	1	7
568.313	1	4
569.502	1	7
570.692	1	15
571.881	1	14
573.070	1	2
574.260	1	2
575.449	1	15
576.638	1	5
577.827	1	3
579.016	1	2
580.205	1	-6
581.394	1	-2
582.583	1	22
583.772	1	9
584.961	1	1
586.150	1	13
587.339	1	0
588.528	1	7
589.717	1	-1
590.905	1	12
592.094	1	6
593.283	1	-5
594.471	1	13
595.660	1	11
596.848	1	-4
598.037	1	5
599.225	1	8
600.413	1	11
601.602	1	2
602.790	1	7
603.978	1	7
605.166	1	6
606.355	1	16
607.543	1	8
608.731	1	2
609.919	1	6
611.107	1	7
612.295	1	7
613.483	1	-1
614.671	1	2
615.858	1	-4
617.046	1	8
618.234	1	2
619.422	1	8
620.609	1	2
621.797	1	2
622.985	1	6
624.172	1	4
625.360	1	2
626.547	1	7
627.735	1	16
628.922	1	-5
630.109	1	6
631.297	1	2
632.484	1	0
633.671	1	1
634.858	1	8
636.045	1	16
637.232	1	-2
638.419	1	-4
639.606	1	5
640.793	1	0
641.980	1	-1
643.167	1	10
644.354	1	5
645.541	1	4
646.728	1	5
647.914	1	-5
649.101	1	-5
650.288	1	16
651.474	1	-1
652.661	1	1
653.847	1	-2
655.034	1	5
656.220	1	1
657.406	1	6
658.593	1	5
659.779	1	3
660.965	1	3
662.152	1	1
663.338	1	7
664.524	1	4
665.710	1	-1
666.896	1	11
668.082	1	-1
669.268	1	-3
670.454	1	4
671.640	1	5
672.826	1	2
674.011	1	-2
675.197	1	4
676.383	1	9
677.569	1	9
678.754	1	5
679.940	1	0
681.125	1	8
682.311	1	0
683.496	1	-7
684.682	1	-3
685.867	1	5
687.053	1	7
688.238	1	13
688.746	1	2

File: GaN_sample F_spot6_UVVIS_130 K_200um_350 ms 2x2mm1_147.txt
340.368	1	7
341.565	1	5
342.763	1	5
343.960	1	-9
345.157	1	-5
346.354	1	1
347.552	1	-2
348.749	1	11
349.946	1	1
351.143	1	7
352.340	1	13
353.537	1	2
354.734	1	-5
355.931	1	7
357.127	1	16
358.324	1	1
359.521	1	2
360.718	1	17
361.914	1	16
363.111	1	27
364.308	1	34
365.504	1	35
366.701	1	39
367.897	1	41
369.093	1	37
370.290	1	38
371.486	1	31
372.682	1	23
373.879	1	28
375.075	1	28
376.271	1	17
377.467	1	20
378.663	1	22
379.859	1	8
381.055	1	14
382.251	1	5
383.447	1	15
384.643	1	15
385.839	1	12
387.035	1	21
388.230	1	9
389.426	1	15
390.622	1	20
391.817	1	16
393.013	1	14
394.208	1	7
395.404	1	1
396.599	1	11
397.795	1	6
398.990	1	5
400.186	1	6
401.381	1	6
402.576	1	10
403.771	1	2
404.967	1	0
406.162	1	6
407.357	1	13
408.552	1	5
409.747	1	4
410.942	1	9
412.137	1	1
413.332	1	0
414.526	1	5
415.721	1	14
416.916	1	7
418.111	1	5
419.305	1	1
420.500	1	11
421.695	1	-2
422.889	1	9
424.084	1	9
425.278	1	2
426.472	1	8
427.667	1	12
428.861	1	7
430.055	1	8
431.250	1	8
432.444	1	9
433.638	1	3
434.832	1	-5
436.026	1	12
437.220	1	-6
438.414	1	4
439.608	1	14
440.802	1	8
441.996	1	6
443.190	1	7
444.384	1	-4
445.578	1	-2
446.771	1	2
447.965	1	2
449.159	1	10
450.352	1	10
451.546	1	22
452.739	1	7
453.933	1	1
455.126	1	2
456.320	1	5
457.513	1	3
458.706	1	10
459.899	1	-5
461.093	1	9
462.286	1	6
463.479	1	13
464.672	1	6
465.865	1	-2
467.058	1	7
468.251	1	9
469.444	1	7
470.637	1	1
471.830	1	0
473.023	1	4
474.215	1	2
475.408	1	5
476.601	1	-1
477.793	1	3
478.986	1	0
480.179	1	-2
481.371	1	13
482.564	1	-7
483.756	1	1
484.948	1	0
486.141	1	5
487.333	1	9
488.525	1	1
489.718	1	12
490.910	1	1
492.102	1	12
493.294	1	12
494.486	1	14
495.678	1	0
496.870	1	13
498.062	1	-1
499.254	1	11
500.446	1	6
501.638	1	7
502.829	1	4
504.021	1	7
505.213	1	12
506.404	1	14
507.596	1	7
508.788	1	14
509.979	1	9
511.171	1	21
512.362	1	7
513.553	1	17
514.745	1	16
515.936	1	25
517.127	1	19
518.319	1	11
519.510	1	14
520.701	1	8
521.892	1	13
523.083	1	9
524.274	1	7
525.465	1	19
526.656	1	13
527.847	1	15
529.038	1	10
530.229	1	22
531.419	1	15
532.610	1	13
533.801	1	27
534.991	1	18
536.182	1	18
537.373	1	12
538.563	1	13
539.754	1	11
540.944	1	20
542.134	1	1
543.325	1	17
544.515	1	12
545.705	1	11
546.896	1	8
548.086	1	6
549.276	1	11
550.466	1	13
551.656	1	2
552.846	1	1
554.036	1	14
555.226	1	20
556.416	1	19
557.606	1	5
558.796	1	11
559.986	1	15
561.175	1	10
562.365	1	19
563.555	1	10
564.744	1	10
565.934	1	8
567.123	1	10
568.313	1	-3
569.502	1	5
570.692	1	9
571.881	1	12
573.070	1	15
574.260	1	15
575.449	1	7
576.638	1	3
577.827	1	5
579.016	1	-1
580.205	1	1
581.394	1	4
582.583	1	8
583.772	1	5
584.961	1	1
586.150	1	7
587.339	1	6
588.528	1	18
589.717	1	5
590.905	1	12
592.094	1	4
593.283	1	-1
594.471	1	9
595.660	1	6
596.848	1	8
598.037	1	4
599.225	1	-2
600.413	1	15
601.602	1	1
602.790	1	7
603.978	1	4
605.166	1	17
606.355	1	4
607.543	1	3
608.731	1	6
609.919	1	9
611.107	1	8
612.295	1	5
613.483	1	1
614.671	1	12
615.858	1	-2
617.046	1	0
618.234	1	-7
619.422	1	4
620.609	1	-11
621.797	1	3
622.985	1	5
624.172	1	7
625.360	1	-6
626.547	1	-2
627.735	1	16
628.922	1	-7
630.109	1	5
631.297	1	2
632.484	1	-8
633.671	1	-1
634.858	1	14
636.045	1	14
637.232	1	-2
638.419	1	8
639.606	1	8
640.793	1	-4
641.980	1	6
643.167	1	3
644.354	1	1
645.541	1	5
646.728	1	11
647.914	1	-6
649.101	1	-1
650.288	1	2
651.474	1	8
652.661	1	-4
653.847	1	-1
655.034	1	4
656.220	1	0
657.406	1	5
658.593	1	-1
659.779	1	7
660.965	1	3
662.152	1	2
663.338	1	8
664.524	1	1
665.710	1	7
666.896	1	3
668.082	1	6
669.268	1	-4
670.454	1	7
671.640	1	5
672.826	1	-2
674.011	1	6
675.197	1	-6
676.383	1	4
677.569	1	1
678.754	1	2
679.940	1	-2
681.125	1	8
682.311	1	-13
683.496	1	2
684.682	1	10
685.867	1	6
687.053	1	-1
688.238	1	19
688.746	1	7

File: GaN_sample F_spot6_UVVIS_130 K_200um_350 ms 2x2mm1_148.txt
340.368	1	2
341.565	1	1
342.763	1	5
343.960	1	-6
345.157	1	-1
346.354	1	10
347.552	1	10
348.749	1	5
349.946	1	10
351.143	1	-1
352.340	1	5
353.537	1	4
354.734	1	-1
355.931	1	11
357.127	1	7
358.324	1	8
359.521	1	4
360.718	1	14
361.914	1	10
363.111	1	30
364.308	1	33
365.504	1	24
366.701	1	35
367.897	1	34
369.093	1	46
370.290	1	43
371.486	1	25
372.682	1	24
373.879	1	31
375.075	1	28
376.271	1	19
377.467	1	25
378.663	1	26
379.859	1	13
381.055	1	13
382.251	1	18
383.447	1	20
384.643	1	13
385.839	1	6
387.035	1	15
388.230	1	6
389.426	1	13
390.622	1	14
391.817	1	17
393.013	1	4
394.208	1	-4
395.404	1	0
396.599	1	15
397.795	1	3
398.990	1	5
400.186	1	-1
401.381	1	8
402.576	1	3
403.771	1	14
404.967	1	-3
406.162	1	9
407.357	1	14
408.552	1	3
409.747	1	8
410.942	1	7
412.137	1	10
413.332	1	0
414.526	1	4
415.721	1	12
416.916	1	1
418.111	1	8
419.305	1	13
420.500	1	13
421.695	1	3
422.889	1	1
424.084	1	9
425.278	1	7
426.472	1	5
427.667	1	10
428.861	1	7
430.055	1	2
431.250	1	5
432.444	1	6
433.638	1	7
434.832	1	-2
436.026	1	-2
437.220	1	6
438.414	1	0
439.608	1	4
440.802	1	4
441.996	1	3
443.190	1	6
444.384	1	0
445.578	1	-3
446.771	1	2
447.965	1	-1
449.159	1	13
450.352	1	9
451.546	1	14
452.739	1	-7
453.933	1	6
455.126	1	-9
456.320	1	5
457.513	1	1
458.706	1	1
459.899	1	10
461.093	1	11
462.286	1	8
463.479	1	5
464.672	1	9
465.865	1	3
467.058	1	4
468.251	1	2
469.444	1	-5
470.637	1	2
471.830	1	14
473.023	1	19
474.215	1	-1
475.408	1	5
476.601	1	10
477.793	1	6
478.986	1	4
480.179	1	-2
481.371	1	7
482.564	1	0
483.756	1	-2
484.948	1	5
486.141	1	12
487.333	1	-7
488.525	1	6
489.718	1	0
490.910	1	2
492.102	1	14
493.294	1	13
494.486	1	15
495.678	1	7
496.870	1	8
498.062	1	1
499.254	1	12
500.446	1	6
501.638	1	5
502.829	1	3
504.021	1	-1
505.213	1	10
506.404	1	10
507.596	1	6
508.788	1	8
509.979	1	2
511.171	1	12
512.362	1	7
513.553	1	14
514.745	1	6
515.936	1	22
517.127	1	10
518.319	1	1
519.510	1	6
520.701	1	10
521.892	1	11
523.083	1	13
524.274	1	9
525.465	1	8
526.656	1	20
527.847	1	11
529.038	1	3
530.229	1	21
531.419	1	17
532.610	1	9
533.801	1	19
534.991	1	13
536.182	1	16
537.373	1	7
538.563	1	21
539.754	1	16
540.944	1	26
542.134	1	4
543.325	1	10
544.515	1	9
545.705	1	19
546.896	1	8
548.086	1	1
549.276	1	6
550.466	1	14
551.656	1	17
552.846	1	9
554.036	1	10
555.226	1	4
556.416	1	14
557.606	1	9
558.796	1	7
559.986	1	11
561.175	1	8
562.365	1	18
563.555	1	18
564.744	1	6
565.934	1	4
567.123	1	9
568.313	1	8
569.502	1	5
570.692	1	10
571.881	1	2
573.070	1	1
574.260	1	12
575.449	1	14
576.638	1	5
577.827	1	0
579.016	1	1
580.205	1	2
581.394	1	13
582.583	1	23
583.772	1	5
584.961	1	4
586.150	1	15
587.339	1	3
588.528	1	13
589.717	1	5
590.905	1	6
592.094	1	5
593.283	1	-3
594.471	1	10
595.660	1	5
596.848	1	17
598.037	1	8
599.225	1	-1
600.413	1	12
601.602	1	-4
602.790	1	-3
603.978	1	6
605.166	1	18
606.355	1	9
607.543	1	4
608.731	1	7
609.919	1	11
611.107	1	5
612.295	1	2
613.483	1	-2
614.671	1	2
615.858	1	4
617.046	1	13
618.234	1	4
619.422	1	8
620.609	1	-1
621.797	1	4
622.985	1	3
624.172	1	2
625.360	1	10
626.547	1	4
627.735	1	11
628.922	1	-3
630.109	1	12
631.297	1	0
632.484	1	-5
633.671	1	5
634.858	1	11
636.045	1	11
637.232	1	-4
638.419	1	-3
639.606	1	9
640.793	1	-5
641.980	1	2
643.167	1	6
644.354	1	1
645.541	1	-6
646.728	1	6
647.914	1	2
649.101	1	-6
650.288	1	2
651.474	1	7
652.661	1	0
653.847	1	8
655.034	1	3
656.220	1	1
657.406	1	7
658.593	1	8
659.779	1	1
660.965	1	-10
662.152	1	6
663.338	1	-1
664.524	1	-9
665.710	1	11
666.896	1	11
668.082	1	10
669.268	1	-5
670.454	1	4
671.640	1	-8
672.826	1	2
674.011	1	6
675.197	1	-2
676.383	1	4
677.569	1	4
678.754	1	-1
679.940	1	4
681.125	1	12
682.311	1	7
683.496	1	-3
684.682	1	8
685.867	1	-1
687.053	1	5
688.238	1	16
688.746	1	1

File: GaN_sample F_spot6_UVVIS_130 K_200um_350 ms 2x2mm1_149.txt
340.368	1	6
341.565	1	-10
342.763	1	6
343.960	1	-10
345.157	1	-10
346.354	1	5
347.552	1	8
348.749	1	-1
349.946	1	15
351.143	1	0
352.340	1	19
353.537	1	5
354.734	1	1
355.931	1	15
357.127	1	2
358.324	1	13
359.521	1	8
360.718	1	10
361.914	1	14
363.111	1	25
364.308	1	34
365.504	1	22
366.701	1	37
367.897	1	39
369.093	1	47
370.290	1	47
371.486	1	30
372.682	1	35
373.879	1	26
375.075	1	26
376.271	1	20
377.467	1	24
378.663	1	22
379.859	1	18
381.055	1	14
382.251	1	18
383.447	1	17
384.643	1	19
385.839	1	14
387.035	1	19
388.230	1	5
389.426	1	12
390.622	1	11
391.817	1	22
393.013	1	12
394.208	1	7
395.404	1	-2
396.599	1	23
397.795	1	6
398.990	1	-2
400.186	1	11
401.381	1	15
402.576	1	12
403.771	1	12
404.967	1	12
406.162	1	-4
407.357	1	9
408.552	1	-5
409.747	1	3
410.942	1	8
412.137	1	-2
413.332	1	7
414.526	1	9
415.721	1	7
416.916	1	8
418.111	1	5
419.305	1	8
420.500	1	14
421.695	1	10
422.889	1	7
424.084	1	12
425.278	1	3
426.472	1	11
427.667	1	15
428.861	1	4
430.055	1	-2
431.250	1	12
432.444	1	12
433.638	1	10
434.832	1	2
436.026	1	9
437.220	1	8
438.414	1	-7
439.608	1	15
440.802	1	0
441.996	1	12
443.190	1	10
444.384	1	3
445.578	1	-10
446.771	1	8
447.965	1	7
449.159	1	5
450.352	1	10
451.546	1	10
452.739	1	5
453.933	1	7
455.126	1	-4
456.320	1	-2
457.513	1	-5
458.706	1	9
459.899	1	-6
461.093	1	1
462.286	1	9
463.479	1	18
464.672	1	10
465.865	1	-8
467.058	1	6
468.251	1	11
469.444	1	-2
470.637	1	3
471.830	1	1
473.023	1	0
474.215	1	6
475.408	1	2
476.601	1	0
477.793	1	5
478.986	1	-7
480.179	1	2
481.371	1	9
482.564	1	-3
483.756	1	1
484.948	1	7
486.141	1	6
487.333	1	-6
488.525	1	7
489.718	1	11
490.910	1	-9
492.102	1	3
493.294	1	5
494.486	1	18
495.678	1	-2
496.870	1	11
498.062	1	1
499.254	1	10
500.446	1	17
501.638	1	7
502.829	1	7
504.021	1	7
505.213	1	12
506.404	1	18
507.596	1	3
508.788	1	5
509.979	1	2
511.171	1	18
512.362	1	14
513.553	1	17
514.745	1	11
515.936	1	19
517.127	1	10
518.319	1	12
519.510	1	8
520.701	1	6
521.892	1	24
523.083	1	19
524.274	1	6
525.465	1	16
526.656	1	12
527.847	1	14
529.038	1	-2
530.229	1	15
531.419	1	20
532.610	1	16
533.801	1	21
534.991	1	13
536.182	1	20
537.373	1	11
538.563	1	13
539.754	1	10
540.944	1	17
542.134	1	9
543.325	1	9
544.515	1	8
545.705	1	8
546.896	1	3
548.086	1	7
549.276	1	0
550.466	1	20
551.656	1	10
552.846	1	2
554.036	1	11
555.226	1	15
556.416	1	14
557.606	1	14
558.796	1	14
559.986	1	9
561.175	1	19
562.365	1	9
563.555	1	15
564.744	1	13
565.934	1	4
567.123	1	3
568.313	1	7
569.502	1	12
570.692	1	15
571.881	1	11
573.070	1	13
574.260	1	14
575.449	1	9
576.638	1	2
577.827	1	7
579.016	1	7
580.205	1	2
581.394	1	9
582.583	1	14
583.772	1	3
584.961	1	6
586.150	1	11
587.339	1	7
588.528	1	12
589.717	1	3
590.905	1	13
592.094	1	5
593.283	1	-8
594.471	1	6
595.660	1	7
596.848	1	7
598.037	1	12
599.225	1	1
600.413	1	14
601.602	1	3
602.790	1	6
603.978	1	4
605.166	1	10
606.355	1	13
607.543	1	1
608.731	1	3
609.919	1	8
611.107	1	3
612.295	1	15
613.483	1	-4
614.671	1	9
615.858	1	-5
617.046	1	11
618.234	1	1
619.422	1	8
620.609	1	3
621.797	1	8
622.985	1	4
624.172	1	0
625.360	1	1
626.547	1	3
627.735	1	12
628.922	1	1
630.109	1	1
631.297	1	-6
632.484	1	5
633.671	1	-1
634.858	1	6
636.045	1	11
637.232	1	2
638.419	1	-2
639.606	1	10
640.793	1	-5
641.980	1	-3
643.167	1	10
644.354	1	0
645.541	1	2
646.728	1	12
647.914	1	2
649.101	1	-7
650.288	1	11
651.474	1	3
652.661	1	-3
653.847	1	1
655.034	1	-1
656.220	1	-3
657.406	1	1
658.593	1	5
659.779	1	1
660.965	1	3
662.152	1	-4
663.338	1	7
664.524	1	-2
665.710	1	-1
666.896	1	2
668.082	1	7
669.268	1	2
670.454	1	-3
671.640	1	-5
672.826	1	1
674.011	1	5
675.197	1	-4
676.383	1	-1
677.569	1	4
678.754	1	6
679.940	1	0
681.125	1	15
682.311	1	-5
683.496	1	-6
684.682	1	-1
685.867	1	2
687.053	1	-4
688.238	1	14
688.746	1	8

File: GaN_sample F_spot6_UVVIS_130 K_200um_350 ms 2x2mm1_150.txt
340.368	1	6
341.565	1	0
342.763	1	0
343.960	1	-11
345.157	1	-8
346.354	1	11
347.552	1	0
348.749	1	5
349.946	1	-1
351.143	1	10
352.340	1	12
353.537	1	5
354.734	1	0
355.931	1	6
357.127	1	14
358.324	1	7
359.521	1	8
360.718	1	15
361.914	1	9
363.111	1	27
364.308	1	33
365.504	1	23
366.701	1	33
367.897	1	35
369.093	1	35
370.290	1	41
371.486	1	21
372.682	1	25
373.879	1	24
375.075	1	32
376.271	1	25
377.467	1	12
378.663	1	21
379.859	1	9
381.055	1	17
382.251	1	2
383.447	1	18
384.643	1	13
385.839	1	9
387.035	1	23
388.230	1	6
389.426	1	10
390.622	1	9
391.817	1	19
393.013	1	10
394.208	1	-3
395.404	1	-8
396.599	1	13
397.795	1	8
398.990	1	-2
400.186	1	5
401.381	1	3
402.576	1	9
403.771	1	15
404.967	1	3
406.162	1	1
407.357	1	2
408.552	1	2
409.747	1	6
410.942	1	9
412.137	1	9
413.332	1	2
414.526	1	7
415.721	1	7
416.916	1	-3
418.111	1	7
419.305	1	8
420.500	1	8
421.695	1	8
422.889	1	13
424.084	1	5
425.278	1	-1
426.472	1	5
427.667	1	4
428.861	1	2
430.055	1	6
431.250	1	8
432.444	1	11
433.638	1	7
434.832	1	5
436.026	1	10
437.220	1	0
438.414	1	15
439.608	1	8
440.802	1	-2
441.996	1	14
443.190	1	10
444.384	1	-5
445.578	1	-1
446.771	1	10
447.965	1	3
449.159	1	10
450.352	1	15
451.546	1	15
452.739	1	1
453.933	1	6
455.126	1	-6
456.320	1	5
457.513	1	2
458.706	1	6
459.899	1	0
461.093	1	8
462.286	1	3
463.479	1	11
464.672	1	3
465.865	1	-4
467.058	1	8
468.251	1	5
469.444	1	10
470.637	1	3
471.830	1	10
473.023	1	2
474.215	1	6
475.408	1	9
476.601	1	2
477.793	1	6
478.986	1	6
480.179	1	-7
481.371	1	9
482.564	1	1
483.756	1	-2
484.948	1	5
486.141	1	9
487.333	1	-1
488.525	1	15
489.718	1	0
490.910	1	-2
492.102	1	18
493.294	1	11
494.486	1	22
495.678	1	8
496.870	1	8
498.062	1	1
499.254	1	8
500.446	1	10
501.638	1	7
502.829	1	8
504.021	1	7
505.213	1	7
506.404	1	3
507.596	1	6
508.788	1	8
509.979	1	5
511.171	1	16
512.362	1	3
513.553	1	16
514.745	1	8
515.936	1	20
517.127	1	9
518.319	1	3
519.510	1	15
520.701	1	6
521.892	1	23
523.083	1	6
524.274	1	0
525.465	1	21
526.656	1	11
527.847	1	20
529.038	1	14
530.229	1	26
531.419	1	17
532.610	1	13
533.801	1	28
534.991	1	10
536.182	1	18
537.373	1	22
538.563	1	26
539.754	1	6
540.944	1	22
542.134	1	8
543.325	1	13
544.515	1	11
545.705	1	0
546.896	1	15
548.086	1	9
549.276	1	3
550.466	1	23
551.656	1	16
552.846	1	8
554.036	1	20
555.226	1	11
556.416	1	14
557.606	1	6
558.796	1	17
559.986	1	18
561.175	1	7
562.365	1	11
563.555	1	13
564.744	1	2
565.934	1	4
567.123	1	4
568.313	1	5
569.502	1	10
570.692	1	13
571.881	1	-2
573.070	1	3
574.260	1	4
575.449	1	12
576.638	1	3
577.827	1	-3
579.016	1	8
580.205	1	2
581.394	1	1
582.583	1	16
583.772	1	8
584.961	1	-2
586.150	1	9
587.339	1	4
588.528	1	9
589.717	1	2
590.905	1	7
592.094	1	2
593.283	1	-2
594.471	1	7
595.660	1	1
596.848	1	9
598.037	1	6
599.225	1	11
600.413	1	6
601.602	1	3
602.790	1	3
603.978	1	8
605.166	1	6
606.355	1	15
607.543	1	4
608.731	1	8
609.919	1	17
611.107	1	7
612.295	1	4
613.483	1	0
614.671	1	-1
615.858	1	2
617.046	1	5
618.234	1	-1
619.422	1	4
620.609	1	-6
621.797	1	4
622.985	1	6
624.172	1	1
625.360	1	9
626.547	1	-4
627.735	1	18
628.922	1	0
630.109	1	12
631.297	1	-5
632.484	1	2
633.671	1	-6
634.858	1	9
636.045	1	6
637.232	1	-4
638.419	1	2
639.606	1	6
640.793	1	-5
641.980	1	0
643.167	1	3
644.354	1	0
645.541	1	2
646.728	1	13
647.914	1	-1
649.101	1	-3
650.288	1	11
651.474	1	0
652.661	1	-4
653.847	1	3
655.034	1	2
656.220	1	0
657.406	1	9
658.593	1	6
659.779	1	-2
660.965	1	-1
662.152	1	-5
663.338	1	6
664.524	1	-4
665.710	1	2
666.896	1	4
668.082	1	10
669.268	1	1
670.454	1	1
671.640	1	-14
672.826	1	-2
674.011	1	9
675.197	1	1
676.383	1	6
677.569	1	9
678.754	1	12
679.940	1	1
681.125	1	8
682.311	1	-1
683.496	1	-3
684.682	1	-7
685.867	1	-1
687.053	1	3
688.238	1	8
688.746	1	8