Folder: cryo-il_analysis/Data/GaN_200K_800ms (part 44)

File: GaN_sample F_spot 12_UVVIS_200 K_200um_800 ms 2x2mm1_523.txt
340.368	1	3
341.565	1	-7
342.763	1	3
343.960	1	-5
345.157	1	-8
346.354	1	-1
347.552	1	-2
348.749	1	-10
349.946	1	0
351.143	1	-1
352.340	1	9
353.537	1	-6
354.734	1	-4
355.931	1	-6
357.127	1	-5
358.324	1	-2
359.521	1	6
360.718	1	5
361.914	1	6
363.111	1	-6
364.308	1	5
365.504	1	19
366.701	1	3
367.897	1	6
369.093	1	-3
370.290	1	-2
371.486	1	5
372.682	1	8
373.879	1	-2
375.075	1	1
376.271	1	13
377.467	1	-1
378.663	1	2
379.859	1	1
381.055	1	7
382.251	1	7
383.447	1	-3
384.643	1	3
385.839	1	1
387.035	1	-4
388.230	1	1
389.426	1	0
390.622	1	-7
391.817	1	-12
393.013	1	-4
394.208	1	2
395.404	1	-3
396.599	1	-7
397.795	1	-1
398.990	1	0
400.186	1	-4
401.381	1	-8
402.576	1	1
403.771	1	3
404.967	1	4
406.162	1	-7
407.357	1	0
408.552	1	-2
409.747	1	-3
410.942	1	8
412.137	1	2
413.332	1	2
414.526	1	0
415.721	1	3
416.916	1	-6
418.111	1	-2
419.305	1	-1
420.500	1	1
421.695	1	-1
422.889	1	-1
424.084	1	-7
425.278	1	15
426.472	1	-9
427.667	1	2
428.861	1	1
430.055	1	2
431.250	1	3
432.444	1	8
433.638	1	-3
434.832	1	1
436.026	1	6
437.220	1	-1
438.414	1	-17
439.608	1	-10
440.802	1	-6
441.996	1	4
443.190	1	2
444.384	1	-6
445.578	1	-12
446.771	1	12
447.965	1	0
449.159	1	-14
450.352	1	-2
451.546	1	-5
452.739	1	15
453.933	1	-3
455.126	1	-12
456.320	1	-1
457.513	1	6
458.706	1	-11
459.899	1	1
461.093	1	-14
462.286	1	-1
463.479	1	-1
464.672	1	3
465.865	1	-5
467.058	1	-1
468.251	1	-3
469.444	1	-7
470.637	1	-10
471.830	1	-5
473.023	1	5
474.215	1	-2
475.408	1	-8
476.601	1	-7
477.793	1	-6
478.986	1	-6
480.179	1	-2
481.371	1	-7
482.564	1	5
483.756	1	6
484.948	1	-8
486.141	1	-5
487.333	1	6
488.525	1	-8
489.718	1	-3
490.910	1	1
492.102	1	-4
493.294	1	-16
494.486	1	5
495.678	1	0
496.870	1	2
498.062	1	3
499.254	1	6
500.446	1	-3
501.638	1	-5
502.829	1	-5
504.021	1	-1
505.213	1	5
506.404	1	2
507.596	1	-6
508.788	1	19
509.979	1	-1
511.171	1	-1
512.362	1	-5
513.553	1	-12
514.745	1	-8
515.936	1	-5
517.127	1	2
518.319	1	2
519.510	1	2
520.701	1	-2
521.892	1	-4
523.083	1	-1
524.274	1	1
525.465	1	1
526.656	1	-3
527.847	1	2
529.038	1	-2
530.229	1	5
531.419	1	-3
532.610	1	-5
533.801	1	9
534.991	1	3
536.182	1	3
537.373	1	-3
538.563	1	-5
539.754	1	-2
540.944	1	-3
542.134	1	0
543.325	1	-3
544.515	1	-7
545.705	1	8
546.896	1	0
548.086	1	4
549.276	1	-7
550.466	1	5
551.656	1	11
552.846	1	-3
554.036	1	5
555.226	1	-5
556.416	1	-8
557.606	1	1
558.796	1	-4
559.986	1	-10
561.175	1	-6
562.365	1	7
563.555	1	-7
564.744	1	0
565.934	1	10
567.123	1	3
568.313	1	4
569.502	1	-6
570.692	1	4
571.881	1	7
573.070	1	0
574.260	1	6
575.449	1	-2
576.638	1	0
577.827	1	-8
579.016	1	7
580.205	1	-4
581.394	1	-8
582.583	1	10
583.772	1	6
584.961	1	7
586.150	1	-4
587.339	1	-2
588.528	1	-2
589.717	1	-3
590.905	1	3
592.094	1	-12
593.283	1	-5
594.471	1	8
595.660	1	2
596.848	1	0
598.037	1	-5
599.225	1	-7
600.413	1	4
601.602	1	8
602.790	1	6
603.978	1	-7
605.166	1	0
606.355	1	3
607.543	1	-3
608.731	1	-4
609.919	1	10
611.107	1	4
612.295	1	-7
613.483	1	1
614.671	1	1
615.858	1	2
617.046	1	4
618.234	1	-9
619.422	1	-8
620.609	1	1
621.797	1	-9
622.985	1	-9
624.172	1	-3
625.360	1	0
626.547	1	0
627.735	1	-5
628.922	1	7
630.109	1	-7
631.297	1	10
632.484	1	-12
633.671	1	-5
634.858	1	-9
636.045	1	9
637.232	1	-5
638.419	1	-10
639.606	1	1
640.793	1	13
641.980	1	5
643.167	1	-7
644.354	1	1
645.541	1	-5
646.728	1	3
647.914	1	-6
649.101	1	0
650.288	1	-1
651.474	1	-4
652.661	1	-11
653.847	1	4
655.034	1	-3
656.220	1	-9
657.406	1	-1
658.593	1	9
659.779	1	0
660.965	1	12
662.152	1	-3
663.338	1	2
664.524	1	2
665.710	1	-3
666.896	1	-5
668.082	1	-2
669.268	1	-3
670.454	1	4
671.640	1	-1
672.826	1	-2
674.011	1	-1
675.197	1	-2
676.383	1	3
677.569	1	-7
678.754	1	-7
679.940	1	-3
681.125	1	-1
682.311	1	5
683.496	1	-1
684.682	1	-7
685.867	1	-3
687.053	1	0
688.238	1	-1
688.746	1	0

File: GaN_sample F_spot 12_UVVIS_200 K_200um_800 ms 2x2mm1_525.txt
340.368	1	-1
341.565	1	-19
342.763	1	9
343.960	1	-2
345.157	1	0
346.354	1	-4
347.552	1	-6
348.749	1	-11
349.946	1	-11
351.143	1	-5
352.340	1	-1
353.537	1	0
354.734	1	-14
355.931	1	-1
357.127	1	-3
358.324	1	-5
359.521	1	2
360.718	1	4
361.914	1	5
363.111	1	-4
364.308	1	3
365.504	1	3
366.701	1	0
367.897	1	2
369.093	1	-3
370.290	1	1
371.486	1	7
372.682	1	3
373.879	1	-1
375.075	1	3
376.271	1	3
377.467	1	4
378.663	1	-2
379.859	1	3
381.055	1	7
382.251	1	2
383.447	1	-13
384.643	1	7
385.839	1	-6
387.035	1	3
388.230	1	8
389.426	1	-10
390.622	1	1
391.817	1	1
393.013	1	-4
394.208	1	1
395.404	1	-3
396.599	1	-8
397.795	1	1
398.990	1	5
400.186	1	-7
401.381	1	-6
402.576	1	-6
403.771	1	-1
404.967	1	1
406.162	1	0
407.357	1	-12
408.552	1	-3
409.747	1	0
410.942	1	8
412.137	1	-4
413.332	1	9
414.526	1	-3
415.721	1	0
416.916	1	-17
418.111	1	-3
419.305	1	6
420.500	1	-9
421.695	1	0
422.889	1	-6
424.084	1	-3
425.278	1	12
426.472	1	-2
427.667	1	6
428.861	1	-7
430.055	1	-1
431.250	1	2
432.444	1	3
433.638	1	-1
434.832	1	-3
436.026	1	-3
437.220	1	8
438.414	1	-12
439.608	1	-2
440.802	1	-7
441.996	1	4
443.190	1	6
444.384	1	-7
445.578	1	-8
446.771	1	3
447.965	1	-2
449.159	1	-8
450.352	1	-5
451.546	1	1
452.739	1	1
453.933	1	-1
455.126	1	-5
456.320	1	2
457.513	1	6
458.706	1	-9
459.899	1	-6
461.093	1	-4
462.286	1	-5
463.479	1	0
464.672	1	-4
465.865	1	3
467.058	1	-4
468.251	1	-8
469.444	1	-12
470.637	1	-9
471.830	1	-8
473.023	1	-2
474.215	1	9
475.408	1	4
476.601	1	-2
477.793	1	-7
478.986	1	0
480.179	1	-8
481.371	1	-3
482.564	1	-5
483.756	1	0
484.948	1	-12
486.141	1	-4
487.333	1	3
488.525	1	-5
489.718	1	-3
490.910	1	-4
492.102	1	-5
493.294	1	-7
494.486	1	6
495.678	1	-8
496.870	1	3
498.062	1	-8
499.254	1	-6
500.446	1	-5
501.638	1	1
502.829	1	-1
504.021	1	-2
505.213	1	1
506.404	1	-2
507.596	1	4
508.788	1	1
509.979	1	-11
511.171	1	-3
512.362	1	-6
513.553	1	-11
514.745	1	-8
515.936	1	-7
517.127	1	2
518.319	1	-1
519.510	1	-3
520.701	1	-1
521.892	1	0
523.083	1	0
524.274	1	-3
525.465	1	5
526.656	1	-5
527.847	1	3
529.038	1	0
530.229	1	8
531.419	1	5
532.610	1	-4
533.801	1	11
534.991	1	-4
536.182	1	0
537.373	1	-8
538.563	1	1
539.754	1	5
540.944	1	-3
542.134	1	-2
543.325	1	4
544.515	1	-9
545.705	1	2
546.896	1	4
548.086	1	-1
549.276	1	-6
550.466	1	3
551.656	1	5
552.846	1	2
554.036	1	-3
555.226	1	-3
556.416	1	-9
557.606	1	4
558.796	1	-8
559.986	1	0
561.175	1	5
562.365	1	-1
563.555	1	-1
564.744	1	0
565.934	1	2
567.123	1	-2
568.313	1	0
569.502	1	-6
570.692	1	-2
571.881	1	7
573.070	1	1
574.260	1	9
575.449	1	-7
576.638	1	-6
577.827	1	-11
579.016	1	4
580.205	1	1
581.394	1	-10
582.583	1	5
583.772	1	3
584.961	1	-1
586.150	1	-7
587.339	1	-6
588.528	1	4
589.717	1	14
590.905	1	-1
592.094	1	-4
593.283	1	4
594.471	1	2
595.660	1	-4
596.848	1	0
598.037	1	-5
599.225	1	-4
600.413	1	10
601.602	1	4
602.790	1	-8
603.978	1	-10
605.166	1	1
606.355	1	4
607.543	1	-10
608.731	1	-2
609.919	1	3
611.107	1	-5
612.295	1	-7
613.483	1	-8
614.671	1	0
615.858	1	5
617.046	1	-1
618.234	1	-4
619.422	1	-11
620.609	1	6
621.797	1	-5
622.985	1	4
624.172	1	-8
625.360	1	0
626.547	1	3
627.735	1	-1
628.922	1	-1
630.109	1	-6
631.297	1	-2
632.484	1	1
633.671	1	-3
634.858	1	-8
636.045	1	4
637.232	1	-9
638.419	1	-2
639.606	1	-2
640.793	1	7
641.980	1	-2
643.167	1	-11
644.354	1	7
645.541	1	4
646.728	1	-10
647.914	1	-5
649.101	1	-3
650.288	1	2
651.474	1	0
652.661	1	-9
653.847	1	9
655.034	1	-3
656.220	1	0
657.406	1	8
658.593	1	6
659.779	1	-3
660.965	1	6
662.152	1	1
663.338	1	3
664.524	1	-6
665.710	1	-4
666.896	1	-5
668.082	1	4
669.268	1	12
670.454	1	4
671.640	1	4
672.826	1	-4
674.011	1	-8
675.197	1	-12
676.383	1	-2
677.569	1	-8
678.754	1	-10
679.940	1	-4
681.125	1	5
682.311	1	4
683.496	1	-1
684.682	1	-9
685.867	1	10
687.053	1	-1
688.238	1	-1
688.746	1	4

File: GaN_sample F_spot 12_UVVIS_200 K_200um_800 ms 2x2mm1_531.txt
340.368	1	1
341.565	1	-19
342.763	1	2
343.960	1	5
345.157	1	-2
346.354	1	2
347.552	1	-9
348.749	1	-6
349.946	1	-5
351.143	1	-1
352.340	1	0
353.537	1	-2
354.734	1	-2
355.931	1	1
357.127	1	0
358.324	1	-4
359.521	1	7
360.718	1	-3
361.914	1	3
363.111	1	2
364.308	1	-5
365.504	1	10
366.701	1	8
367.897	1	7
369.093	1	-2
370.290	1	4
371.486	1	14
372.682	1	4
373.879	1	3
375.075	1	0
376.271	1	12
377.467	1	0
378.663	1	7
379.859	1	-3
381.055	1	12
382.251	1	-4
383.447	1	1
384.643	1	3
385.839	1	4
387.035	1	0
388.230	1	12
389.426	1	6
390.622	1	3
391.817	1	5
393.013	1	3
394.208	1	0
395.404	1	-3
396.599	1	-4
397.795	1	1
398.990	1	7
400.186	1	0
401.381	1	-9
402.576	1	1
403.771	1	-3
404.967	1	7
406.162	1	-1
407.357	1	-4
408.552	1	-3
409.747	1	1
410.942	1	9
412.137	1	10
413.332	1	-1
414.526	1	-1
415.721	1	-8
416.916	1	-6
418.111	1	-5
419.305	1	0
420.500	1	-8
421.695	1	3
422.889	1	-14
424.084	1	0
425.278	1	8
426.472	1	1
427.667	1	5
428.861	1	-9
430.055	1	1
431.250	1	-4
432.444	1	0
433.638	1	2
434.832	1	0
436.026	1	6
437.220	1	4
438.414	1	-6
439.608	1	-13
440.802	1	-8
441.996	1	-2
443.190	1	-1
444.384	1	-4
445.578	1	-9
446.771	1	5
447.965	1	4
449.159	1	-4
450.352	1	2
451.546	1	4
452.739	1	-5
453.933	1	-9
455.126	1	2
456.320	1	-2
457.513	1	3
458.706	1	4
459.899	1	-3
461.093	1	0
462.286	1	2
463.479	1	-7
464.672	1	1
465.865	1	-7
467.058	1	3
468.251	1	-1
469.444	1	-13
470.637	1	-2
471.830	1	3
473.023	1	5
474.215	1	4
475.408	1	-4
476.601	1	5
477.793	1	-6
478.986	1	1
480.179	1	9
481.371	1	6
482.564	1	10
483.756	1	13
484.948	1	-8
486.141	1	-3
487.333	1	1
488.525	1	6
489.718	1	-4
490.910	1	-6
492.102	1	2
493.294	1	-7
494.486	1	5
495.678	1	-4
496.870	1	-6
498.062	1	-3
499.254	1	-4
500.446	1	-11
501.638	1	2
502.829	1	2
504.021	1	6
505.213	1	2
506.404	1	0
507.596	1	-5
508.788	1	17
509.979	1	-10
511.171	1	3
512.362	1	-2
513.553	1	-4
514.745	1	-8
515.936	1	2
517.127	1	0
518.319	1	-6
519.510	1	2
520.701	1	1
521.892	1	3
523.083	1	-9
524.274	1	-2
525.465	1	8
526.656	1	-5
527.847	1	5
529.038	1	2
530.229	1	-1
531.419	1	4
532.610	1	-1
533.801	1	15
534.991	1	-2
536.182	1	2
537.373	1	1
538.563	1	12
539.754	1	4
540.944	1	-1
542.134	1	-1
543.325	1	2
544.515	1	-4
545.705	1	-9
546.896	1	-4
548.086	1	4
549.276	1	-1
550.466	1	-3
551.656	1	2
552.846	1	3
554.036	1	-1
555.226	1	-8
556.416	1	-4
557.606	1	2
558.796	1	-5
559.986	1	-3
561.175	1	-1
562.365	1	6
563.555	1	-4
564.744	1	2
565.934	1	1
567.123	1	6
568.313	1	1
569.502	1	6
570.692	1	5
571.881	1	9
573.070	1	7
574.260	1	11
575.449	1	-2
576.638	1	-7
577.827	1	-2
579.016	1	12
580.205	1	-9
581.394	1	-3
582.583	1	7
583.772	1	0
584.961	1	1
586.150	1	0
587.339	1	-8
588.528	1	-3
589.717	1	8
590.905	1	1
592.094	1	3
593.283	1	0
594.471	1	18
595.660	1	-1
596.848	1	-11
598.037	1	-7
599.225	1	-7
600.413	1	7
601.602	1	9
602.790	1	-3
603.978	1	5
605.166	1	3
606.355	1	-2
607.543	1	-3
608.731	1	-3
609.919	1	12
611.107	1	-2
612.295	1	-14
613.483	1	6
614.671	1	-7
615.858	1	4
617.046	1	0
618.234	1	-3
619.422	1	-7
620.609	1	7
621.797	1	-2
622.985	1	-2
624.172	1	-1
625.360	1	-2
626.547	1	-1
627.735	1	0
628.922	1	5
630.109	1	-2
631.297	1	-4
632.484	1	-9
633.671	1	-1
634.858	1	3
636.045	1	13
637.232	1	-5
638.419	1	-14
639.606	1	13
640.793	1	2
641.980	1	0
643.167	1	-3
644.354	1	2
645.541	1	-3
646.728	1	0
647.914	1	-1
649.101	1	-4
650.288	1	6
651.474	1	-6
652.661	1	-6
653.847	1	3
655.034	1	4
656.220	1	-8
657.406	1	3
658.593	1	-3
659.779	1	-5
660.965	1	9
662.152	1	4
663.338	1	2
664.524	1	10
665.710	1	4
666.896	1	-10
668.082	1	2
669.268	1	-7
670.454	1	6
671.640	1	1
672.826	1	-4
674.011	1	2
675.197	1	-8
676.383	1	4
677.569	1	-1
678.754	1	-11
679.940	1	-4
681.125	1	7
682.311	1	6
683.496	1	-5
684.682	1	1
685.867	1	7
687.053	1	-9
688.238	1	2
688.746	1	-4

File: GaN_sample F_spot 12_UVVIS_200 K_200um_800 ms 2x2mm1_538.txt
340.368	1	-3
341.565	1	-15
342.763	1	8
343.960	1	2
345.157	1	-10
346.354	1	3
347.552	1	-6
348.749	1	-7
349.946	1	-11
351.143	1	-2
352.340	1	3
353.537	1	-1
354.734	1	8
355.931	1	-3
357.127	1	-1
358.324	1	-10
359.521	1	6
360.718	1	-2
361.914	1	1
363.111	1	0
364.308	1	4
365.504	1	17
366.701	1	2
367.897	1	7
369.093	1	2
370.290	1	5
371.486	1	9
372.682	1	0
373.879	1	6
375.075	1	-6
376.271	1	10
377.467	1	4
378.663	1	-1
379.859	1	-4
381.055	1	9
382.251	1	-3
383.447	1	2
384.643	1	3
385.839	1	-3
387.035	1	0
388.230	1	-2
389.426	1	-3
390.622	1	-1
391.817	1	3
393.013	1	-8
394.208	1	-1
395.404	1	-11
396.599	1	-10
397.795	1	1
398.990	1	-4
400.186	1	-7
401.381	1	1
402.576	1	1
403.771	1	2
404.967	1	-6
406.162	1	-6
407.357	1	-8
408.552	1	-3
409.747	1	4
410.942	1	14
412.137	1	1
413.332	1	1
414.526	1	-6
415.721	1	-1
416.916	1	-11
418.111	1	-8
419.305	1	2
420.500	1	-3
421.695	1	1
422.889	1	-3
424.084	1	0
425.278	1	11
426.472	1	1
427.667	1	4
428.861	1	-5
430.055	1	5
431.250	1	-4
432.444	1	0
433.638	1	-11
434.832	1	1
436.026	1	0
437.220	1	-6
438.414	1	-8
439.608	1	-13
440.802	1	-5
441.996	1	-6
443.190	1	-5
444.384	1	-3
445.578	1	-8
446.771	1	7
447.965	1	1
449.159	1	-11
450.352	1	-5
451.546	1	-9
452.739	1	6
453.933	1	2
455.126	1	-3
456.320	1	0
457.513	1	3
458.706	1	-1
459.899	1	-6
461.093	1	-3
462.286	1	0
463.479	1	-11
464.672	1	-8
465.865	1	-2
467.058	1	-3
468.251	1	0
469.444	1	-6
470.637	1	6
471.830	1	-4
473.023	1	4
474.215	1	13
475.408	1	3
476.601	1	-4
477.793	1	-7
478.986	1	0
480.179	1	-3
481.371	1	-2
482.564	1	-6
483.756	1	12
484.948	1	-6
486.141	1	-2
487.333	1	6
488.525	1	0
489.718	1	2
490.910	1	5
492.102	1	-2
493.294	1	-4
494.486	1	5
495.678	1	1
496.870	1	1
498.062	1	-11
499.254	1	-3
500.446	1	-12
501.638	1	4
502.829	1	2
504.021	1	-1
505.213	1	8
506.404	1	-5
507.596	1	-5
508.788	1	14
509.979	1	2
511.171	1	-11
512.362	1	-2
513.553	1	-7
514.745	1	7
515.936	1	-3
517.127	1	-2
518.319	1	-2
519.510	1	3
520.701	1	-1
521.892	1	5
523.083	1	-10
524.274	1	-2
525.465	1	4
526.656	1	-4
527.847	1	-5
529.038	1	3
530.229	1	4
531.419	1	-2
532.610	1	-3
533.801	1	9
534.991	1	-5
536.182	1	-9
537.373	1	-3
538.563	1	8
539.754	1	9
540.944	1	-1
542.134	1	2
543.325	1	2
544.515	1	-4
545.705	1	2
546.896	1	2
548.086	1	-6
549.276	1	3
550.466	1	3
551.656	1	2
552.846	1	-10
554.036	1	-3
555.226	1	-11
556.416	1	-7
557.606	1	9
558.796	1	3
559.986	1	-10
561.175	1	5
562.365	1	16
563.555	1	1
564.744	1	3
565.934	1	11
567.123	1	10
568.313	1	9
569.502	1	-2
570.692	1	7
571.881	1	14
573.070	1	2
574.260	1	4
575.449	1	2
576.638	1	-7
577.827	1	-12
579.016	1	0
580.205	1	-6
581.394	1	-7
582.583	1	1
583.772	1	11
584.961	1	4
586.150	1	1
587.339	1	3
588.528	1	-5
589.717	1	-1
590.905	1	-9
592.094	1	-3
593.283	1	4
594.471	1	2
595.660	1	-3
596.848	1	9
598.037	1	-12
599.225	1	-11
600.413	1	9
601.602	1	14
602.790	1	-11
603.978	1	-3
605.166	1	9
606.355	1	1
607.543	1	-1
608.731	1	4
609.919	1	11
611.107	1	-6
612.295	1	-5
613.483	1	-10
614.671	1	0
615.858	1	11
617.046	1	3
618.234	1	3
619.422	1	-7
620.609	1	3
621.797	1	-7
622.985	1	-2
624.172	1	-2
625.360	1	-4
626.547	1	3
627.735	1	4
628.922	1	0
630.109	1	-11
631.297	1	-4
632.484	1	-12
633.671	1	-1
634.858	1	-4
636.045	1	4
637.232	1	-5
638.419	1	-11
639.606	1	1
640.793	1	5
641.980	1	11
643.167	1	-8
644.354	1	-2
645.541	1	-1
646.728	1	-1
647.914	1	1
649.101	1	-6
650.288	1	6
651.474	1	-12
652.661	1	-6
653.847	1	2
655.034	1	-5
656.220	1	-11
657.406	1	-3
658.593	1	6
659.779	1	-7
660.965	1	4
662.152	1	-2
663.338	1	-1
664.524	1	-3
665.710	1	3
666.896	1	-6
668.082	1	-3
669.268	1	-4
670.454	1	3
671.640	1	4
672.826	1	-2
674.011	1	5
675.197	1	-11
676.383	1	2
677.569	1	-1
678.754	1	-4
679.940	1	-9
681.125	1	4
682.311	1	1
683.496	1	8
684.682	1	-11
685.867	1	0
687.053	1	1
688.238	1	6
688.746	1	-1

File: GaN_sample F_spot 12_UVVIS_200 K_200um_800 ms 2x2mm1_539.txt
340.368	1	2
341.565	1	-19
342.763	1	4
343.960	1	7
345.157	1	-7
346.354	1	2
347.552	1	-6
348.749	1	-6
349.946	1	-4
351.143	1	-1
352.340	1	8
353.537	1	3
354.734	1	-1
355.931	1	-4
357.127	1	-1
358.324	1	-2
359.521	1	5
360.718	1	-4
361.914	1	1
363.111	1	0
364.308	1	6
365.504	1	7
366.701	1	0
367.897	1	6
369.093	1	1
370.290	1	-3
371.486	1	6
372.682	1	10
373.879	1	-6
375.075	1	4
376.271	1	-5
377.467	1	6
378.663	1	-5
379.859	1	0
381.055	1	11
382.251	1	-3
383.447	1	-5
384.643	1	4
385.839	1	-6
387.035	1	-2
388.230	1	7
389.426	1	-7
390.622	1	-6
391.817	1	-4
393.013	1	-3
394.208	1	0
395.404	1	-6
396.599	1	9
397.795	1	1
398.990	1	5
400.186	1	1
401.381	1	-7
402.576	1	-4
403.771	1	2
404.967	1	-1
406.162	1	1
407.357	1	-3
408.552	1	-6
409.747	1	-4
410.942	1	5
412.137	1	2
413.332	1	3
414.526	1	3
415.721	1	-7
416.916	1	-5
418.111	1	0
419.305	1	0
420.500	1	1
421.695	1	-4
422.889	1	-10
424.084	1	0
425.278	1	12
426.472	1	4
427.667	1	7
428.861	1	3
430.055	1	-3
431.250	1	-6
432.444	1	9
433.638	1	0
434.832	1	-1
436.026	1	-4
437.220	1	7
438.414	1	-10
439.608	1	-13
440.802	1	-4
441.996	1	10
443.190	1	2
444.384	1	-16
445.578	1	-8
446.771	1	12
447.965	1	2
449.159	1	-4
450.352	1	-2
451.546	1	1
452.739	1	-5
453.933	1	0
455.126	1	-10
456.320	1	5
457.513	1	12
458.706	1	0
459.899	1	-5
461.093	1	-5
462.286	1	1
463.479	1	-5
464.672	1	4
465.865	1	-6
467.058	1	-7
468.251	1	-2
469.444	1	-10
470.637	1	-10
471.830	1	-1
473.023	1	-1
474.215	1	11
475.408	1	-8
476.601	1	-4
477.793	1	0
478.986	1	-6
480.179	1	1
481.371	1	7
482.564	1	-11
483.756	1	4
484.948	1	-5
486.141	1	-6
487.333	1	5
488.525	1	3
489.718	1	-2
490.910	1	-2
492.102	1	-2
493.294	1	-5
494.486	1	5
495.678	1	-6
496.870	1	0
498.062	1	5
499.254	1	1
500.446	1	-1
501.638	1	-1
502.829	1	0
504.021	1	2
505.213	1	2
506.404	1	-2
507.596	1	-3
508.788	1	13
509.979	1	0
511.171	1	-5
512.362	1	-14
513.553	1	-10
514.745	1	0
515.936	1	-6
517.127	1	5
518.319	1	-6
519.510	1	1
520.701	1	-5
521.892	1	-3
523.083	1	-2
524.274	1	-2
525.465	1	3
526.656	1	-3
527.847	1	3
529.038	1	-2
530.229	1	6
531.419	1	7
532.610	1	-7
533.801	1	8
534.991	1	2
536.182	1	-10
537.373	1	2
538.563	1	15
539.754	1	1
540.944	1	-2
542.134	1	7
543.325	1	-6
544.515	1	-3
545.705	1	1
546.896	1	-6
548.086	1	5
549.276	1	-3
550.466	1	-8
551.656	1	-6
552.846	1	4
554.036	1	-2
555.226	1	-8
556.416	1	-3
557.606	1	-3
558.796	1	-11
559.986	1	-10
561.175	1	3
562.365	1	2
563.555	1	0
564.744	1	2
565.934	1	3
567.123	1	3
568.313	1	-3
569.502	1	-8
570.692	1	7
571.881	1	10
573.070	1	-1
574.260	1	11
575.449	1	-6
576.638	1	-1
577.827	1	-6
579.016	1	4
580.205	1	-1
581.394	1	-1
582.583	1	2
583.772	1	4
584.961	1	-2
586.150	1	-3
587.339	1	-8
588.528	1	0
589.717	1	-2
590.905	1	-8
592.094	1	0
593.283	1	-1
594.471	1	10
595.660	1	5
596.848	1	3
598.037	1	-1
599.225	1	-11
600.413	1	12
601.602	1	20
602.790	1	-3
603.978	1	-13
605.166	1	-5
606.355	1	3
607.543	1	-5
608.731	1	-2
609.919	1	5
611.107	1	-3
612.295	1	-3
613.483	1	1
614.671	1	1
615.858	1	-1
617.046	1	1
618.234	1	-3
619.422	1	-11
620.609	1	-2
621.797	1	-5
622.985	1	-1
624.172	1	3
625.360	1	1
626.547	1	-3
627.735	1	1
628.922	1	-1
630.109	1	-10
631.297	1	-1
632.484	1	-5
633.671	1	-1
634.858	1	5
636.045	1	15
637.232	1	0
638.419	1	1
639.606	1	-3
640.793	1	14
641.980	1	10
643.167	1	-5
644.354	1	2
645.541	1	-8
646.728	1	-5
647.914	1	-6
649.101	1	-4
650.288	1	12
651.474	1	-5
652.661	1	-7
653.847	1	4
655.034	1	3
656.220	1	-7
657.406	1	-7
658.593	1	5
659.779	1	2
660.965	1	0
662.152	1	3
663.338	1	8
664.524	1	-1
665.710	1	7
666.896	1	-4
668.082	1	3
669.268	1	-6
670.454	1	-1
671.640	1	-4
672.826	1	1
674.011	1	-5
675.197	1	-14
676.383	1	-4
677.569	1	-10
678.754	1	-10
679.940	1	-2
681.125	1	0
682.311	1	1
683.496	1	0
684.682	1	-14
685.867	1	-1
687.053	1	5
688.238	1	-5
688.746	1	7

File: GaN_sample F_spot 12_UVVIS_200 K_200um_800 ms 2x2mm1_540.txt
340.368	1	-2
341.565	1	-10
342.763	1	6
343.960	1	7
345.157	1	-8
346.354	1	-4
347.552	1	-5
348.749	1	-10
349.946	1	-11
351.143	1	-3
352.340	1	-2
353.537	1	2
354.734	1	7
355.931	1	-5
357.127	1	8
358.324	1	-4
359.521	1	9
360.718	1	-2
361.914	1	4
363.111	1	0
364.308	1	7
365.504	1	7
366.701	1	2
367.897	1	11
369.093	1	5
370.290	1	-2
371.486	1	9
372.682	1	3
373.879	1	-3
375.075	1	-4
376.271	1	6
377.467	1	6
378.663	1	-6
379.859	1	3
381.055	1	5
382.251	1	-3
383.447	1	-4
384.643	1	5
385.839	1	-3
387.035	1	1
388.230	1	-2
389.426	1	-5
390.622	1	-5
391.817	1	-3
393.013	1	3
394.208	1	-2
395.404	1	-6
396.599	1	-8
397.795	1	4
398.990	1	-3
400.186	1	-1
401.381	1	-2
402.576	1	-6
403.771	1	-3
404.967	1	6
406.162	1	-2
407.357	1	-8
408.552	1	-6
409.747	1	0
410.942	1	0
412.137	1	8
413.332	1	4
414.526	1	-3
415.721	1	6
416.916	1	-1
418.111	1	5
419.305	1	5
420.500	1	-5
421.695	1	-10
422.889	1	-12
424.084	1	-2
425.278	1	5
426.472	1	3
427.667	1	7
428.861	1	-1
430.055	1	5
431.250	1	-5
432.444	1	9
433.638	1	-7
434.832	1	-3
436.026	1	1
437.220	1	2
438.414	1	-9
439.608	1	-13
440.802	1	-13
441.996	1	3
443.190	1	-2
444.384	1	-5
445.578	1	-16
446.771	1	-2
447.965	1	0
449.159	1	-12
450.352	1	0
451.546	1	4
452.739	1	4
453.933	1	-5
455.126	1	-8
456.320	1	-4
457.513	1	6
458.706	1	-1
459.899	1	2
461.093	1	3
462.286	1	-8
463.479	1	-6
464.672	1	0
465.865	1	-1
467.058	1	1
468.251	1	1
469.444	1	-6
470.637	1	13
471.830	1	-8
473.023	1	-1
474.215	1	13
475.408	1	1
476.601	1	-2
477.793	1	3
478.986	1	-2
480.179	1	1
481.371	1	2
482.564	1	-1
483.756	1	12
484.948	1	-11
486.141	1	-6
487.333	1	-4
488.525	1	2
489.718	1	-5
490.910	1	-1
492.102	1	0
493.294	1	-4
494.486	1	1
495.678	1	2
496.870	1	6
498.062	1	-1
499.254	1	1
500.446	1	-13
501.638	1	-8
502.829	1	2
504.021	1	-8
505.213	1	14
506.404	1	-9
507.596	1	6
508.788	1	17
509.979	1	1
511.171	1	-10
512.362	1	-9
513.553	1	-13
514.745	1	-11
515.936	1	-3
517.127	1	-8
518.319	1	0
519.510	1	-1
520.701	1	2
521.892	1	0
523.083	1	-5
524.274	1	-1
525.465	1	3
526.656	1	1
527.847	1	11
529.038	1	-8
530.229	1	-3
531.419	1	2
532.610	1	-2
533.801	1	12
534.991	1	2
536.182	1	2
537.373	1	5
538.563	1	2
539.754	1	0
540.944	1	0
542.134	1	-1
543.325	1	-4
544.515	1	-8
545.705	1	-7
546.896	1	-4
548.086	1	-9
549.276	1	3
550.466	1	0
551.656	1	-4
552.846	1	-4
554.036	1	6
555.226	1	-7
556.416	1	-16
557.606	1	3
558.796	1	5
559.986	1	-10
561.175	1	5
562.365	1	1
563.555	1	-5
564.744	1	1
565.934	1	7
567.123	1	4
568.313	1	1
569.502	1	-1
570.692	1	10
571.881	1	18
573.070	1	0
574.260	1	2
575.449	1	-2
576.638	1	0
577.827	1	-1
579.016	1	4
580.205	1	-3
581.394	1	-9
582.583	1	15
583.772	1	1
584.961	1	5
586.150	1	-6
587.339	1	4
588.528	1	8
589.717	1	2
590.905	1	-6
592.094	1	3
593.283	1	3
594.471	1	12
595.660	1	4
596.848	1	1
598.037	1	4
599.225	1	-16
600.413	1	5
601.602	1	13
602.790	1	1
603.978	1	-1
605.166	1	6
606.355	1	2
607.543	1	-19
608.731	1	-3
609.919	1	13
611.107	1	-2
612.295	1	-6
613.483	1	1
614.671	1	7
615.858	1	2
617.046	1	-5
618.234	1	-5
619.422	1	-10
620.609	1	1
621.797	1	3
622.985	1	-9
624.172	1	-12
625.360	1	2
626.547	1	1
627.735	1	3
628.922	1	-3
630.109	1	-11
631.297	1	-5
632.484	1	-1
633.671	1	-7
634.858	1	-3
636.045	1	15
637.232	1	2
638.419	1	-5
639.606	1	4
640.793	1	-3
641.980	1	16
643.167	1	-6
644.354	1	-9
645.541	1	2
646.728	1	-1
647.914	1	-3
649.101	1	-1
650.288	1	0
651.474	1	-7
652.661	1	-3
653.847	1	0
655.034	1	4
656.220	1	-13
657.406	1	6
658.593	1	1
659.779	1	-3
660.965	1	-1
662.152	1	3
663.338	1	0
664.524	1	2
665.710	1	-3
666.896	1	-2
668.082	1	6
669.268	1	-8
670.454	1	1
671.640	1	-5
672.826	1	-4
674.011	1	1
675.197	1	-12
676.383	1	-2
677.569	1	1
678.754	1	-6
679.940	1	3
681.125	1	0
682.311	1	4
683.496	1	-2
684.682	1	-3
685.867	1	-2
687.053	1	5
688.238	1	4
688.746	1	1