Folder: cryo-il_analysis/Data/GaN_200K_800ms (part 22)

File: GaN_sample F_spot 12_UVVIS_200 K_200um_800 ms 2x2mm1_187.txt
340.368	1	5
341.565	1	-9
342.763	1	2
343.960	1	1
345.157	1	-9
346.354	1	-2
347.552	1	0
348.749	1	-7
349.946	1	-4
351.143	1	3
352.340	1	9
353.537	1	8
354.734	1	14
355.931	1	1
357.127	1	11
358.324	1	-3
359.521	1	12
360.718	1	9
361.914	1	16
363.111	1	11
364.308	1	10
365.504	1	28
366.701	1	26
367.897	1	36
369.093	1	23
370.290	1	23
371.486	1	45
372.682	1	30
373.879	1	30
375.075	1	22
376.271	1	27
377.467	1	7
378.663	1	14
379.859	1	7
381.055	1	11
382.251	1	0
383.447	1	7
384.643	1	14
385.839	1	-2
387.035	1	12
388.230	1	13
389.426	1	-4
390.622	1	0
391.817	1	10
393.013	1	-1
394.208	1	0
395.404	1	-3
396.599	1	-3
397.795	1	-2
398.990	1	-2
400.186	1	-5
401.381	1	-2
402.576	1	4
403.771	1	0
404.967	1	2
406.162	1	7
407.357	1	-5
408.552	1	5
409.747	1	5
410.942	1	4
412.137	1	1
413.332	1	8
414.526	1	7
415.721	1	-9
416.916	1	-1
418.111	1	2
419.305	1	6
420.500	1	-10
421.695	1	5
422.889	1	-7
424.084	1	7
425.278	1	8
426.472	1	3
427.667	1	3
428.861	1	-3
430.055	1	5
431.250	1	1
432.444	1	5
433.638	1	2
434.832	1	9
436.026	1	1
437.220	1	-1
438.414	1	-2
439.608	1	-8
440.802	1	0
441.996	1	6
443.190	1	10
444.384	1	-5
445.578	1	-16
446.771	1	12
447.965	1	2
449.159	1	-7
450.352	1	-7
451.546	1	11
452.739	1	8
453.933	1	-3
455.126	1	-9
456.320	1	-3
457.513	1	10
458.706	1	12
459.899	1	-3
461.093	1	2
462.286	1	8
463.479	1	-6
464.672	1	-1
465.865	1	-1
467.058	1	1
468.251	1	5
469.444	1	-6
470.637	1	0
471.830	1	3
473.023	1	3
474.215	1	-2
475.408	1	6
476.601	1	5
477.793	1	2
478.986	1	1
480.179	1	3
481.371	1	0
482.564	1	-3
483.756	1	11
484.948	1	-15
486.141	1	-3
487.333	1	0
488.525	1	-4
489.718	1	3
490.910	1	3
492.102	1	-5
493.294	1	-6
494.486	1	12
495.678	1	-1
496.870	1	4
498.062	1	-1
499.254	1	-5
500.446	1	-12
501.638	1	-4
502.829	1	2
504.021	1	-2
505.213	1	11
506.404	1	11
507.596	1	4
508.788	1	14
509.979	1	2
511.171	1	-2
512.362	1	-1
513.553	1	-5
514.745	1	0
515.936	1	-3
517.127	1	6
518.319	1	4
519.510	1	-7
520.701	1	1
521.892	1	3
523.083	1	0
524.274	1	7
525.465	1	11
526.656	1	-2
527.847	1	-4
529.038	1	-3
530.229	1	-1
531.419	1	0
532.610	1	0
533.801	1	11
534.991	1	5
536.182	1	2
537.373	1	2
538.563	1	-1
539.754	1	4
540.944	1	2
542.134	1	15
543.325	1	0
544.515	1	-3
545.705	1	-5
546.896	1	-2
548.086	1	7
549.276	1	-6
550.466	1	-9
551.656	1	5
552.846	1	1
554.036	1	2
555.226	1	-6
556.416	1	1
557.606	1	8
558.796	1	1
559.986	1	-2
561.175	1	1
562.365	1	4
563.555	1	-5
564.744	1	9
565.934	1	9
567.123	1	5
568.313	1	10
569.502	1	2
570.692	1	9
571.881	1	7
573.070	1	2
574.260	1	14
575.449	1	2
576.638	1	-3
577.827	1	8
579.016	1	0
580.205	1	1
581.394	1	-5
582.583	1	9
583.772	1	6
584.961	1	7
586.150	1	0
587.339	1	7
588.528	1	8
589.717	1	3
590.905	1	1
592.094	1	2
593.283	1	0
594.471	1	6
595.660	1	5
596.848	1	0
598.037	1	4
599.225	1	-7
600.413	1	11
601.602	1	17
602.790	1	9
603.978	1	1
605.166	1	7
606.355	1	11
607.543	1	-2
608.731	1	8
609.919	1	15
611.107	1	3
612.295	1	1
613.483	1	0
614.671	1	4
615.858	1	3
617.046	1	1
618.234	1	1
619.422	1	-5
620.609	1	8
621.797	1	-12
622.985	1	-5
624.172	1	6
625.360	1	3
626.547	1	3
627.735	1	3
628.922	1	3
630.109	1	-13
631.297	1	8
632.484	1	1
633.671	1	-10
634.858	1	2
636.045	1	9
637.232	1	-1
638.419	1	-2
639.606	1	2
640.793	1	10
641.980	1	4
643.167	1	-2
644.354	1	-2
645.541	1	2
646.728	1	0
647.914	1	-3
649.101	1	4
650.288	1	1
651.474	1	10
652.661	1	2
653.847	1	8
655.034	1	10
656.220	1	1
657.406	1	6
658.593	1	5
659.779	1	9
660.965	1	6
662.152	1	8
663.338	1	7
664.524	1	-3
665.710	1	1
666.896	1	-1
668.082	1	12
669.268	1	-9
670.454	1	-2
671.640	1	7
672.826	1	-4
674.011	1	-5
675.197	1	-5
676.383	1	4
677.569	1	-2
678.754	1	-13
679.940	1	-3
681.125	1	13
682.311	1	1
683.496	1	8
684.682	1	-3
685.867	1	-3
687.053	1	-2
688.238	1	9
688.746	1	-2

File: GaN_sample F_spot 12_UVVIS_200 K_200um_800 ms 2x2mm1_190.txt
340.368	1	-1
341.565	1	-5
342.763	1	10
343.960	1	5
345.157	1	-11
346.354	1	4
347.552	1	-7
348.749	1	3
349.946	1	-4
351.143	1	-2
352.340	1	5
353.537	1	5
354.734	1	11
355.931	1	5
357.127	1	-1
358.324	1	1
359.521	1	5
360.718	1	9
361.914	1	12
363.111	1	1
364.308	1	12
365.504	1	23
366.701	1	20
367.897	1	28
369.093	1	36
370.290	1	33
371.486	1	47
372.682	1	33
373.879	1	32
375.075	1	17
376.271	1	17
377.467	1	14
378.663	1	9
379.859	1	9
381.055	1	13
382.251	1	10
383.447	1	8
384.643	1	14
385.839	1	6
387.035	1	9
388.230	1	7
389.426	1	-1
390.622	1	2
391.817	1	3
393.013	1	0
394.208	1	5
395.404	1	-9
396.599	1	-4
397.795	1	3
398.990	1	12
400.186	1	1
401.381	1	-7
402.576	1	-2
403.771	1	2
404.967	1	1
406.162	1	3
407.357	1	-4
408.552	1	0
409.747	1	3
410.942	1	3
412.137	1	11
413.332	1	5
414.526	1	1
415.721	1	-5
416.916	1	1
418.111	1	1
419.305	1	11
420.500	1	-2
421.695	1	1
422.889	1	-9
424.084	1	0
425.278	1	17
426.472	1	-8
427.667	1	4
428.861	1	1
430.055	1	2
431.250	1	1
432.444	1	6
433.638	1	0
434.832	1	9
436.026	1	-3
437.220	1	8
438.414	1	-8
439.608	1	-11
440.802	1	-4
441.996	1	-2
443.190	1	7
444.384	1	-9
445.578	1	-2
446.771	1	6
447.965	1	-6
449.159	1	1
450.352	1	-2
451.546	1	2
452.739	1	1
453.933	1	0
455.126	1	6
456.320	1	-2
457.513	1	0
458.706	1	-3
459.899	1	-6
461.093	1	-5
462.286	1	4
463.479	1	-1
464.672	1	2
465.865	1	-6
467.058	1	0
468.251	1	-1
469.444	1	1
470.637	1	9
471.830	1	-1
473.023	1	-1
474.215	1	7
475.408	1	3
476.601	1	2
477.793	1	2
478.986	1	-2
480.179	1	-6
481.371	1	1
482.564	1	4
483.756	1	13
484.948	1	-1
486.141	1	1
487.333	1	2
488.525	1	7
489.718	1	0
490.910	1	-1
492.102	1	-5
493.294	1	0
494.486	1	2
495.678	1	1
496.870	1	8
498.062	1	8
499.254	1	3
500.446	1	-7
501.638	1	-2
502.829	1	0
504.021	1	-3
505.213	1	2
506.404	1	1
507.596	1	1
508.788	1	10
509.979	1	3
511.171	1	-1
512.362	1	-3
513.553	1	-4
514.745	1	0
515.936	1	0
517.127	1	-5
518.319	1	-6
519.510	1	5
520.701	1	6
521.892	1	4
523.083	1	1
524.274	1	-3
525.465	1	2
526.656	1	3
527.847	1	3
529.038	1	1
530.229	1	10
531.419	1	7
532.610	1	-5
533.801	1	14
534.991	1	3
536.182	1	4
537.373	1	6
538.563	1	5
539.754	1	5
540.944	1	-1
542.134	1	8
543.325	1	3
544.515	1	-9
545.705	1	5
546.896	1	14
548.086	1	-1
549.276	1	6
550.466	1	7
551.656	1	3
552.846	1	2
554.036	1	2
555.226	1	1
556.416	1	-7
557.606	1	10
558.796	1	6
559.986	1	1
561.175	1	12
562.365	1	13
563.555	1	-8
564.744	1	3
565.934	1	1
567.123	1	5
568.313	1	7
569.502	1	6
570.692	1	-6
571.881	1	13
573.070	1	-1
574.260	1	10
575.449	1	1
576.638	1	-3
577.827	1	3
579.016	1	4
580.205	1	4
581.394	1	3
582.583	1	13
583.772	1	2
584.961	1	3
586.150	1	3
587.339	1	8
588.528	1	7
589.717	1	2
590.905	1	1
592.094	1	-7
593.283	1	2
594.471	1	18
595.660	1	3
596.848	1	5
598.037	1	1
599.225	1	-5
600.413	1	8
601.602	1	9
602.790	1	6
603.978	1	5
605.166	1	5
606.355	1	13
607.543	1	-3
608.731	1	6
609.919	1	7
611.107	1	0
612.295	1	-3
613.483	1	2
614.671	1	10
615.858	1	5
617.046	1	-5
618.234	1	7
619.422	1	-11
620.609	1	13
621.797	1	3
622.985	1	-4
624.172	1	3
625.360	1	7
626.547	1	3
627.735	1	4
628.922	1	2
630.109	1	-5
631.297	1	2
632.484	1	-1
633.671	1	-8
634.858	1	0
636.045	1	3
637.232	1	3
638.419	1	-6
639.606	1	9
640.793	1	8
641.980	1	6
643.167	1	-5
644.354	1	7
645.541	1	-4
646.728	1	-6
647.914	1	-1
649.101	1	0
650.288	1	3
651.474	1	-4
652.661	1	7
653.847	1	8
655.034	1	7
656.220	1	-7
657.406	1	8
658.593	1	2
659.779	1	5
660.965	1	9
662.152	1	5
663.338	1	17
664.524	1	-4
665.710	1	1
666.896	1	-1
668.082	1	6
669.268	1	-3
670.454	1	-4
671.640	1	7
672.826	1	-3
674.011	1	3
675.197	1	-9
676.383	1	1
677.569	1	0
678.754	1	-8
679.940	1	0
681.125	1	4
682.311	1	10
683.496	1	2
684.682	1	-7
685.867	1	3
687.053	1	11
688.238	1	12
688.746	1	-1

File: GaN_sample F_spot 12_UVVIS_200 K_200um_800 ms 2x2mm1_191.txt
340.368	1	1
341.565	1	-13
342.763	1	9
343.960	1	-5
345.157	1	-8
346.354	1	-9
347.552	1	-7
348.749	1	-12
349.946	1	-4
351.143	1	2
352.340	1	-2
353.537	1	-5
354.734	1	-4
355.931	1	2
357.127	1	10
358.324	1	10
359.521	1	11
360.718	1	11
361.914	1	10
363.111	1	14
364.308	1	5
365.504	1	24
366.701	1	33
367.897	1	38
369.093	1	30
370.290	1	33
371.486	1	37
372.682	1	31
373.879	1	16
375.075	1	22
376.271	1	27
377.467	1	20
378.663	1	3
379.859	1	7
381.055	1	13
382.251	1	9
383.447	1	3
384.643	1	14
385.839	1	13
387.035	1	9
388.230	1	15
389.426	1	0
390.622	1	0
391.817	1	4
393.013	1	3
394.208	1	5
395.404	1	2
396.599	1	-5
397.795	1	-2
398.990	1	3
400.186	1	3
401.381	1	-10
402.576	1	3
403.771	1	10
404.967	1	5
406.162	1	14
407.357	1	-2
408.552	1	1
409.747	1	4
410.942	1	10
412.137	1	0
413.332	1	4
414.526	1	-2
415.721	1	0
416.916	1	-6
418.111	1	-1
419.305	1	-4
420.500	1	-9
421.695	1	-1
422.889	1	-7
424.084	1	-2
425.278	1	10
426.472	1	1
427.667	1	12
428.861	1	-7
430.055	1	-1
431.250	1	9
432.444	1	13
433.638	1	0
434.832	1	1
436.026	1	1
437.220	1	1
438.414	1	-15
439.608	1	-6
440.802	1	-6
441.996	1	-5
443.190	1	4
444.384	1	-9
445.578	1	-5
446.771	1	4
447.965	1	2
449.159	1	-5
450.352	1	-2
451.546	1	-1
452.739	1	-8
453.933	1	-4
455.126	1	-4
456.320	1	3
457.513	1	-3
458.706	1	1
459.899	1	8
461.093	1	-5
462.286	1	0
463.479	1	-3
464.672	1	-8
465.865	1	-6
467.058	1	-2
468.251	1	-2
469.444	1	5
470.637	1	1
471.830	1	7
473.023	1	8
474.215	1	5
475.408	1	-1
476.601	1	2
477.793	1	-3
478.986	1	5
480.179	1	1
481.371	1	0
482.564	1	0
483.756	1	5
484.948	1	-7
486.141	1	-5
487.333	1	3
488.525	1	-8
489.718	1	3
490.910	1	3
492.102	1	-7
493.294	1	-1
494.486	1	5
495.678	1	8
496.870	1	-3
498.062	1	1
499.254	1	4
500.446	1	-10
501.638	1	-4
502.829	1	-1
504.021	1	6
505.213	1	8
506.404	1	-7
507.596	1	-5
508.788	1	15
509.979	1	-1
511.171	1	-6
512.362	1	3
513.553	1	-13
514.745	1	-5
515.936	1	0
517.127	1	0
518.319	1	4
519.510	1	-3
520.701	1	10
521.892	1	-1
523.083	1	1
524.274	1	0
525.465	1	8
526.656	1	5
527.847	1	12
529.038	1	4
530.229	1	7
531.419	1	7
532.610	1	4
533.801	1	11
534.991	1	-2
536.182	1	-1
537.373	1	6
538.563	1	3
539.754	1	8
540.944	1	2
542.134	1	3
543.325	1	3
544.515	1	0
545.705	1	2
546.896	1	7
548.086	1	4
549.276	1	2
550.466	1	12
551.656	1	5
552.846	1	0
554.036	1	-5
555.226	1	0
556.416	1	-3
557.606	1	6
558.796	1	4
559.986	1	-6
561.175	1	3
562.365	1	2
563.555	1	1
564.744	1	6
565.934	1	8
567.123	1	8
568.313	1	4
569.502	1	1
570.692	1	0
571.881	1	13
573.070	1	5
574.260	1	10
575.449	1	-2
576.638	1	-3
577.827	1	3
579.016	1	13
580.205	1	0
581.394	1	1
582.583	1	14
583.772	1	8
584.961	1	-2
586.150	1	2
587.339	1	1
588.528	1	-1
589.717	1	8
590.905	1	13
592.094	1	3
593.283	1	3
594.471	1	4
595.660	1	0
596.848	1	1
598.037	1	-8
599.225	1	-3
600.413	1	14
601.602	1	6
602.790	1	3
603.978	1	5
605.166	1	11
606.355	1	5
607.543	1	0
608.731	1	3
609.919	1	17
611.107	1	8
612.295	1	0
613.483	1	5
614.671	1	5
615.858	1	3
617.046	1	5
618.234	1	5
619.422	1	-11
620.609	1	2
621.797	1	4
622.985	1	6
624.172	1	0
625.360	1	4
626.547	1	0
627.735	1	10
628.922	1	6
630.109	1	-4
631.297	1	3
632.484	1	6
633.671	1	0
634.858	1	3
636.045	1	6
637.232	1	-5
638.419	1	-4
639.606	1	3
640.793	1	6
641.980	1	5
643.167	1	-4
644.354	1	-11
645.541	1	-1
646.728	1	-1
647.914	1	1
649.101	1	1
650.288	1	14
651.474	1	-3
652.661	1	8
653.847	1	9
655.034	1	10
656.220	1	-10
657.406	1	6
658.593	1	6
659.779	1	4
660.965	1	6
662.152	1	10
663.338	1	4
664.524	1	-2
665.710	1	-1
666.896	1	3
668.082	1	13
669.268	1	1
670.454	1	8
671.640	1	8
672.826	1	2
674.011	1	-7
675.197	1	-8
676.383	1	0
677.569	1	3
678.754	1	-2
679.940	1	0
681.125	1	2
682.311	1	3
683.496	1	-1
684.682	1	-7
685.867	1	4
687.053	1	3
688.238	1	-4
688.746	1	0

File: GaN_sample F_spot 12_UVVIS_200 K_200um_800 ms 2x2mm1_192.txt
340.368	1	-4
341.565	1	-2
342.763	1	8
343.960	1	7
345.157	1	3
346.354	1	9
347.552	1	-5
348.749	1	-5
349.946	1	5
351.143	1	-6
352.340	1	8
353.537	1	-1
354.734	1	7
355.931	1	8
357.127	1	6
358.324	1	8
359.521	1	17
360.718	1	4
361.914	1	11
363.111	1	5
364.308	1	7
365.504	1	23
366.701	1	27
367.897	1	39
369.093	1	34
370.290	1	27
371.486	1	34
372.682	1	37
373.879	1	30
375.075	1	19
376.271	1	29
377.467	1	16
378.663	1	10
379.859	1	6
381.055	1	18
382.251	1	7
383.447	1	1
384.643	1	20
385.839	1	9
387.035	1	13
388.230	1	12
389.426	1	7
390.622	1	0
391.817	1	5
393.013	1	0
394.208	1	3
395.404	1	-2
396.599	1	-1
397.795	1	5
398.990	1	-2
400.186	1	-2
401.381	1	-6
402.576	1	-3
403.771	1	-2
404.967	1	2
406.162	1	5
407.357	1	-1
408.552	1	4
409.747	1	1
410.942	1	10
412.137	1	5
413.332	1	5
414.526	1	-8
415.721	1	-1
416.916	1	-4
418.111	1	-2
419.305	1	-5
420.500	1	-2
421.695	1	5
422.889	1	-9
424.084	1	-3
425.278	1	5
426.472	1	0
427.667	1	10
428.861	1	-2
430.055	1	2
431.250	1	3
432.444	1	13
433.638	1	1
434.832	1	5
436.026	1	11
437.220	1	3
438.414	1	-9
439.608	1	-3
440.802	1	1
441.996	1	9
443.190	1	-2
444.384	1	-7
445.578	1	-6
446.771	1	13
447.965	1	1
449.159	1	-6
450.352	1	2
451.546	1	0
452.739	1	-1
453.933	1	7
455.126	1	-8
456.320	1	-5
457.513	1	1
458.706	1	1
459.899	1	3
461.093	1	-6
462.286	1	-7
463.479	1	-2
464.672	1	2
465.865	1	-4
467.058	1	-6
468.251	1	0
469.444	1	-9
470.637	1	5
471.830	1	3
473.023	1	2
474.215	1	10
475.408	1	1
476.601	1	0
477.793	1	-7
478.986	1	-4
480.179	1	5
481.371	1	0
482.564	1	10
483.756	1	6
484.948	1	-9
486.141	1	-1
487.333	1	-2
488.525	1	-6
489.718	1	6
490.910	1	6
492.102	1	4
493.294	1	1
494.486	1	5
495.678	1	0
496.870	1	7
498.062	1	-6
499.254	1	3
500.446	1	-9
501.638	1	-1
502.829	1	-2
504.021	1	-3
505.213	1	11
506.404	1	8
507.596	1	3
508.788	1	10
509.979	1	7
511.171	1	-5
512.362	1	-6
513.553	1	-7
514.745	1	-1
515.936	1	-3
517.127	1	-4
518.319	1	6
519.510	1	6
520.701	1	4
521.892	1	6
523.083	1	5
524.274	1	-1
525.465	1	22
526.656	1	-3
527.847	1	2
529.038	1	-1
530.229	1	5
531.419	1	1
532.610	1	-5
533.801	1	15
534.991	1	4
536.182	1	0
537.373	1	12
538.563	1	-2
539.754	1	3
540.944	1	-7
542.134	1	8
543.325	1	2
544.515	1	1
545.705	1	5
546.896	1	-4
548.086	1	12
549.276	1	-1
550.466	1	-1
551.656	1	13
552.846	1	8
554.036	1	3
555.226	1	-8
556.416	1	3
557.606	1	11
558.796	1	5
559.986	1	-3
561.175	1	-1
562.365	1	-1
563.555	1	-1
564.744	1	4
565.934	1	10
567.123	1	-2
568.313	1	10
569.502	1	2
570.692	1	13
571.881	1	13
573.070	1	4
574.260	1	9
575.449	1	-16
576.638	1	1
577.827	1	-3
579.016	1	3
580.205	1	5
581.394	1	6
582.583	1	11
583.772	1	7
584.961	1	5
586.150	1	0
587.339	1	6
588.528	1	8
589.717	1	2
590.905	1	2
592.094	1	7
593.283	1	0
594.471	1	-1
595.660	1	7
596.848	1	3
598.037	1	0
599.225	1	-5
600.413	1	2
601.602	1	14
602.790	1	-2
603.978	1	3
605.166	1	2
606.355	1	3
607.543	1	1
608.731	1	2
609.919	1	17
611.107	1	-2
612.295	1	-3
613.483	1	7
614.671	1	6
615.858	1	5
617.046	1	-5
618.234	1	0
619.422	1	-6
620.609	1	9
621.797	1	-3
622.985	1	0
624.172	1	1
625.360	1	4
626.547	1	2
627.735	1	3
628.922	1	6
630.109	1	-6
631.297	1	-3
632.484	1	2
633.671	1	5
634.858	1	-3
636.045	1	23
637.232	1	-2
638.419	1	-14
639.606	1	5
640.793	1	9
641.980	1	4
643.167	1	-2
644.354	1	4
645.541	1	1
646.728	1	6
647.914	1	2
649.101	1	-4
650.288	1	9
651.474	1	3
652.661	1	-9
653.847	1	14
655.034	1	5
656.220	1	0
657.406	1	7
658.593	1	3
659.779	1	-2
660.965	1	-1
662.152	1	11
663.338	1	3
664.524	1	1
665.710	1	6
666.896	1	-8
668.082	1	10
669.268	1	2
670.454	1	-1
671.640	1	1
672.826	1	2
674.011	1	1
675.197	1	-8
676.383	1	8
677.569	1	-3
678.754	1	-5
679.940	1	1
681.125	1	0
682.311	1	2
683.496	1	-8
684.682	1	-3
685.867	1	-3
687.053	1	4
688.238	1	5
688.746	1	5

File: GaN_sample F_spot 12_UVVIS_200 K_200um_800 ms 2x2mm1_193.txt
340.368	1	3
341.565	1	-4
342.763	1	5
343.960	1	5
345.157	1	7
346.354	1	2
347.552	1	5
348.749	1	-2
349.946	1	-6
351.143	1	5
352.340	1	2
353.537	1	2
354.734	1	8
355.931	1	-2
357.127	1	2
358.324	1	-1
359.521	1	11
360.718	1	15
361.914	1	9
363.111	1	10
364.308	1	14
365.504	1	33
366.701	1	29
367.897	1	34
369.093	1	29
370.290	1	34
371.486	1	41
372.682	1	29
373.879	1	22
375.075	1	16
376.271	1	31
377.467	1	15
378.663	1	2
379.859	1	8
381.055	1	17
382.251	1	5
383.447	1	6
384.643	1	18
385.839	1	12
387.035	1	8
388.230	1	11
389.426	1	-7
390.622	1	8
391.817	1	2
393.013	1	1
394.208	1	0
395.404	1	0
396.599	1	0
397.795	1	1
398.990	1	5
400.186	1	4
401.381	1	2
402.576	1	-4
403.771	1	4
404.967	1	11
406.162	1	9
407.357	1	-3
408.552	1	3
409.747	1	-3
410.942	1	-4
412.137	1	2
413.332	1	-5
414.526	1	-3
415.721	1	-12
416.916	1	-6
418.111	1	3
419.305	1	1
420.500	1	6
421.695	1	-5
422.889	1	-2
424.084	1	-5
425.278	1	3
426.472	1	2
427.667	1	7
428.861	1	0
430.055	1	4
431.250	1	-4
432.444	1	1
433.638	1	-5
434.832	1	0
436.026	1	7
437.220	1	9
438.414	1	-9
439.608	1	-13
440.802	1	-3
441.996	1	7
443.190	1	-4
444.384	1	-8
445.578	1	-3
446.771	1	5
447.965	1	6
449.159	1	-9
450.352	1	-5
451.546	1	0
452.739	1	-2
453.933	1	-4
455.126	1	-5
456.320	1	-1
457.513	1	4
458.706	1	8
459.899	1	15
461.093	1	-1
462.286	1	2
463.479	1	5
464.672	1	2
465.865	1	-4
467.058	1	0
468.251	1	6
469.444	1	-4
470.637	1	4
471.830	1	3
473.023	1	3
474.215	1	12
475.408	1	0
476.601	1	9
477.793	1	1
478.986	1	-5
480.179	1	-1
481.371	1	-5
482.564	1	0
483.756	1	8
484.948	1	-7
486.141	1	-4
487.333	1	7
488.525	1	2
489.718	1	1
490.910	1	10
492.102	1	1
493.294	1	-11
494.486	1	7
495.678	1	8
496.870	1	8
498.062	1	-1
499.254	1	7
500.446	1	-7
501.638	1	-6
502.829	1	3
504.021	1	6
505.213	1	7
506.404	1	4
507.596	1	1
508.788	1	15
509.979	1	-4
511.171	1	-7
512.362	1	-3
513.553	1	-8
514.745	1	-10
515.936	1	0
517.127	1	-5
518.319	1	1
519.510	1	-3
520.701	1	0
521.892	1	12
523.083	1	4
524.274	1	2
525.465	1	6
526.656	1	-5
527.847	1	0
529.038	1	11
530.229	1	6
531.419	1	-1
532.610	1	-5
533.801	1	16
534.991	1	6
536.182	1	-4
537.373	1	0
538.563	1	12
539.754	1	12
540.944	1	-3
542.134	1	7
543.325	1	10
544.515	1	2
545.705	1	0
546.896	1	0
548.086	1	-3
549.276	1	1
550.466	1	7
551.656	1	10
552.846	1	11
554.036	1	0
555.226	1	-3
556.416	1	-6
557.606	1	-1
558.796	1	-1
559.986	1	4
561.175	1	9
562.365	1	4
563.555	1	-5
564.744	1	9
565.934	1	7
567.123	1	7
568.313	1	10
569.502	1	1
570.692	1	9
571.881	1	20
573.070	1	-1
574.260	1	6
575.449	1	4
576.638	1	1
577.827	1	0
579.016	1	10
580.205	1	0
581.394	1	3
582.583	1	8
583.772	1	12
584.961	1	8
586.150	1	4
587.339	1	6
588.528	1	7
589.717	1	0
590.905	1	4
592.094	1	-1
593.283	1	6
594.471	1	9
595.660	1	1
596.848	1	0
598.037	1	-3
599.225	1	-2
600.413	1	19
601.602	1	11
602.790	1	8
603.978	1	3
605.166	1	3
606.355	1	2
607.543	1	6
608.731	1	5
609.919	1	10
611.107	1	0
612.295	1	0
613.483	1	2
614.671	1	7
615.858	1	14
617.046	1	-2
618.234	1	5
619.422	1	-12
620.609	1	2
621.797	1	1
622.985	1	2
624.172	1	-1
625.360	1	1
626.547	1	2
627.735	1	11
628.922	1	3
630.109	1	-13
631.297	1	-2
632.484	1	-1
633.671	1	0
634.858	1	0
636.045	1	15
637.232	1	2
638.419	1	-2
639.606	1	3
640.793	1	7
641.980	1	7
643.167	1	-9
644.354	1	0
645.541	1	3
646.728	1	3
647.914	1	-5
649.101	1	-6
650.288	1	7
651.474	1	0
652.661	1	-9
653.847	1	3
655.034	1	-1
656.220	1	-2
657.406	1	2
658.593	1	10
659.779	1	6
660.965	1	1
662.152	1	7
663.338	1	2
664.524	1	4
665.710	1	3
666.896	1	-3
668.082	1	4
669.268	1	1
670.454	1	1
671.640	1	-4
672.826	1	-7
674.011	1	-2
675.197	1	-7
676.383	1	4
677.569	1	-7
678.754	1	-7
679.940	1	-3
681.125	1	6
682.311	1	1
683.496	1	4
684.682	1	-6
685.867	1	5
687.053	1	1
688.238	1	8
688.746	1	2

File: GaN_sample F_spot 12_UVVIS_200 K_200um_800 ms 2x2mm1_194.txt
340.368	1	7
341.565	1	-11
342.763	1	5
343.960	1	4
345.157	1	-1
346.354	1	4
347.552	1	-1
348.749	1	-6
349.946	1	0
351.143	1	8
352.340	1	7
353.537	1	6
354.734	1	12
355.931	1	11
357.127	1	-1
358.324	1	4
359.521	1	12
360.718	1	3
361.914	1	10
363.111	1	9
364.308	1	6
365.504	1	27
366.701	1	26
367.897	1	30
369.093	1	30
370.290	1	33
371.486	1	36
372.682	1	29
373.879	1	18
375.075	1	11
376.271	1	29
377.467	1	22
378.663	1	0
379.859	1	1
381.055	1	20
382.251	1	1
383.447	1	9
384.643	1	21
385.839	1	15
387.035	1	-1
388.230	1	18
389.426	1	1
390.622	1	1
391.817	1	10
393.013	1	0
394.208	1	7
395.404	1	-6
396.599	1	-3
397.795	1	-4
398.990	1	4
400.186	1	-2
401.381	1	2
402.576	1	0
403.771	1	-1
404.967	1	12
406.162	1	8
407.357	1	-6
408.552	1	6
409.747	1	6
410.942	1	5
412.137	1	7
413.332	1	2
414.526	1	3
415.721	1	-4
416.916	1	1
418.111	1	-6
419.305	1	1
420.500	1	-4
421.695	1	-4
422.889	1	-9
424.084	1	9
425.278	1	12
426.472	1	1
427.667	1	13
428.861	1	-1
430.055	1	3
431.250	1	-3
432.444	1	8
433.638	1	-7
434.832	1	3
436.026	1	-1
437.220	1	8
438.414	1	-5
439.608	1	-7
440.802	1	3
441.996	1	1
443.190	1	-1
444.384	1	-3
445.578	1	-9
446.771	1	12
447.965	1	3
449.159	1	-5
450.352	1	-5
451.546	1	1
452.739	1	4
453.933	1	2
455.126	1	-7
456.320	1	-1
457.513	1	5
458.706	1	-4
459.899	1	-5
461.093	1	2
462.286	1	4
463.479	1	-5
464.672	1	2
465.865	1	-2
467.058	1	4
468.251	1	-4
469.444	1	-6
470.637	1	2
471.830	1	0
473.023	1	-2
474.215	1	7
475.408	1	-7
476.601	1	0
477.793	1	-1
478.986	1	-5
480.179	1	-1
481.371	1	2
482.564	1	-5
483.756	1	15
484.948	1	-9
486.141	1	3
487.333	1	1
488.525	1	4
489.718	1	5
490.910	1	-1
492.102	1	-6
493.294	1	0
494.486	1	12
495.678	1	5
496.870	1	11
498.062	1	-3
499.254	1	-6
500.446	1	-9
501.638	1	-7
502.829	1	0
504.021	1	3
505.213	1	-4
506.404	1	4
507.596	1	4
508.788	1	10
509.979	1	-4
511.171	1	7
512.362	1	-1
513.553	1	-2
514.745	1	3
515.936	1	-3
517.127	1	2
518.319	1	6
519.510	1	2
520.701	1	14
521.892	1	9
523.083	1	-2
524.274	1	5
525.465	1	5
526.656	1	2
527.847	1	2
529.038	1	8
530.229	1	0
531.419	1	0
532.610	1	4
533.801	1	15
534.991	1	6
536.182	1	-2
537.373	1	-5
538.563	1	7
539.754	1	1
540.944	1	5
542.134	1	0
543.325	1	-4
544.515	1	4
545.705	1	2
546.896	1	8
548.086	1	3
549.276	1	-4
550.466	1	3
551.656	1	1
552.846	1	4
554.036	1	5
555.226	1	-1
556.416	1	3
557.606	1	7
558.796	1	0
559.986	1	-6
561.175	1	5
562.365	1	4
563.555	1	-5
564.744	1	13
565.934	1	20
567.123	1	1
568.313	1	16
569.502	1	1
570.692	1	11
571.881	1	10
573.070	1	3
574.260	1	6
575.449	1	3
576.638	1	0
577.827	1	5
579.016	1	18
580.205	1	-1
581.394	1	3
582.583	1	11
583.772	1	16
584.961	1	1
586.150	1	8
587.339	1	4
588.528	1	13
589.717	1	7
590.905	1	0
592.094	1	0
593.283	1	2
594.471	1	19
595.660	1	7
596.848	1	-2
598.037	1	5
599.225	1	-11
600.413	1	19
601.602	1	16
602.790	1	7
603.978	1	4
605.166	1	9
606.355	1	10
607.543	1	1
608.731	1	6
609.919	1	8
611.107	1	3
612.295	1	2
613.483	1	7
614.671	1	10
615.858	1	10
617.046	1	6
618.234	1	1
619.422	1	3
620.609	1	6
621.797	1	2
622.985	1	2
624.172	1	-6
625.360	1	-1
626.547	1	5
627.735	1	6
628.922	1	3
630.109	1	-2
631.297	1	3
632.484	1	-1
633.671	1	-8
634.858	1	-13
636.045	1	9
637.232	1	-2
638.419	1	1
639.606	1	3
640.793	1	6
641.980	1	6
643.167	1	-4
644.354	1	6
645.541	1	2
646.728	1	-5
647.914	1	-3
649.101	1	4
650.288	1	5
651.474	1	1
652.661	1	3
653.847	1	8
655.034	1	10
656.220	1	-4
657.406	1	6
658.593	1	-1
659.779	1	3
660.965	1	9
662.152	1	7
663.338	1	0
664.524	1	2
665.710	1	6
666.896	1	-10
668.082	1	9
669.268	1	-10
670.454	1	7
671.640	1	3
672.826	1	0
674.011	1	-9
675.197	1	-6
676.383	1	10
677.569	1	-5
678.754	1	0
679.940	1	-6
681.125	1	6
682.311	1	13
683.496	1	5
684.682	1	-7
685.867	1	6
687.053	1	-4
688.238	1	2
688.746	1	-11