Folder: cryo-il_analysis/Data/GaN_200K_800ms (part 3)

File: GaN_sample F_spot 12_UVVIS_200 K_200um_800 ms 2x2mm1_26.txt
340.368	1	10
341.565	1	-15
342.763	1	4
343.960	1	0
345.157	1	-3
346.354	1	2
347.552	1	-10
348.749	1	-6
349.946	1	4
351.143	1	6
352.340	1	2
353.537	1	-2
354.734	1	6
355.931	1	-3
357.127	1	8
358.324	1	1
359.521	1	0
360.718	1	4
361.914	1	5
363.111	1	-7
364.308	1	5
365.504	1	7
366.701	1	1
367.897	1	3
369.093	1	-1
370.290	1	-1
371.486	1	1
372.682	1	5
373.879	1	0
375.075	1	4
376.271	1	3
377.467	1	4
378.663	1	2
379.859	1	-3
381.055	1	-1
382.251	1	-1
383.447	1	3
384.643	1	3
385.839	1	8
387.035	1	3
388.230	1	0
389.426	1	2
390.622	1	-2
391.817	1	1
393.013	1	-4
394.208	1	4
395.404	1	-3
396.599	1	2
397.795	1	2
398.990	1	6
400.186	1	1
401.381	1	2
402.576	1	0
403.771	1	10
404.967	1	8
406.162	1	4
407.357	1	-3
408.552	1	2
409.747	1	8
410.942	1	7
412.137	1	11
413.332	1	5
414.526	1	3
415.721	1	-2
416.916	1	-6
418.111	1	-4
419.305	1	7
420.500	1	-2
421.695	1	-1
422.889	1	-7
424.084	1	0
425.278	1	3
426.472	1	5
427.667	1	5
428.861	1	-7
430.055	1	3
431.250	1	-7
432.444	1	7
433.638	1	7
434.832	1	-2
436.026	1	11
437.220	1	5
438.414	1	0
439.608	1	-6
440.802	1	-1
441.996	1	2
443.190	1	-2
444.384	1	-4
445.578	1	-3
446.771	1	9
447.965	1	-4
449.159	1	-4
450.352	1	-5
451.546	1	-7
452.739	1	4
453.933	1	-7
455.126	1	3
456.320	1	-7
457.513	1	9
458.706	1	1
459.899	1	3
461.093	1	7
462.286	1	4
463.479	1	-5
464.672	1	-3
465.865	1	2
467.058	1	0
468.251	1	8
469.444	1	-9
470.637	1	8
471.830	1	3
473.023	1	-1
474.215	1	9
475.408	1	-2
476.601	1	7
477.793	1	-6
478.986	1	-2
480.179	1	-1
481.371	1	3
482.564	1	-6
483.756	1	8
484.948	1	-5
486.141	1	-6
487.333	1	0
488.525	1	-5
489.718	1	2
490.910	1	-3
492.102	1	0
493.294	1	-6
494.486	1	9
495.678	1	-1
496.870	1	1
498.062	1	5
499.254	1	2
500.446	1	-7
501.638	1	-4
502.829	1	1
504.021	1	-1
505.213	1	7
506.404	1	6
507.596	1	4
508.788	1	14
509.979	1	6
511.171	1	-4
512.362	1	-7
513.553	1	-12
514.745	1	0
515.936	1	5
517.127	1	4
518.319	1	5
519.510	1	5
520.701	1	-1
521.892	1	1
523.083	1	0
524.274	1	5
525.465	1	10
526.656	1	-7
527.847	1	4
529.038	1	3
530.229	1	5
531.419	1	9
532.610	1	-4
533.801	1	15
534.991	1	-4
536.182	1	-9
537.373	1	-2
538.563	1	-2
539.754	1	6
540.944	1	-2
542.134	1	7
543.325	1	-2
544.515	1	-4
545.705	1	-3
546.896	1	-5
548.086	1	-3
549.276	1	-1
550.466	1	-1
551.656	1	2
552.846	1	-4
554.036	1	-3
555.226	1	-11
556.416	1	-4
557.606	1	5
558.796	1	3
559.986	1	-2
561.175	1	4
562.365	1	8
563.555	1	-2
564.744	1	1
565.934	1	8
567.123	1	8
568.313	1	7
569.502	1	-6
570.692	1	5
571.881	1	12
573.070	1	3
574.260	1	-1
575.449	1	1
576.638	1	-12
577.827	1	2
579.016	1	1
580.205	1	6
581.394	1	-6
582.583	1	11
583.772	1	2
584.961	1	-2
586.150	1	-3
587.339	1	3
588.528	1	3
589.717	1	2
590.905	1	-3
592.094	1	3
593.283	1	-5
594.471	1	8
595.660	1	-1
596.848	1	4
598.037	1	3
599.225	1	-1
600.413	1	12
601.602	1	8
602.790	1	-4
603.978	1	-1
605.166	1	7
606.355	1	-2
607.543	1	-9
608.731	1	6
609.919	1	4
611.107	1	-7
612.295	1	-8
613.483	1	3
614.671	1	3
615.858	1	5
617.046	1	3
618.234	1	-6
619.422	1	-10
620.609	1	5
621.797	1	2
622.985	1	-6
624.172	1	-8
625.360	1	0
626.547	1	-3
627.735	1	3
628.922	1	0
630.109	1	-6
631.297	1	3
632.484	1	-2
633.671	1	4
634.858	1	-3
636.045	1	13
637.232	1	1
638.419	1	-9
639.606	1	5
640.793	1	3
641.980	1	9
643.167	1	-2
644.354	1	4
645.541	1	11
646.728	1	3
647.914	1	-8
649.101	1	-2
650.288	1	5
651.474	1	4
652.661	1	2
653.847	1	10
655.034	1	7
656.220	1	0
657.406	1	0
658.593	1	9
659.779	1	-5
660.965	1	5
662.152	1	-4
663.338	1	5
664.524	1	8
665.710	1	5
666.896	1	1
668.082	1	-2
669.268	1	1
670.454	1	6
671.640	1	13
672.826	1	-2
674.011	1	2
675.197	1	-1
676.383	1	10
677.569	1	5
678.754	1	-2
679.940	1	-5
681.125	1	1
682.311	1	12
683.496	1	-2
684.682	1	-6
685.867	1	0
687.053	1	5
688.238	1	1
688.746	1	0

File: GaN_sample F_spot 12_UVVIS_200 K_200um_800 ms 2x2mm1_27.txt
340.368	1	8
341.565	1	-15
342.763	1	2
343.960	1	2
345.157	1	-2
346.354	1	10
347.552	1	-1
348.749	1	-3
349.946	1	1
351.143	1	-2
352.340	1	5
353.537	1	12
354.734	1	6
355.931	1	-1
357.127	1	-7
358.324	1	0
359.521	1	11
360.718	1	6
361.914	1	7
363.111	1	-8
364.308	1	2
365.504	1	4
366.701	1	3
367.897	1	2
369.093	1	3
370.290	1	-7
371.486	1	6
372.682	1	1
373.879	1	3
375.075	1	1
376.271	1	9
377.467	1	3
378.663	1	-1
379.859	1	-6
381.055	1	7
382.251	1	-9
383.447	1	4
384.643	1	6
385.839	1	0
387.035	1	7
388.230	1	10
389.426	1	-1
390.622	1	-9
391.817	1	10
393.013	1	0
394.208	1	-2
395.404	1	-12
396.599	1	-1
397.795	1	11
398.990	1	-3
400.186	1	-5
401.381	1	-2
402.576	1	4
403.771	1	-2
404.967	1	4
406.162	1	2
407.357	1	-2
408.552	1	-1
409.747	1	-3
410.942	1	6
412.137	1	10
413.332	1	2
414.526	1	-6
415.721	1	6
416.916	1	-2
418.111	1	-3
419.305	1	6
420.500	1	2
421.695	1	3
422.889	1	-5
424.084	1	3
425.278	1	9
426.472	1	4
427.667	1	7
428.861	1	-3
430.055	1	10
431.250	1	0
432.444	1	10
433.638	1	1
434.832	1	11
436.026	1	10
437.220	1	4
438.414	1	-5
439.608	1	-14
440.802	1	-3
441.996	1	11
443.190	1	-4
444.384	1	-8
445.578	1	-6
446.771	1	10
447.965	1	-9
449.159	1	0
450.352	1	-7
451.546	1	3
452.739	1	7
453.933	1	-4
455.126	1	-6
456.320	1	-7
457.513	1	7
458.706	1	-2
459.899	1	6
461.093	1	6
462.286	1	-11
463.479	1	-5
464.672	1	8
465.865	1	-2
467.058	1	2
468.251	1	-1
469.444	1	-9
470.637	1	1
471.830	1	-2
473.023	1	6
474.215	1	1
475.408	1	7
476.601	1	9
477.793	1	3
478.986	1	4
480.179	1	-6
481.371	1	0
482.564	1	6
483.756	1	18
484.948	1	-5
486.141	1	-1
487.333	1	-8
488.525	1	-1
489.718	1	1
490.910	1	-4
492.102	1	-4
493.294	1	-1
494.486	1	4
495.678	1	5
496.870	1	-3
498.062	1	-11
499.254	1	9
500.446	1	-5
501.638	1	-2
502.829	1	1
504.021	1	5
505.213	1	5
506.404	1	5
507.596	1	-1
508.788	1	18
509.979	1	1
511.171	1	1
512.362	1	-1
513.553	1	-15
514.745	1	-2
515.936	1	3
517.127	1	2
518.319	1	0
519.510	1	2
520.701	1	-4
521.892	1	6
523.083	1	5
524.274	1	-10
525.465	1	7
526.656	1	-2
527.847	1	0
529.038	1	10
530.229	1	3
531.419	1	-4
532.610	1	-10
533.801	1	13
534.991	1	0
536.182	1	-4
537.373	1	1
538.563	1	8
539.754	1	8
540.944	1	0
542.134	1	8
543.325	1	4
544.515	1	4
545.705	1	8
546.896	1	1
548.086	1	4
549.276	1	-2
550.466	1	-1
551.656	1	11
552.846	1	-6
554.036	1	3
555.226	1	-5
556.416	1	-12
557.606	1	6
558.796	1	-1
559.986	1	-6
561.175	1	2
562.365	1	5
563.555	1	-5
564.744	1	3
565.934	1	5
567.123	1	6
568.313	1	0
569.502	1	2
570.692	1	7
571.881	1	15
573.070	1	1
574.260	1	10
575.449	1	-6
576.638	1	-3
577.827	1	-8
579.016	1	15
580.205	1	1
581.394	1	-1
582.583	1	3
583.772	1	2
584.961	1	10
586.150	1	5
587.339	1	0
588.528	1	7
589.717	1	0
590.905	1	-5
592.094	1	-8
593.283	1	3
594.471	1	14
595.660	1	-2
596.848	1	4
598.037	1	2
599.225	1	2
600.413	1	6
601.602	1	12
602.790	1	9
603.978	1	4
605.166	1	0
606.355	1	9
607.543	1	2
608.731	1	-3
609.919	1	6
611.107	1	4
612.295	1	1
613.483	1	2
614.671	1	4
615.858	1	-1
617.046	1	7
618.234	1	-3
619.422	1	-11
620.609	1	1
621.797	1	4
622.985	1	-4
624.172	1	5
625.360	1	5
626.547	1	0
627.735	1	5
628.922	1	4
630.109	1	-7
631.297	1	-8
632.484	1	9
633.671	1	-3
634.858	1	-6
636.045	1	12
637.232	1	-2
638.419	1	-1
639.606	1	7
640.793	1	11
641.980	1	8
643.167	1	-7
644.354	1	8
645.541	1	7
646.728	1	-5
647.914	1	-4
649.101	1	6
650.288	1	2
651.474	1	-1
652.661	1	1
653.847	1	6
655.034	1	5
656.220	1	-1
657.406	1	7
658.593	1	7
659.779	1	1
660.965	1	8
662.152	1	7
663.338	1	13
664.524	1	9
665.710	1	2
666.896	1	-2
668.082	1	8
669.268	1	-4
670.454	1	4
671.640	1	-1
672.826	1	-3
674.011	1	1
675.197	1	-6
676.383	1	8
677.569	1	-3
678.754	1	-5
679.940	1	-7
681.125	1	1
682.311	1	12
683.496	1	4
684.682	1	-11
685.867	1	-5
687.053	1	1
688.238	1	7
688.746	1	-1

File: GaN_sample F_spot 12_UVVIS_200 K_200um_800 ms 2x2mm1_28.txt
340.368	1	1
341.565	1	-17
342.763	1	12
343.960	1	4
345.157	1	-10
346.354	1	6
347.552	1	-6
348.749	1	0
349.946	1	5
351.143	1	-4
352.340	1	7
353.537	1	4
354.734	1	8
355.931	1	-7
357.127	1	0
358.324	1	1
359.521	1	0
360.718	1	0
361.914	1	-1
363.111	1	-6
364.308	1	0
365.504	1	5
366.701	1	-3
367.897	1	-1
369.093	1	-7
370.290	1	-2
371.486	1	10
372.682	1	6
373.879	1	1
375.075	1	3
376.271	1	4
377.467	1	3
378.663	1	-4
379.859	1	4
381.055	1	11
382.251	1	-10
383.447	1	0
384.643	1	4
385.839	1	-4
387.035	1	-4
388.230	1	0
389.426	1	-2
390.622	1	-2
391.817	1	6
393.013	1	-6
394.208	1	-5
395.404	1	-3
396.599	1	0
397.795	1	7
398.990	1	4
400.186	1	-1
401.381	1	-6
402.576	1	-4
403.771	1	9
404.967	1	-7
406.162	1	7
407.357	1	0
408.552	1	-1
409.747	1	4
410.942	1	0
412.137	1	2
413.332	1	-1
414.526	1	-5
415.721	1	1
416.916	1	-4
418.111	1	4
419.305	1	7
420.500	1	2
421.695	1	-10
422.889	1	-7
424.084	1	14
425.278	1	8
426.472	1	9
427.667	1	3
428.861	1	-5
430.055	1	6
431.250	1	-5
432.444	1	4
433.638	1	-5
434.832	1	6
436.026	1	0
437.220	1	13
438.414	1	-4
439.608	1	-3
440.802	1	1
441.996	1	5
443.190	1	-1
444.384	1	1
445.578	1	-6
446.771	1	10
447.965	1	-3
449.159	1	-10
450.352	1	-6
451.546	1	-2
452.739	1	0
453.933	1	3
455.126	1	-6
456.320	1	1
457.513	1	10
458.706	1	-3
459.899	1	2
461.093	1	4
462.286	1	7
463.479	1	3
464.672	1	-4
465.865	1	-3
467.058	1	-2
468.251	1	5
469.444	1	-2
470.637	1	0
471.830	1	1
473.023	1	8
474.215	1	7
475.408	1	-3
476.601	1	0
477.793	1	-4
478.986	1	10
480.179	1	2
481.371	1	13
482.564	1	2
483.756	1	4
484.948	1	-7
486.141	1	2
487.333	1	-3
488.525	1	-4
489.718	1	5
490.910	1	5
492.102	1	3
493.294	1	-9
494.486	1	9
495.678	1	7
496.870	1	1
498.062	1	1
499.254	1	-4
500.446	1	-2
501.638	1	1
502.829	1	0
504.021	1	-2
505.213	1	6
506.404	1	9
507.596	1	11
508.788	1	16
509.979	1	-8
511.171	1	0
512.362	1	2
513.553	1	-20
514.745	1	2
515.936	1	1
517.127	1	-4
518.319	1	2
519.510	1	7
520.701	1	-4
521.892	1	2
523.083	1	0
524.274	1	3
525.465	1	13
526.656	1	9
527.847	1	1
529.038	1	0
530.229	1	6
531.419	1	3
532.610	1	-14
533.801	1	13
534.991	1	-1
536.182	1	-1
537.373	1	1
538.563	1	7
539.754	1	8
540.944	1	4
542.134	1	4
543.325	1	-3
544.515	1	0
545.705	1	0
546.896	1	-6
548.086	1	1
549.276	1	0
550.466	1	1
551.656	1	-4
552.846	1	-9
554.036	1	-1
555.226	1	-6
556.416	1	-4
557.606	1	12
558.796	1	7
559.986	1	-8
561.175	1	-3
562.365	1	2
563.555	1	2
564.744	1	4
565.934	1	3
567.123	1	-2
568.313	1	5
569.502	1	-2
570.692	1	13
571.881	1	9
573.070	1	0
574.260	1	2
575.449	1	2
576.638	1	0
577.827	1	-2
579.016	1	10
580.205	1	-3
581.394	1	-6
582.583	1	5
583.772	1	11
584.961	1	0
586.150	1	-5
587.339	1	8
588.528	1	3
589.717	1	2
590.905	1	10
592.094	1	3
593.283	1	-2
594.471	1	15
595.660	1	-5
596.848	1	7
598.037	1	0
599.225	1	-4
600.413	1	16
601.602	1	21
602.790	1	9
603.978	1	-1
605.166	1	11
606.355	1	2
607.543	1	-1
608.731	1	-2
609.919	1	9
611.107	1	-3
612.295	1	-4
613.483	1	8
614.671	1	10
615.858	1	3
617.046	1	3
618.234	1	0
619.422	1	-1
620.609	1	5
621.797	1	-10
622.985	1	-3
624.172	1	-2
625.360	1	6
626.547	1	0
627.735	1	4
628.922	1	6
630.109	1	-10
631.297	1	-3
632.484	1	1
633.671	1	-1
634.858	1	3
636.045	1	16
637.232	1	-6
638.419	1	7
639.606	1	-3
640.793	1	13
641.980	1	12
643.167	1	1
644.354	1	-1
645.541	1	5
646.728	1	0
647.914	1	1
649.101	1	-5
650.288	1	10
651.474	1	5
652.661	1	-4
653.847	1	9
655.034	1	5
656.220	1	-16
657.406	1	8
658.593	1	8
659.779	1	-1
660.965	1	9
662.152	1	4
663.338	1	8
664.524	1	-5
665.710	1	0
666.896	1	0
668.082	1	-2
669.268	1	1
670.454	1	5
671.640	1	4
672.826	1	-1
674.011	1	-3
675.197	1	-9
676.383	1	1
677.569	1	-3
678.754	1	-6
679.940	1	0
681.125	1	8
682.311	1	12
683.496	1	5
684.682	1	-5
685.867	1	4
687.053	1	-4
688.238	1	7
688.746	1	2

File: GaN_sample F_spot 12_UVVIS_200 K_200um_800 ms 2x2mm1_30.txt
340.368	1	-4
341.565	1	-13
342.763	1	1
343.960	1	6
345.157	1	-6
346.354	1	9
347.552	1	-2
348.749	1	-9
349.946	1	-12
351.143	1	-1
352.340	1	3
353.537	1	3
354.734	1	5
355.931	1	0
357.127	1	2
358.324	1	-4
359.521	1	15
360.718	1	11
361.914	1	3
363.111	1	-3
364.308	1	3
365.504	1	6
366.701	1	3
367.897	1	2
369.093	1	-3
370.290	1	-3
371.486	1	8
372.682	1	-1
373.879	1	0
375.075	1	-3
376.271	1	7
377.467	1	-7
378.663	1	-8
379.859	1	-1
381.055	1	4
382.251	1	-3
383.447	1	-6
384.643	1	1
385.839	1	0
387.035	1	-4
388.230	1	15
389.426	1	2
390.622	1	5
391.817	1	3
393.013	1	-4
394.208	1	-2
395.404	1	-3
396.599	1	4
397.795	1	5
398.990	1	2
400.186	1	-1
401.381	1	3
402.576	1	-4
403.771	1	-3
404.967	1	0
406.162	1	4
407.357	1	1
408.552	1	3
409.747	1	-5
410.942	1	5
412.137	1	11
413.332	1	2
414.526	1	-4
415.721	1	8
416.916	1	-4
418.111	1	6
419.305	1	-2
420.500	1	-6
421.695	1	-3
422.889	1	-6
424.084	1	11
425.278	1	10
426.472	1	8
427.667	1	9
428.861	1	-4
430.055	1	4
431.250	1	0
432.444	1	6
433.638	1	6
434.832	1	5
436.026	1	8
437.220	1	8
438.414	1	-3
439.608	1	-5
440.802	1	-2
441.996	1	6
443.190	1	-6
444.384	1	-9
445.578	1	-4
446.771	1	17
447.965	1	0
449.159	1	-9
450.352	1	5
451.546	1	2
452.739	1	-4
453.933	1	5
455.126	1	-7
456.320	1	-5
457.513	1	7
458.706	1	-5
459.899	1	-4
461.093	1	10
462.286	1	8
463.479	1	5
464.672	1	0
465.865	1	-5
467.058	1	-2
468.251	1	2
469.444	1	-3
470.637	1	8
471.830	1	-3
473.023	1	2
474.215	1	7
475.408	1	-1
476.601	1	0
477.793	1	-3
478.986	1	4
480.179	1	-1
481.371	1	3
482.564	1	0
483.756	1	3
484.948	1	-3
486.141	1	1
487.333	1	9
488.525	1	0
489.718	1	-3
490.910	1	3
492.102	1	-4
493.294	1	1
494.486	1	0
495.678	1	4
496.870	1	8
498.062	1	-2
499.254	1	3
500.446	1	-8
501.638	1	5
502.829	1	7
504.021	1	5
505.213	1	3
506.404	1	3
507.596	1	10
508.788	1	17
509.979	1	-9
511.171	1	-6
512.362	1	0
513.553	1	-8
514.745	1	-1
515.936	1	-1
517.127	1	4
518.319	1	-1
519.510	1	1
520.701	1	-2
521.892	1	9
523.083	1	-1
524.274	1	7
525.465	1	3
526.656	1	4
527.847	1	0
529.038	1	5
530.229	1	6
531.419	1	1
532.610	1	1
533.801	1	6
534.991	1	4
536.182	1	-1
537.373	1	5
538.563	1	11
539.754	1	5
540.944	1	0
542.134	1	7
543.325	1	1
544.515	1	2
545.705	1	-6
546.896	1	1
548.086	1	-4
549.276	1	-7
550.466	1	1
551.656	1	1
552.846	1	1
554.036	1	2
555.226	1	2
556.416	1	0
557.606	1	4
558.796	1	5
559.986	1	-3
561.175	1	-3
562.365	1	4
563.555	1	-8
564.744	1	3
565.934	1	6
567.123	1	-2
568.313	1	7
569.502	1	0
570.692	1	-6
571.881	1	13
573.070	1	-3
574.260	1	12
575.449	1	-10
576.638	1	-6
577.827	1	-8
579.016	1	5
580.205	1	2
581.394	1	-2
582.583	1	5
583.772	1	8
584.961	1	11
586.150	1	-2
587.339	1	-8
588.528	1	12
589.717	1	6
590.905	1	-1
592.094	1	1
593.283	1	0
594.471	1	19
595.660	1	-3
596.848	1	-9
598.037	1	-5
599.225	1	-3
600.413	1	5
601.602	1	9
602.790	1	-8
603.978	1	1
605.166	1	-4
606.355	1	-5
607.543	1	2
608.731	1	5
609.919	1	5
611.107	1	-6
612.295	1	3
613.483	1	1
614.671	1	0
615.858	1	5
617.046	1	5
618.234	1	2
619.422	1	0
620.609	1	4
621.797	1	-1
622.985	1	2
624.172	1	2
625.360	1	-4
626.547	1	-4
627.735	1	12
628.922	1	-1
630.109	1	-10
631.297	1	6
632.484	1	-2
633.671	1	3
634.858	1	-1
636.045	1	6
637.232	1	-1
638.419	1	-2
639.606	1	6
640.793	1	7
641.980	1	7
643.167	1	-7
644.354	1	2
645.541	1	4
646.728	1	3
647.914	1	-3
649.101	1	-1
650.288	1	5
651.474	1	5
652.661	1	-6
653.847	1	10
655.034	1	1
656.220	1	-11
657.406	1	6
658.593	1	9
659.779	1	5
660.965	1	11
662.152	1	-3
663.338	1	3
664.524	1	3
665.710	1	7
666.896	1	-2
668.082	1	2
669.268	1	2
670.454	1	4
671.640	1	6
672.826	1	0
674.011	1	3
675.197	1	-14
676.383	1	6
677.569	1	2
678.754	1	-7
679.940	1	6
681.125	1	0
682.311	1	2
683.496	1	7
684.682	1	-9
685.867	1	4
687.053	1	5
688.238	1	9
688.746	1	-9

File: GaN_sample F_spot 12_UVVIS_200 K_200um_800 ms 2x2mm1_31.txt
340.368	1	10
341.565	1	-4
342.763	1	5
343.960	1	7
345.157	1	-1
346.354	1	2
347.552	1	3
348.749	1	-7
349.946	1	-4
351.143	1	0
352.340	1	7
353.537	1	-4
354.734	1	0
355.931	1	0
357.127	1	3
358.324	1	3
359.521	1	6
360.718	1	4
361.914	1	4
363.111	1	6
364.308	1	-3
365.504	1	3
366.701	1	-8
367.897	1	-1
369.093	1	-4
370.290	1	0
371.486	1	0
372.682	1	13
373.879	1	-4
375.075	1	-6
376.271	1	9
377.467	1	0
378.663	1	3
379.859	1	-1
381.055	1	10
382.251	1	-9
383.447	1	-1
384.643	1	7
385.839	1	6
387.035	1	0
388.230	1	5
389.426	1	7
390.622	1	-3
391.817	1	5
393.013	1	1
394.208	1	4
395.404	1	-2
396.599	1	-2
397.795	1	6
398.990	1	3
400.186	1	2
401.381	1	1
402.576	1	-3
403.771	1	1
404.967	1	2
406.162	1	5
407.357	1	9
408.552	1	0
409.747	1	-2
410.942	1	5
412.137	1	6
413.332	1	7
414.526	1	7
415.721	1	1
416.916	1	-7
418.111	1	2
419.305	1	0
420.500	1	-4
421.695	1	5
422.889	1	-4
424.084	1	-2
425.278	1	4
426.472	1	-5
427.667	1	15
428.861	1	4
430.055	1	9
431.250	1	4
432.444	1	9
433.638	1	-4
434.832	1	-3
436.026	1	6
437.220	1	3
438.414	1	-9
439.608	1	-8
440.802	1	-8
441.996	1	4
443.190	1	-5
444.384	1	-4
445.578	1	4
446.771	1	7
447.965	1	5
449.159	1	-8
450.352	1	8
451.546	1	1
452.739	1	6
453.933	1	-4
455.126	1	-8
456.320	1	1
457.513	1	7
458.706	1	7
459.899	1	4
461.093	1	12
462.286	1	1
463.479	1	-5
464.672	1	0
465.865	1	-11
467.058	1	-3
468.251	1	-4
469.444	1	-9
470.637	1	5
471.830	1	2
473.023	1	-4
474.215	1	10
475.408	1	2
476.601	1	-4
477.793	1	-2
478.986	1	-2
480.179	1	3
481.371	1	0
482.564	1	-1
483.756	1	6
484.948	1	-3
486.141	1	4
487.333	1	1
488.525	1	0
489.718	1	8
490.910	1	3
492.102	1	1
493.294	1	-6
494.486	1	6
495.678	1	-1
496.870	1	2
498.062	1	-7
499.254	1	0
500.446	1	-9
501.638	1	-7
502.829	1	4
504.021	1	-4
505.213	1	7
506.404	1	-8
507.596	1	0
508.788	1	3
509.979	1	-1
511.171	1	1
512.362	1	-2
513.553	1	-10
514.745	1	-7
515.936	1	4
517.127	1	-4
518.319	1	0
519.510	1	-3
520.701	1	10
521.892	1	7
523.083	1	3
524.274	1	0
525.465	1	4
526.656	1	1
527.847	1	3
529.038	1	-1
530.229	1	0
531.419	1	3
532.610	1	-1
533.801	1	13
534.991	1	6
536.182	1	2
537.373	1	4
538.563	1	6
539.754	1	3
540.944	1	-2
542.134	1	6
543.325	1	0
544.515	1	1
545.705	1	1
546.896	1	-10
548.086	1	2
549.276	1	0
550.466	1	3
551.656	1	9
552.846	1	-2
554.036	1	-6
555.226	1	-11
556.416	1	-2
557.606	1	-1
558.796	1	-4
559.986	1	-6
561.175	1	11
562.365	1	0
563.555	1	-4
564.744	1	-2
565.934	1	9
567.123	1	8
568.313	1	-1
569.502	1	-4
570.692	1	3
571.881	1	5
573.070	1	2
574.260	1	-1
575.449	1	3
576.638	1	0
577.827	1	-5
579.016	1	9
580.205	1	9
581.394	1	-2
582.583	1	7
583.772	1	8
584.961	1	2
586.150	1	1
587.339	1	6
588.528	1	12
589.717	1	-1
590.905	1	-2
592.094	1	-6
593.283	1	-1
594.471	1	12
595.660	1	-1
596.848	1	4
598.037	1	6
599.225	1	-13
600.413	1	9
601.602	1	13
602.790	1	7
603.978	1	-1
605.166	1	2
606.355	1	10
607.543	1	5
608.731	1	-5
609.919	1	11
611.107	1	3
612.295	1	1
613.483	1	-10
614.671	1	1
615.858	1	11
617.046	1	-4
618.234	1	0
619.422	1	-12
620.609	1	6
621.797	1	-7
622.985	1	-3
624.172	1	-4
625.360	1	-4
626.547	1	6
627.735	1	0
628.922	1	1
630.109	1	3
631.297	1	-1
632.484	1	-7
633.671	1	-2
634.858	1	-6
636.045	1	9
637.232	1	-5
638.419	1	-5
639.606	1	7
640.793	1	13
641.980	1	9
643.167	1	-3
644.354	1	2
645.541	1	6
646.728	1	-4
647.914	1	-5
649.101	1	-1
650.288	1	3
651.474	1	1
652.661	1	-5
653.847	1	7
655.034	1	-3
656.220	1	-6
657.406	1	-5
658.593	1	3
659.779	1	3
660.965	1	12
662.152	1	3
663.338	1	9
664.524	1	0
665.710	1	3
666.896	1	-2
668.082	1	2
669.268	1	6
670.454	1	4
671.640	1	3
672.826	1	0
674.011	1	0
675.197	1	-5
676.383	1	8
677.569	1	-2
678.754	1	0
679.940	1	2
681.125	1	7
682.311	1	8
683.496	1	3
684.682	1	-5
685.867	1	2
687.053	1	1
688.238	1	4
688.746	1	-2

File: GaN_sample F_spot 12_UVVIS_200 K_200um_800 ms 2x2mm1_32.txt
340.368	1	-4
341.565	1	-7
342.763	1	2
343.960	1	9
345.157	1	1
346.354	1	-1
347.552	1	3
348.749	1	-5
349.946	1	-9
351.143	1	1
352.340	1	-3
353.537	1	-5
354.734	1	-4
355.931	1	3
357.127	1	-4
358.324	1	-2
359.521	1	4
360.718	1	1
361.914	1	12
363.111	1	3
364.308	1	-5
365.504	1	5
366.701	1	-5
367.897	1	1
369.093	1	-9
370.290	1	0
371.486	1	6
372.682	1	6
373.879	1	-3
375.075	1	-2
376.271	1	8
377.467	1	3
378.663	1	-5
379.859	1	0
381.055	1	13
382.251	1	-8
383.447	1	-3
384.643	1	6
385.839	1	-8
387.035	1	8
388.230	1	16
389.426	1	1
390.622	1	-8
391.817	1	1
393.013	1	-2
394.208	1	5
395.404	1	-1
396.599	1	4
397.795	1	7
398.990	1	1
400.186	1	-1
401.381	1	-10
402.576	1	4
403.771	1	2
404.967	1	5
406.162	1	8
407.357	1	3
408.552	1	-3
409.747	1	3
410.942	1	1
412.137	1	5
413.332	1	9
414.526	1	-6
415.721	1	2
416.916	1	-5
418.111	1	-2
419.305	1	8
420.500	1	0
421.695	1	-2
422.889	1	-5
424.084	1	5
425.278	1	16
426.472	1	3
427.667	1	10
428.861	1	1
430.055	1	1
431.250	1	-3
432.444	1	8
433.638	1	0
434.832	1	1
436.026	1	12
437.220	1	12
438.414	1	-7
439.608	1	-5
440.802	1	0
441.996	1	6
443.190	1	9
444.384	1	-4
445.578	1	-9
446.771	1	6
447.965	1	-2
449.159	1	-7
450.352	1	4
451.546	1	2
452.739	1	6
453.933	1	2
455.126	1	0
456.320	1	16
457.513	1	5
458.706	1	-3
459.899	1	7
461.093	1	-2
462.286	1	12
463.479	1	2
464.672	1	2
465.865	1	5
467.058	1	0
468.251	1	2
469.444	1	-6
470.637	1	4
471.830	1	-1
473.023	1	6
474.215	1	9
475.408	1	1
476.601	1	3
477.793	1	-1
478.986	1	3
480.179	1	1
481.371	1	6
482.564	1	-3
483.756	1	6
484.948	1	3
486.141	1	-2
487.333	1	6
488.525	1	2
489.718	1	0
490.910	1	-1
492.102	1	2
493.294	1	4
494.486	1	9
495.678	1	-2
496.870	1	12
498.062	1	2
499.254	1	3
500.446	1	-5
501.638	1	-7
502.829	1	-3
504.021	1	10
505.213	1	11
506.404	1	4
507.596	1	-3
508.788	1	14
509.979	1	-7
511.171	1	1
512.362	1	-10
513.553	1	-11
514.745	1	-2
515.936	1	-5
517.127	1	-1
518.319	1	2
519.510	1	-7
520.701	1	1
521.892	1	-5
523.083	1	-4
524.274	1	-3
525.465	1	8
526.656	1	3
527.847	1	0
529.038	1	-1
530.229	1	6
531.419	1	8
532.610	1	-1
533.801	1	16
534.991	1	-3
536.182	1	1
537.373	1	6
538.563	1	8
539.754	1	2
540.944	1	-2
542.134	1	9
543.325	1	2
544.515	1	-4
545.705	1	4
546.896	1	1
548.086	1	4
549.276	1	-4
550.466	1	2
551.656	1	12
552.846	1	9
554.036	1	3
555.226	1	-13
556.416	1	-2
557.606	1	4
558.796	1	6
559.986	1	-5
561.175	1	5
562.365	1	8
563.555	1	-2
564.744	1	14
565.934	1	8
567.123	1	-4
568.313	1	3
569.502	1	-5
570.692	1	2
571.881	1	8
573.070	1	2
574.260	1	0
575.449	1	-6
576.638	1	-3
577.827	1	5
579.016	1	12
580.205	1	2
581.394	1	-5
582.583	1	11
583.772	1	6
584.961	1	-3
586.150	1	0
587.339	1	4
588.528	1	9
589.717	1	8
590.905	1	-4
592.094	1	-12
593.283	1	-2
594.471	1	6
595.660	1	5
596.848	1	-3
598.037	1	3
599.225	1	-11
600.413	1	12
601.602	1	14
602.790	1	2
603.978	1	-5
605.166	1	2
606.355	1	7
607.543	1	12
608.731	1	3
609.919	1	5
611.107	1	4
612.295	1	3
613.483	1	5
614.671	1	6
615.858	1	7
617.046	1	2
618.234	1	1
619.422	1	-3
620.609	1	4
621.797	1	-7
622.985	1	7
624.172	1	4
625.360	1	7
626.547	1	10
627.735	1	5
628.922	1	6
630.109	1	-12
631.297	1	-3
632.484	1	-5
633.671	1	7
634.858	1	-5
636.045	1	9
637.232	1	-3
638.419	1	-7
639.606	1	2
640.793	1	5
641.980	1	4
643.167	1	-5
644.354	1	-7
645.541	1	0
646.728	1	-3
647.914	1	1
649.101	1	-1
650.288	1	7
651.474	1	3
652.661	1	-2
653.847	1	-1
655.034	1	12
656.220	1	-8
657.406	1	9
658.593	1	6
659.779	1	5
660.965	1	8
662.152	1	0
663.338	1	15
664.524	1	0
665.710	1	2
666.896	1	-2
668.082	1	1
669.268	1	-1
670.454	1	9
671.640	1	-1
672.826	1	1
674.011	1	-1
675.197	1	-8
676.383	1	9
677.569	1	-3
678.754	1	-2
679.940	1	-3
681.125	1	2
682.311	1	5
683.496	1	-4
684.682	1	1
685.867	1	2
687.053	1	-7
688.238	1	9
688.746	1	2