Folder: cryo-il_analysis/Data/GaN_200K_800ms (part 27)

File: GaN_sample F_spot 12_UVVIS_200 K_200um_800 ms 2x2mm1_242.txt
340.368	1	2
341.565	1	-2
342.763	1	5
343.960	1	-2
345.157	1	-7
346.354	1	2
347.552	1	-4
348.749	1	-8
349.946	1	-7
351.143	1	-2
352.340	1	4
353.537	1	-2
354.734	1	2
355.931	1	3
357.127	1	3
358.324	1	2
359.521	1	12
360.718	1	10
361.914	1	7
363.111	1	7
364.308	1	2
365.504	1	27
366.701	1	12
367.897	1	22
369.093	1	22
370.290	1	26
371.486	1	24
372.682	1	24
373.879	1	10
375.075	1	9
376.271	1	12
377.467	1	14
378.663	1	11
379.859	1	2
381.055	1	15
382.251	1	-1
383.447	1	9
384.643	1	9
385.839	1	8
387.035	1	11
388.230	1	12
389.426	1	9
390.622	1	5
391.817	1	6
393.013	1	3
394.208	1	6
395.404	1	-6
396.599	1	-8
397.795	1	4
398.990	1	-6
400.186	1	6
401.381	1	0
402.576	1	-4
403.771	1	7
404.967	1	-5
406.162	1	3
407.357	1	2
408.552	1	-2
409.747	1	-3
410.942	1	9
412.137	1	-1
413.332	1	0
414.526	1	-7
415.721	1	8
416.916	1	-10
418.111	1	-5
419.305	1	12
420.500	1	-6
421.695	1	-3
422.889	1	-3
424.084	1	7
425.278	1	10
426.472	1	6
427.667	1	0
428.861	1	-2
430.055	1	1
431.250	1	-12
432.444	1	5
433.638	1	-1
434.832	1	-5
436.026	1	10
437.220	1	6
438.414	1	-10
439.608	1	-10
440.802	1	0
441.996	1	-5
443.190	1	-1
444.384	1	-16
445.578	1	-18
446.771	1	15
447.965	1	-1
449.159	1	-4
450.352	1	8
451.546	1	0
452.739	1	4
453.933	1	-1
455.126	1	-8
456.320	1	5
457.513	1	6
458.706	1	-2
459.899	1	0
461.093	1	6
462.286	1	2
463.479	1	-2
464.672	1	-4
465.865	1	-3
467.058	1	1
468.251	1	-3
469.444	1	-11
470.637	1	7
471.830	1	-3
473.023	1	3
474.215	1	9
475.408	1	-2
476.601	1	-3
477.793	1	-5
478.986	1	0
480.179	1	4
481.371	1	-1
482.564	1	10
483.756	1	-3
484.948	1	-13
486.141	1	-7
487.333	1	0
488.525	1	2
489.718	1	-6
490.910	1	-1
492.102	1	-7
493.294	1	0
494.486	1	6
495.678	1	-4
496.870	1	8
498.062	1	4
499.254	1	9
500.446	1	-2
501.638	1	-5
502.829	1	-8
504.021	1	3
505.213	1	11
506.404	1	3
507.596	1	-1
508.788	1	14
509.979	1	-3
511.171	1	3
512.362	1	1
513.553	1	-14
514.745	1	-1
515.936	1	-3
517.127	1	2
518.319	1	4
519.510	1	-2
520.701	1	-3
521.892	1	4
523.083	1	1
524.274	1	7
525.465	1	6
526.656	1	1
527.847	1	-4
529.038	1	0
530.229	1	1
531.419	1	1
532.610	1	-2
533.801	1	8
534.991	1	7
536.182	1	10
537.373	1	10
538.563	1	6
539.754	1	4
540.944	1	-2
542.134	1	8
543.325	1	0
544.515	1	-7
545.705	1	-2
546.896	1	-8
548.086	1	-3
549.276	1	-6
550.466	1	3
551.656	1	2
552.846	1	-2
554.036	1	4
555.226	1	-11
556.416	1	-5
557.606	1	-2
558.796	1	9
559.986	1	1
561.175	1	10
562.365	1	4
563.555	1	-4
564.744	1	4
565.934	1	11
567.123	1	6
568.313	1	7
569.502	1	2
570.692	1	-2
571.881	1	10
573.070	1	3
574.260	1	13
575.449	1	-3
576.638	1	-7
577.827	1	-4
579.016	1	13
580.205	1	8
581.394	1	-1
582.583	1	12
583.772	1	-1
584.961	1	5
586.150	1	1
587.339	1	5
588.528	1	1
589.717	1	-2
590.905	1	8
592.094	1	-8
593.283	1	-2
594.471	1	17
595.660	1	2
596.848	1	9
598.037	1	7
599.225	1	-6
600.413	1	9
601.602	1	6
602.790	1	0
603.978	1	6
605.166	1	8
606.355	1	4
607.543	1	3
608.731	1	0
609.919	1	6
611.107	1	6
612.295	1	-2
613.483	1	0
614.671	1	0
615.858	1	3
617.046	1	0
618.234	1	-3
619.422	1	4
620.609	1	-2
621.797	1	0
622.985	1	2
624.172	1	5
625.360	1	3
626.547	1	-4
627.735	1	-1
628.922	1	-1
630.109	1	-4
631.297	1	6
632.484	1	-9
633.671	1	1
634.858	1	-1
636.045	1	3
637.232	1	-3
638.419	1	1
639.606	1	4
640.793	1	5
641.980	1	3
643.167	1	-8
644.354	1	3
645.541	1	6
646.728	1	3
647.914	1	-5
649.101	1	-7
650.288	1	7
651.474	1	-6
652.661	1	2
653.847	1	10
655.034	1	12
656.220	1	-8
657.406	1	3
658.593	1	2
659.779	1	5
660.965	1	3
662.152	1	1
663.338	1	9
664.524	1	0
665.710	1	4
666.896	1	6
668.082	1	4
669.268	1	6
670.454	1	3
671.640	1	10
672.826	1	-6
674.011	1	-4
675.197	1	-8
676.383	1	3
677.569	1	-2
678.754	1	-1
679.940	1	-9
681.125	1	-3
682.311	1	11
683.496	1	1
684.682	1	-2
685.867	1	-2
687.053	1	-1
688.238	1	6
688.746	1	2

File: GaN_sample F_spot 12_UVVIS_200 K_200um_800 ms 2x2mm1_246.txt
340.368	1	6
341.565	1	-12
342.763	1	8
343.960	1	-7
345.157	1	-8
346.354	1	0
347.552	1	4
348.749	1	-7
349.946	1	-6
351.143	1	0
352.340	1	-1
353.537	1	-3
354.734	1	5
355.931	1	-1
357.127	1	2
358.324	1	-5
359.521	1	1
360.718	1	4
361.914	1	2
363.111	1	1
364.308	1	12
365.504	1	18
366.701	1	18
367.897	1	21
369.093	1	20
370.290	1	22
371.486	1	16
372.682	1	23
373.879	1	17
375.075	1	8
376.271	1	17
377.467	1	7
378.663	1	3
379.859	1	4
381.055	1	16
382.251	1	1
383.447	1	-3
384.643	1	15
385.839	1	-1
387.035	1	8
388.230	1	14
389.426	1	-4
390.622	1	5
391.817	1	6
393.013	1	3
394.208	1	-1
395.404	1	-1
396.599	1	-3
397.795	1	4
398.990	1	0
400.186	1	-1
401.381	1	9
402.576	1	7
403.771	1	6
404.967	1	7
406.162	1	6
407.357	1	-3
408.552	1	-1
409.747	1	-2
410.942	1	9
412.137	1	0
413.332	1	5
414.526	1	-2
415.721	1	5
416.916	1	-3
418.111	1	-10
419.305	1	-1
420.500	1	-4
421.695	1	-3
422.889	1	-7
424.084	1	-1
425.278	1	17
426.472	1	5
427.667	1	7
428.861	1	-8
430.055	1	-4
431.250	1	-4
432.444	1	10
433.638	1	-7
434.832	1	4
436.026	1	6
437.220	1	9
438.414	1	-1
439.608	1	-3
440.802	1	-3
441.996	1	7
443.190	1	-3
444.384	1	-9
445.578	1	-1
446.771	1	12
447.965	1	14
449.159	1	0
450.352	1	-11
451.546	1	0
452.739	1	-2
453.933	1	1
455.126	1	-2
456.320	1	0
457.513	1	4
458.706	1	-6
459.899	1	-4
461.093	1	-2
462.286	1	0
463.479	1	-4
464.672	1	-6
465.865	1	3
467.058	1	-6
468.251	1	-3
469.444	1	-5
470.637	1	6
471.830	1	3
473.023	1	-3
474.215	1	6
475.408	1	4
476.601	1	-3
477.793	1	-1
478.986	1	-3
480.179	1	-7
481.371	1	4
482.564	1	0
483.756	1	1
484.948	1	-10
486.141	1	-2
487.333	1	-1
488.525	1	4
489.718	1	5
490.910	1	2
492.102	1	-1
493.294	1	6
494.486	1	7
495.678	1	-1
496.870	1	0
498.062	1	2
499.254	1	-7
500.446	1	-7
501.638	1	9
502.829	1	1
504.021	1	-6
505.213	1	4
506.404	1	7
507.596	1	4
508.788	1	10
509.979	1	-1
511.171	1	-4
512.362	1	-6
513.553	1	-12
514.745	1	3
515.936	1	1
517.127	1	3
518.319	1	2
519.510	1	3
520.701	1	4
521.892	1	11
523.083	1	-4
524.274	1	6
525.465	1	2
526.656	1	0
527.847	1	-6
529.038	1	4
530.229	1	6
531.419	1	19
532.610	1	6
533.801	1	6
534.991	1	4
536.182	1	-3
537.373	1	5
538.563	1	6
539.754	1	4
540.944	1	-1
542.134	1	4
543.325	1	-1
544.515	1	0
545.705	1	0
546.896	1	3
548.086	1	-4
549.276	1	3
550.466	1	8
551.656	1	6
552.846	1	6
554.036	1	-1
555.226	1	-10
556.416	1	-3
557.606	1	6
558.796	1	5
559.986	1	-3
561.175	1	-2
562.365	1	5
563.555	1	-11
564.744	1	-1
565.934	1	5
567.123	1	6
568.313	1	5
569.502	1	-5
570.692	1	9
571.881	1	13
573.070	1	7
574.260	1	16
575.449	1	3
576.638	1	0
577.827	1	4
579.016	1	7
580.205	1	-1
581.394	1	-2
582.583	1	13
583.772	1	6
584.961	1	5
586.150	1	-3
587.339	1	-4
588.528	1	-2
589.717	1	3
590.905	1	6
592.094	1	1
593.283	1	-3
594.471	1	9
595.660	1	3
596.848	1	0
598.037	1	-2
599.225	1	-5
600.413	1	10
601.602	1	7
602.790	1	3
603.978	1	-2
605.166	1	5
606.355	1	2
607.543	1	-2
608.731	1	6
609.919	1	-2
611.107	1	1
612.295	1	-9
613.483	1	1
614.671	1	7
615.858	1	-4
617.046	1	-4
618.234	1	-4
619.422	1	0
620.609	1	8
621.797	1	-5
622.985	1	6
624.172	1	-1
625.360	1	1
626.547	1	14
627.735	1	3
628.922	1	7
630.109	1	-9
631.297	1	3
632.484	1	-4
633.671	1	-4
634.858	1	-5
636.045	1	10
637.232	1	-6
638.419	1	-5
639.606	1	-2
640.793	1	5
641.980	1	8
643.167	1	-5
644.354	1	-8
645.541	1	5
646.728	1	-4
647.914	1	-1
649.101	1	-2
650.288	1	-1
651.474	1	-7
652.661	1	-6
653.847	1	12
655.034	1	4
656.220	1	-5
657.406	1	3
658.593	1	6
659.779	1	5
660.965	1	12
662.152	1	5
663.338	1	7
664.524	1	5
665.710	1	3
666.896	1	-14
668.082	1	4
669.268	1	0
670.454	1	1
671.640	1	5
672.826	1	3
674.011	1	7
675.197	1	-3
676.383	1	-5
677.569	1	-4
678.754	1	1
679.940	1	1
681.125	1	-1
682.311	1	-4
683.496	1	-6
684.682	1	-6
685.867	1	-3
687.053	1	0
688.238	1	12
688.746	1	-3

File: GaN_sample F_spot 12_UVVIS_200 K_200um_800 ms 2x2mm1_247.txt
340.368	1	-1
341.565	1	-15
342.763	1	7
343.960	1	-4
345.157	1	-1
346.354	1	-2
347.552	1	0
348.749	1	1
349.946	1	-7
351.143	1	-4
352.340	1	13
353.537	1	-1
354.734	1	-1
355.931	1	5
357.127	1	-5
358.324	1	-1
359.521	1	3
360.718	1	10
361.914	1	4
363.111	1	5
364.308	1	1
365.504	1	15
366.701	1	28
367.897	1	10
369.093	1	9
370.290	1	18
371.486	1	29
372.682	1	24
373.879	1	14
375.075	1	9
376.271	1	16
377.467	1	13
378.663	1	5
379.859	1	8
381.055	1	10
382.251	1	-3
383.447	1	1
384.643	1	17
385.839	1	-1
387.035	1	-1
388.230	1	11
389.426	1	3
390.622	1	0
391.817	1	7
393.013	1	0
394.208	1	4
395.404	1	-7
396.599	1	7
397.795	1	-7
398.990	1	-4
400.186	1	-9
401.381	1	-5
402.576	1	-3
403.771	1	-1
404.967	1	4
406.162	1	6
407.357	1	-8
408.552	1	-9
409.747	1	11
410.942	1	6
412.137	1	10
413.332	1	2
414.526	1	-8
415.721	1	-4
416.916	1	-5
418.111	1	2
419.305	1	1
420.500	1	-1
421.695	1	-12
422.889	1	-1
424.084	1	8
425.278	1	9
426.472	1	7
427.667	1	-5
428.861	1	8
430.055	1	2
431.250	1	-5
432.444	1	-2
433.638	1	-11
434.832	1	3
436.026	1	14
437.220	1	3
438.414	1	-14
439.608	1	-5
440.802	1	1
441.996	1	1
443.190	1	-1
444.384	1	-5
445.578	1	-12
446.771	1	4
447.965	1	1
449.159	1	-7
450.352	1	-2
451.546	1	3
452.739	1	-1
453.933	1	-1
455.126	1	-4
456.320	1	0
457.513	1	-2
458.706	1	2
459.899	1	1
461.093	1	3
462.286	1	-7
463.479	1	-6
464.672	1	-4
465.865	1	-7
467.058	1	2
468.251	1	-1
469.444	1	-11
470.637	1	1
471.830	1	11
473.023	1	0
474.215	1	15
475.408	1	2
476.601	1	1
477.793	1	0
478.986	1	-2
480.179	1	5
481.371	1	-1
482.564	1	-7
483.756	1	9
484.948	1	-9
486.141	1	-7
487.333	1	0
488.525	1	-1
489.718	1	6
490.910	1	1
492.102	1	-7
493.294	1	-2
494.486	1	17
495.678	1	-4
496.870	1	-4
498.062	1	-2
499.254	1	2
500.446	1	-6
501.638	1	-9
502.829	1	-1
504.021	1	7
505.213	1	-1
506.404	1	-4
507.596	1	4
508.788	1	20
509.979	1	-2
511.171	1	-1
512.362	1	-6
513.553	1	-2
514.745	1	-7
515.936	1	-4
517.127	1	7
518.319	1	1
519.510	1	-6
520.701	1	0
521.892	1	4
523.083	1	-4
524.274	1	-7
525.465	1	14
526.656	1	1
527.847	1	-5
529.038	1	7
530.229	1	3
531.419	1	8
532.610	1	-1
533.801	1	20
534.991	1	4
536.182	1	0
537.373	1	-2
538.563	1	10
539.754	1	18
540.944	1	1
542.134	1	6
543.325	1	4
544.515	1	-2
545.705	1	-3
546.896	1	3
548.086	1	6
549.276	1	6
550.466	1	4
551.656	1	0
552.846	1	2
554.036	1	-4
555.226	1	-5
556.416	1	-1
557.606	1	-3
558.796	1	-1
559.986	1	-9
561.175	1	10
562.365	1	7
563.555	1	0
564.744	1	4
565.934	1	2
567.123	1	7
568.313	1	4
569.502	1	-12
570.692	1	1
571.881	1	7
573.070	1	1
574.260	1	3
575.449	1	-8
576.638	1	-5
577.827	1	6
579.016	1	13
580.205	1	-6
581.394	1	-2
582.583	1	12
583.772	1	5
584.961	1	2
586.150	1	1
587.339	1	3
588.528	1	-2
589.717	1	12
590.905	1	6
592.094	1	3
593.283	1	2
594.471	1	16
595.660	1	-3
596.848	1	3
598.037	1	9
599.225	1	-3
600.413	1	6
601.602	1	11
602.790	1	-3
603.978	1	1
605.166	1	6
606.355	1	5
607.543	1	0
608.731	1	0
609.919	1	7
611.107	1	-5
612.295	1	-1
613.483	1	-1
614.671	1	4
615.858	1	-3
617.046	1	-7
618.234	1	-1
619.422	1	-11
620.609	1	0
621.797	1	-5
622.985	1	9
624.172	1	-1
625.360	1	5
626.547	1	-1
627.735	1	-6
628.922	1	-1
630.109	1	-14
631.297	1	-3
632.484	1	-5
633.671	1	-2
634.858	1	-2
636.045	1	21
637.232	1	3
638.419	1	-4
639.606	1	13
640.793	1	14
641.980	1	2
643.167	1	-5
644.354	1	2
645.541	1	-7
646.728	1	4
647.914	1	-7
649.101	1	-7
650.288	1	4
651.474	1	-5
652.661	1	-7
653.847	1	17
655.034	1	2
656.220	1	-9
657.406	1	-1
658.593	1	4
659.779	1	11
660.965	1	11
662.152	1	8
663.338	1	9
664.524	1	-4
665.710	1	-5
666.896	1	-5
668.082	1	1
669.268	1	6
670.454	1	8
671.640	1	2
672.826	1	-3
674.011	1	4
675.197	1	-1
676.383	1	3
677.569	1	-3
678.754	1	-5
679.940	1	-6
681.125	1	7
682.311	1	6
683.496	1	8
684.682	1	-3
685.867	1	13
687.053	1	1
688.238	1	12
688.746	1	3

File: GaN_sample F_spot 12_UVVIS_200 K_200um_800 ms 2x2mm1_248.txt
340.368	1	7
341.565	1	-4
342.763	1	-2
343.960	1	0
345.157	1	3
346.354	1	-3
347.552	1	0
348.749	1	-4
349.946	1	-4
351.143	1	4
352.340	1	5
353.537	1	8
354.734	1	7
355.931	1	0
357.127	1	2
358.324	1	3
359.521	1	5
360.718	1	-1
361.914	1	18
363.111	1	2
364.308	1	5
365.504	1	25
366.701	1	18
367.897	1	18
369.093	1	21
370.290	1	22
371.486	1	29
372.682	1	26
373.879	1	14
375.075	1	20
376.271	1	16
377.467	1	11
378.663	1	3
379.859	1	3
381.055	1	10
382.251	1	7
383.447	1	1
384.643	1	7
385.839	1	6
387.035	1	10
388.230	1	15
389.426	1	-5
390.622	1	-3
391.817	1	1
393.013	1	-8
394.208	1	4
395.404	1	-1
396.599	1	-5
397.795	1	4
398.990	1	1
400.186	1	2
401.381	1	-4
402.576	1	1
403.771	1	12
404.967	1	1
406.162	1	6
407.357	1	7
408.552	1	-3
409.747	1	-2
410.942	1	1
412.137	1	11
413.332	1	2
414.526	1	-7
415.721	1	9
416.916	1	0
418.111	1	5
419.305	1	3
420.500	1	-2
421.695	1	-3
422.889	1	-5
424.084	1	1
425.278	1	1
426.472	1	-4
427.667	1	8
428.861	1	-5
430.055	1	5
431.250	1	-5
432.444	1	15
433.638	1	0
434.832	1	3
436.026	1	9
437.220	1	5
438.414	1	-9
439.608	1	-13
440.802	1	-7
441.996	1	8
443.190	1	-1
444.384	1	-1
445.578	1	-5
446.771	1	8
447.965	1	3
449.159	1	0
450.352	1	-2
451.546	1	2
452.739	1	4
453.933	1	5
455.126	1	-3
456.320	1	2
457.513	1	1
458.706	1	-4
459.899	1	6
461.093	1	-3
462.286	1	-1
463.479	1	0
464.672	1	0
465.865	1	1
467.058	1	-9
468.251	1	-1
469.444	1	-3
470.637	1	9
471.830	1	-3
473.023	1	2
474.215	1	9
475.408	1	0
476.601	1	1
477.793	1	-10
478.986	1	-5
480.179	1	-3
481.371	1	0
482.564	1	5
483.756	1	1
484.948	1	0
486.141	1	-4
487.333	1	-7
488.525	1	4
489.718	1	-10
490.910	1	-4
492.102	1	-4
493.294	1	-5
494.486	1	-3
495.678	1	3
496.870	1	-2
498.062	1	-9
499.254	1	-7
500.446	1	-6
501.638	1	-6
502.829	1	-1
504.021	1	-4
505.213	1	7
506.404	1	7
507.596	1	6
508.788	1	16
509.979	1	-9
511.171	1	-1
512.362	1	-8
513.553	1	-10
514.745	1	-7
515.936	1	-1
517.127	1	-1
518.319	1	-4
519.510	1	0
520.701	1	9
521.892	1	-5
523.083	1	-8
524.274	1	2
525.465	1	2
526.656	1	10
527.847	1	1
529.038	1	1
530.229	1	-1
531.419	1	3
532.610	1	-2
533.801	1	14
534.991	1	2
536.182	1	-3
537.373	1	-3
538.563	1	8
539.754	1	-4
540.944	1	-4
542.134	1	10
543.325	1	-1
544.515	1	-1
545.705	1	0
546.896	1	-10
548.086	1	-2
549.276	1	-1
550.466	1	0
551.656	1	8
552.846	1	2
554.036	1	2
555.226	1	-5
556.416	1	-2
557.606	1	-4
558.796	1	4
559.986	1	1
561.175	1	10
562.365	1	3
563.555	1	-12
564.744	1	7
565.934	1	-3
567.123	1	4
568.313	1	1
569.502	1	2
570.692	1	1
571.881	1	13
573.070	1	12
574.260	1	17
575.449	1	-7
576.638	1	-8
577.827	1	-4
579.016	1	14
580.205	1	-4
581.394	1	-1
582.583	1	12
583.772	1	5
584.961	1	6
586.150	1	2
587.339	1	2
588.528	1	3
589.717	1	-4
590.905	1	4
592.094	1	-1
593.283	1	13
594.471	1	10
595.660	1	1
596.848	1	4
598.037	1	3
599.225	1	-17
600.413	1	5
601.602	1	18
602.790	1	-4
603.978	1	3
605.166	1	5
606.355	1	2
607.543	1	-1
608.731	1	-3
609.919	1	11
611.107	1	3
612.295	1	-6
613.483	1	3
614.671	1	1
615.858	1	0
617.046	1	3
618.234	1	2
619.422	1	-11
620.609	1	12
621.797	1	-4
622.985	1	5
624.172	1	4
625.360	1	6
626.547	1	-2
627.735	1	0
628.922	1	-1
630.109	1	-7
631.297	1	4
632.484	1	-13
633.671	1	-1
634.858	1	-7
636.045	1	11
637.232	1	2
638.419	1	-14
639.606	1	1
640.793	1	9
641.980	1	7
643.167	1	-10
644.354	1	12
645.541	1	3
646.728	1	3
647.914	1	-5
649.101	1	-5
650.288	1	3
651.474	1	0
652.661	1	4
653.847	1	5
655.034	1	-6
656.220	1	-7
657.406	1	10
658.593	1	14
659.779	1	2
660.965	1	13
662.152	1	1
663.338	1	7
664.524	1	-4
665.710	1	-4
666.896	1	-6
668.082	1	2
669.268	1	4
670.454	1	-2
671.640	1	1
672.826	1	-12
674.011	1	-1
675.197	1	-11
676.383	1	2
677.569	1	-3
678.754	1	-5
679.940	1	3
681.125	1	11
682.311	1	1
683.496	1	1
684.682	1	-3
685.867	1	8
687.053	1	-2
688.238	1	-5
688.746	1	4

File: GaN_sample F_spot 12_UVVIS_200 K_200um_800 ms 2x2mm1_257.txt
340.368	1	8
341.565	1	-3
342.763	1	3
343.960	1	10
345.157	1	-14
346.354	1	0
347.552	1	-1
348.749	1	-8
349.946	1	-3
351.143	1	3
352.340	1	1
353.537	1	-1
354.734	1	4
355.931	1	-3
357.127	1	3
358.324	1	0
359.521	1	6
360.718	1	8
361.914	1	14
363.111	1	8
364.308	1	9
365.504	1	15
366.701	1	14
367.897	1	22
369.093	1	19
370.290	1	27
371.486	1	22
372.682	1	24
373.879	1	17
375.075	1	10
376.271	1	18
377.467	1	12
378.663	1	3
379.859	1	-1
381.055	1	8
382.251	1	-1
383.447	1	-1
384.643	1	12
385.839	1	1
387.035	1	-1
388.230	1	5
389.426	1	0
390.622	1	-9
391.817	1	11
393.013	1	4
394.208	1	-4
395.404	1	4
396.599	1	3
397.795	1	5
398.990	1	6
400.186	1	-2
401.381	1	-5
402.576	1	-1
403.771	1	6
404.967	1	6
406.162	1	4
407.357	1	2
408.552	1	-1
409.747	1	1
410.942	1	13
412.137	1	3
413.332	1	6
414.526	1	1
415.721	1	6
416.916	1	-4
418.111	1	-5
419.305	1	4
420.500	1	-2
421.695	1	4
422.889	1	-8
424.084	1	-2
425.278	1	10
426.472	1	2
427.667	1	7
428.861	1	-4
430.055	1	2
431.250	1	-3
432.444	1	11
433.638	1	-1
434.832	1	4
436.026	1	8
437.220	1	2
438.414	1	-12
439.608	1	-5
440.802	1	1
441.996	1	-4
443.190	1	-1
444.384	1	-15
445.578	1	-12
446.771	1	8
447.965	1	6
449.159	1	-4
450.352	1	-4
451.546	1	-2
452.739	1	-4
453.933	1	-9
455.126	1	-5
456.320	1	2
457.513	1	-1
458.706	1	-4
459.899	1	6
461.093	1	1
462.286	1	0
463.479	1	-2
464.672	1	-1
465.865	1	-2
467.058	1	3
468.251	1	2
469.444	1	-4
470.637	1	10
471.830	1	7
473.023	1	1
474.215	1	5
475.408	1	-3
476.601	1	0
477.793	1	-2
478.986	1	4
480.179	1	8
481.371	1	5
482.564	1	1
483.756	1	4
484.948	1	-10
486.141	1	-1
487.333	1	-1
488.525	1	0
489.718	1	0
490.910	1	0
492.102	1	-3
493.294	1	-10
494.486	1	2
495.678	1	8
496.870	1	-8
498.062	1	-4
499.254	1	6
500.446	1	-10
501.638	1	-11
502.829	1	-2
504.021	1	6
505.213	1	11
506.404	1	-3
507.596	1	9
508.788	1	20
509.979	1	-6
511.171	1	-3
512.362	1	1
513.553	1	-4
514.745	1	-10
515.936	1	3
517.127	1	3
518.319	1	-4
519.510	1	-5
520.701	1	7
521.892	1	6
523.083	1	-4
524.274	1	2
525.465	1	10
526.656	1	3
527.847	1	-1
529.038	1	7
530.229	1	-1
531.419	1	3
532.610	1	-5
533.801	1	12
534.991	1	-6
536.182	1	1
537.373	1	-1
538.563	1	5
539.754	1	-1
540.944	1	-10
542.134	1	-3
543.325	1	2
544.515	1	-6
545.705	1	-5
546.896	1	3
548.086	1	1
549.276	1	-4
550.466	1	3
551.656	1	5
552.846	1	7
554.036	1	-3
555.226	1	-1
556.416	1	-11
557.606	1	6
558.796	1	1
559.986	1	0
561.175	1	14
562.365	1	7
563.555	1	-9
564.744	1	3
565.934	1	8
567.123	1	12
568.313	1	9
569.502	1	-5
570.692	1	9
571.881	1	12
573.070	1	-2
574.260	1	8
575.449	1	0
576.638	1	5
577.827	1	-3
579.016	1	16
580.205	1	3
581.394	1	7
582.583	1	20
583.772	1	4
584.961	1	1
586.150	1	-6
587.339	1	8
588.528	1	3
589.717	1	9
590.905	1	-11
592.094	1	-8
593.283	1	3
594.471	1	7
595.660	1	3
596.848	1	-7
598.037	1	-3
599.225	1	-7
600.413	1	3
601.602	1	6
602.790	1	5
603.978	1	6
605.166	1	7
606.355	1	4
607.543	1	-2
608.731	1	-2
609.919	1	8
611.107	1	-7
612.295	1	-6
613.483	1	5
614.671	1	5
615.858	1	10
617.046	1	-4
618.234	1	-2
619.422	1	-5
620.609	1	4
621.797	1	-3
622.985	1	9
624.172	1	-2
625.360	1	2
626.547	1	6
627.735	1	4
628.922	1	6
630.109	1	-11
631.297	1	3
632.484	1	3
633.671	1	-2
634.858	1	1
636.045	1	10
637.232	1	-9
638.419	1	0
639.606	1	-1
640.793	1	12
641.980	1	0
643.167	1	-2
644.354	1	1
645.541	1	0
646.728	1	-1
647.914	1	0
649.101	1	-4
650.288	1	0
651.474	1	-1
652.661	1	-5
653.847	1	4
655.034	1	1
656.220	1	-9
657.406	1	12
658.593	1	8
659.779	1	0
660.965	1	3
662.152	1	-1
663.338	1	13
664.524	1	1
665.710	1	1
666.896	1	0
668.082	1	-1
669.268	1	2
670.454	1	4
671.640	1	7
672.826	1	0
674.011	1	-5
675.197	1	-4
676.383	1	-2
677.569	1	-10
678.754	1	-2
679.940	1	3
681.125	1	-1
682.311	1	4
683.496	1	3
684.682	1	-7
685.867	1	5
687.053	1	2
688.238	1	6
688.746	1	-5

File: GaN_sample F_spot 12_UVVIS_200 K_200um_800 ms 2x2mm1_260.txt
340.368	1	10
341.565	1	-7
342.763	1	9
343.960	1	1
345.157	1	-1
346.354	1	4
347.552	1	-5
348.749	1	-5
349.946	1	-8
351.143	1	0
352.340	1	0
353.537	1	-7
354.734	1	8
355.931	1	2
357.127	1	6
358.324	1	1
359.521	1	2
360.718	1	0
361.914	1	8
363.111	1	12
364.308	1	5
365.504	1	15
366.701	1	10
367.897	1	16
369.093	1	14
370.290	1	14
371.486	1	21
372.682	1	25
373.879	1	14
375.075	1	15
376.271	1	19
377.467	1	4
378.663	1	4
379.859	1	3
381.055	1	12
382.251	1	-1
383.447	1	5
384.643	1	11
385.839	1	-3
387.035	1	10
388.230	1	10
389.426	1	3
390.622	1	0
391.817	1	-1
393.013	1	-8
394.208	1	2
395.404	1	-3
396.599	1	-6
397.795	1	8
398.990	1	4
400.186	1	6
401.381	1	-4
402.576	1	1
403.771	1	4
404.967	1	2
406.162	1	16
407.357	1	-3
408.552	1	-12
409.747	1	5
410.942	1	3
412.137	1	11
413.332	1	1
414.526	1	-1
415.721	1	-3
416.916	1	-9
418.111	1	-1
419.305	1	-2
420.500	1	-2
421.695	1	-2
422.889	1	-8
424.084	1	2
425.278	1	4
426.472	1	3
427.667	1	7
428.861	1	-5
430.055	1	7
431.250	1	-4
432.444	1	6
433.638	1	6
434.832	1	5
436.026	1	11
437.220	1	6
438.414	1	-18
439.608	1	-13
440.802	1	-2
441.996	1	3
443.190	1	0
444.384	1	-9
445.578	1	-14
446.771	1	16
447.965	1	3
449.159	1	-2
450.352	1	-4
451.546	1	3
452.739	1	9
453.933	1	4
455.126	1	-5
456.320	1	-5
457.513	1	-8
458.706	1	3
459.899	1	0
461.093	1	-5
462.286	1	-7
463.479	1	-4
464.672	1	-4
465.865	1	-9
467.058	1	-7
468.251	1	-5
469.444	1	-8
470.637	1	-3
471.830	1	-1
473.023	1	5
474.215	1	0
475.408	1	7
476.601	1	-10
477.793	1	-2
478.986	1	3
480.179	1	1
481.371	1	-1
482.564	1	1
483.756	1	13
484.948	1	1
486.141	1	-5
487.333	1	5
488.525	1	-6
489.718	1	-6
490.910	1	0
492.102	1	-8
493.294	1	-6
494.486	1	1
495.678	1	-1
496.870	1	5
498.062	1	1
499.254	1	0
500.446	1	-7
501.638	1	-6
502.829	1	3
504.021	1	-5
505.213	1	5
506.404	1	1
507.596	1	2
508.788	1	12
509.979	1	-4
511.171	1	-3
512.362	1	-11
513.553	1	-14
514.745	1	-3
515.936	1	-2
517.127	1	-15
518.319	1	4
519.510	1	2
520.701	1	1
521.892	1	2
523.083	1	3
524.274	1	6
525.465	1	10
526.656	1	-2
527.847	1	4
529.038	1	8
530.229	1	4
531.419	1	11
532.610	1	-6
533.801	1	16
534.991	1	1
536.182	1	-2
537.373	1	4
538.563	1	11
539.754	1	11
540.944	1	-3
542.134	1	11
543.325	1	9
544.515	1	-4
545.705	1	4
546.896	1	-4
548.086	1	9
549.276	1	1
550.466	1	9
551.656	1	5
552.846	1	5
554.036	1	2
555.226	1	-3
556.416	1	-6
557.606	1	1
558.796	1	5
559.986	1	-7
561.175	1	7
562.365	1	8
563.555	1	-2
564.744	1	-1
565.934	1	13
567.123	1	-3
568.313	1	5
569.502	1	-8
570.692	1	8
571.881	1	11
573.070	1	2
574.260	1	12
575.449	1	-7
576.638	1	-12
577.827	1	-1
579.016	1	12
580.205	1	0
581.394	1	-3
582.583	1	6
583.772	1	5
584.961	1	7
586.150	1	3
587.339	1	4
588.528	1	2
589.717	1	-2
590.905	1	-1
592.094	1	-2
593.283	1	6
594.471	1	8
595.660	1	0
596.848	1	-1
598.037	1	5
599.225	1	-8
600.413	1	10
601.602	1	9
602.790	1	-3
603.978	1	3
605.166	1	6
606.355	1	15
607.543	1	-2
608.731	1	8
609.919	1	6
611.107	1	-3
612.295	1	-7
613.483	1	0
614.671	1	9
615.858	1	6
617.046	1	1
618.234	1	-4
619.422	1	-5
620.609	1	2
621.797	1	-12
622.985	1	-6
624.172	1	-8
625.360	1	-1
626.547	1	5
627.735	1	7
628.922	1	3
630.109	1	-9
631.297	1	1
632.484	1	4
633.671	1	1
634.858	1	-2
636.045	1	4
637.232	1	-4
638.419	1	-17
639.606	1	1
640.793	1	9
641.980	1	11
643.167	1	-8
644.354	1	-8
645.541	1	0
646.728	1	-4
647.914	1	2
649.101	1	0
650.288	1	1
651.474	1	6
652.661	1	7
653.847	1	5
655.034	1	9
656.220	1	-7
657.406	1	2
658.593	1	14
659.779	1	-3
660.965	1	1
662.152	1	2
663.338	1	6
664.524	1	-2
665.710	1	-4
666.896	1	1
668.082	1	1
669.268	1	3
670.454	1	3
671.640	1	3
672.826	1	-11
674.011	1	-4
675.197	1	-8
676.383	1	8
677.569	1	0
678.754	1	-4
679.940	1	-1
681.125	1	4
682.311	1	2
683.496	1	2
684.682	1	-3
685.867	1	1
687.053	1	1
688.238	1	0
688.746	1	-1