Folder: cryo-il_analysis/Data/GaN_150K_450ms (part 13)

File: GaN_sample D_spot15_UVVIS_150 K_200um_450 ms 2x2mm1_110.txt
340.368	1	-4
341.565	1	16
342.763	1	2
343.960	1	9
345.157	1	6
346.354	1	7
347.552	1	13
348.749	1	13
349.946	1	1
351.143	1	6
352.340	1	17
353.537	1	-6
354.734	1	9
355.931	1	7
357.127	1	22
358.324	1	16
359.521	1	19
360.718	1	18
361.914	1	25
363.111	1	38
364.308	1	44
365.504	1	53
366.701	1	67
367.897	1	77
369.093	1	86
370.290	1	77
371.486	1	65
372.682	1	58
373.879	1	45
375.075	1	37
376.271	1	40
377.467	1	41
378.663	1	27
379.859	1	17
381.055	1	12
382.251	1	6
383.447	1	10
384.643	1	14
385.839	1	18
387.035	1	7
388.230	1	6
389.426	1	9
390.622	1	2
391.817	1	9
393.013	1	15
394.208	1	9
395.404	1	13
396.599	1	16
397.795	1	12
398.990	1	20
400.186	1	15
401.381	1	12
402.576	1	9
403.771	1	-13
404.967	1	21
406.162	1	4
407.357	1	20
408.552	1	-1
409.747	1	15
410.942	1	20
412.137	1	7
413.332	1	9
414.526	1	0
415.721	1	16
416.916	1	4
418.111	1	6
419.305	1	22
420.500	1	11
421.695	1	21
422.889	1	20
424.084	1	12
425.278	1	8
426.472	1	22
427.667	1	7
428.861	1	20
430.055	1	21
431.250	1	17
432.444	1	19
433.638	1	21
434.832	1	5
436.026	1	14
437.220	1	23
438.414	1	20
439.608	1	9
440.802	1	13
441.996	1	16
443.190	1	11
444.384	1	17
445.578	1	-2
446.771	1	5
447.965	1	18
449.159	1	-1
450.352	1	11
451.546	1	6
452.739	1	13
453.933	1	5
455.126	1	7
456.320	1	12
457.513	1	5
458.706	1	11
459.899	1	6
461.093	1	6
462.286	1	5
463.479	1	4
464.672	1	2
465.865	1	-2
467.058	1	13
468.251	1	-4
469.444	1	15
470.637	1	6
471.830	1	7
473.023	1	8
474.215	1	9
475.408	1	14
476.601	1	13
477.793	1	3
478.986	1	9
480.179	1	13
481.371	1	2
482.564	1	2
483.756	1	16
484.948	1	16
486.141	1	9
487.333	1	8
488.525	1	1
489.718	1	-8
490.910	1	14
492.102	1	14
493.294	1	0
494.486	1	9
495.678	1	8
496.870	1	15
498.062	1	7
499.254	1	9
500.446	1	10
501.638	1	11
502.829	1	17
504.021	1	16
505.213	1	5
506.404	1	15
507.596	1	17
508.788	1	13
509.979	1	16
511.171	1	11
512.362	1	20
513.553	1	20
514.745	1	11
515.936	1	26
517.127	1	24
518.319	1	19
519.510	1	9
520.701	1	28
521.892	1	16
523.083	1	14
524.274	1	24
525.465	1	37
526.656	1	25
527.847	1	13
529.038	1	19
530.229	1	35
531.419	1	24
532.610	1	27
533.801	1	26
534.991	1	19
536.182	1	24
537.373	1	18
538.563	1	17
539.754	1	13
540.944	1	22
542.134	1	26
543.325	1	22
544.515	1	16
545.705	1	22
546.896	1	21
548.086	1	22
549.276	1	29
550.466	1	12
551.656	1	18
552.846	1	24
554.036	1	26
555.226	1	23
556.416	1	20
557.606	1	-3
558.796	1	24
559.986	1	24
561.175	1	13
562.365	1	7
563.555	1	25
564.744	1	23
565.934	1	21
567.123	1	11
568.313	1	16
569.502	1	16
570.692	1	19
571.881	1	0
573.070	1	6
574.260	1	19
575.449	1	2
576.638	1	17
577.827	1	-4
579.016	1	4
580.205	1	3
581.394	1	10
582.583	1	9
583.772	1	14
584.961	1	-3
586.150	1	13
587.339	1	8
588.528	1	8
589.717	1	13
590.905	1	3
592.094	1	8
593.283	1	7
594.471	1	-5
595.660	1	3
596.848	1	16
598.037	1	5
599.225	1	7
600.413	1	14
601.602	1	9
602.790	1	12
603.978	1	1
605.166	1	14
606.355	1	-1
607.543	1	7
608.731	1	-5
609.919	1	4
611.107	1	14
612.295	1	9
613.483	1	9
614.671	1	10
615.858	1	-8
617.046	1	9
618.234	1	-1
619.422	1	17
620.609	1	12
621.797	1	9
622.985	1	3
624.172	1	1
625.360	1	9
626.547	1	3
627.735	1	4
628.922	1	5
630.109	1	-13
631.297	1	7
632.484	1	6
633.671	1	10
634.858	1	13
636.045	1	1
637.232	1	8
638.419	1	-1
639.606	1	12
640.793	1	1
641.980	1	12
643.167	1	6
644.354	1	16
645.541	1	4
646.728	1	1
647.914	1	10
649.101	1	2
650.288	1	7
651.474	1	9
652.661	1	8
653.847	1	8
655.034	1	9
656.220	1	8
657.406	1	3
658.593	1	9
659.779	1	21
660.965	1	10
662.152	1	12
663.338	1	4
664.524	1	18
665.710	1	9
666.896	1	7
668.082	1	5
669.268	1	-2
670.454	1	7
671.640	1	11
672.826	1	2
674.011	1	3
675.197	1	14
676.383	1	1
677.569	1	18
678.754	1	5
679.940	1	-5
681.125	1	-1
682.311	1	10
683.496	1	2
684.682	1	7
685.867	1	2
687.053	1	26
688.238	1	10
688.746	1	4

File: GaN_sample D_spot15_UVVIS_150 K_200um_450 ms 2x2mm1_111.txt
340.368	1	3
341.565	1	9
342.763	1	3
343.960	1	10
345.157	1	8
346.354	1	5
347.552	1	14
348.749	1	14
349.946	1	9
351.143	1	10
352.340	1	19
353.537	1	2
354.734	1	11
355.931	1	8
357.127	1	21
358.324	1	8
359.521	1	26
360.718	1	20
361.914	1	32
363.111	1	29
364.308	1	39
365.504	1	52
366.701	1	69
367.897	1	77
369.093	1	77
370.290	1	71
371.486	1	63
372.682	1	46
373.879	1	42
375.075	1	32
376.271	1	24
377.467	1	37
378.663	1	15
379.859	1	11
381.055	1	11
382.251	1	5
383.447	1	8
384.643	1	15
385.839	1	10
387.035	1	15
388.230	1	10
389.426	1	7
390.622	1	5
391.817	1	4
393.013	1	12
394.208	1	8
395.404	1	9
396.599	1	12
397.795	1	12
398.990	1	15
400.186	1	12
401.381	1	13
402.576	1	9
403.771	1	1
404.967	1	8
406.162	1	3
407.357	1	14
408.552	1	17
409.747	1	4
410.942	1	22
412.137	1	2
413.332	1	18
414.526	1	9
415.721	1	8
416.916	1	13
418.111	1	23
419.305	1	12
420.500	1	11
421.695	1	19
422.889	1	17
424.084	1	9
425.278	1	14
426.472	1	21
427.667	1	15
428.861	1	21
430.055	1	20
431.250	1	15
432.444	1	17
433.638	1	14
434.832	1	6
436.026	1	5
437.220	1	17
438.414	1	19
439.608	1	5
440.802	1	5
441.996	1	9
443.190	1	22
444.384	1	14
445.578	1	2
446.771	1	1
447.965	1	12
449.159	1	3
450.352	1	6
451.546	1	14
452.739	1	3
453.933	1	6
455.126	1	8
456.320	1	12
457.513	1	5
458.706	1	15
459.899	1	10
461.093	1	9
462.286	1	-1
463.479	1	5
464.672	1	9
465.865	1	7
467.058	1	8
468.251	1	1
469.444	1	15
470.637	1	13
471.830	1	9
473.023	1	10
474.215	1	7
475.408	1	6
476.601	1	11
477.793	1	5
478.986	1	10
480.179	1	6
481.371	1	7
482.564	1	12
483.756	1	12
484.948	1	10
486.141	1	11
487.333	1	6
488.525	1	11
489.718	1	-11
490.910	1	10
492.102	1	4
493.294	1	4
494.486	1	6
495.678	1	8
496.870	1	19
498.062	1	6
499.254	1	11
500.446	1	2
501.638	1	17
502.829	1	2
504.021	1	8
505.213	1	3
506.404	1	24
507.596	1	18
508.788	1	17
509.979	1	14
511.171	1	21
512.362	1	19
513.553	1	24
514.745	1	18
515.936	1	21
517.127	1	21
518.319	1	23
519.510	1	4
520.701	1	17
521.892	1	15
523.083	1	15
524.274	1	16
525.465	1	24
526.656	1	16
527.847	1	12
529.038	1	23
530.229	1	24
531.419	1	6
532.610	1	20
533.801	1	20
534.991	1	20
536.182	1	15
537.373	1	18
538.563	1	7
539.754	1	13
540.944	1	18
542.134	1	17
543.325	1	16
544.515	1	17
545.705	1	9
546.896	1	16
548.086	1	28
549.276	1	14
550.466	1	12
551.656	1	13
552.846	1	16
554.036	1	19
555.226	1	19
556.416	1	13
557.606	1	5
558.796	1	20
559.986	1	18
561.175	1	15
562.365	1	9
563.555	1	12
564.744	1	19
565.934	1	23
567.123	1	10
568.313	1	12
569.502	1	10
570.692	1	19
571.881	1	9
573.070	1	9
574.260	1	18
575.449	1	7
576.638	1	14
577.827	1	8
579.016	1	3
580.205	1	14
581.394	1	11
582.583	1	12
583.772	1	17
584.961	1	1
586.150	1	3
587.339	1	9
588.528	1	6
589.717	1	5
590.905	1	4
592.094	1	19
593.283	1	6
594.471	1	4
595.660	1	13
596.848	1	13
598.037	1	4
599.225	1	2
600.413	1	7
601.602	1	1
602.790	1	10
603.978	1	3
605.166	1	1
606.355	1	-4
607.543	1	10
608.731	1	-4
609.919	1	1
611.107	1	14
612.295	1	12
613.483	1	1
614.671	1	9
615.858	1	1
617.046	1	4
618.234	1	2
619.422	1	18
620.609	1	0
621.797	1	3
622.985	1	11
624.172	1	2
625.360	1	4
626.547	1	0
627.735	1	1
628.922	1	9
630.109	1	-1
631.297	1	5
632.484	1	10
633.671	1	6
634.858	1	9
636.045	1	-1
637.232	1	11
638.419	1	4
639.606	1	9
640.793	1	6
641.980	1	11
643.167	1	4
644.354	1	6
645.541	1	1
646.728	1	6
647.914	1	-4
649.101	1	0
650.288	1	7
651.474	1	14
652.661	1	16
653.847	1	4
655.034	1	-3
656.220	1	9
657.406	1	-4
658.593	1	17
659.779	1	7
660.965	1	8
662.152	1	0
663.338	1	5
664.524	1	15
665.710	1	9
666.896	1	1
668.082	1	2
669.268	1	7
670.454	1	12
671.640	1	12
672.826	1	-5
674.011	1	12
675.197	1	8
676.383	1	-11
677.569	1	7
678.754	1	5
679.940	1	-7
681.125	1	1
682.311	1	7
683.496	1	8
684.682	1	14
685.867	1	2
687.053	1	21
688.238	1	14
688.746	1	7

File: GaN_sample D_spot15_UVVIS_150 K_200um_450 ms 2x2mm1_112.txt
340.368	1	7
341.565	1	5
342.763	1	0
343.960	1	6
345.157	1	14
346.354	1	7
347.552	1	23
348.749	1	14
349.946	1	9
351.143	1	3
352.340	1	7
353.537	1	-4
354.734	1	10
355.931	1	13
357.127	1	16
358.324	1	20
359.521	1	22
360.718	1	26
361.914	1	26
363.111	1	31
364.308	1	53
365.504	1	45
366.701	1	65
367.897	1	81
369.093	1	74
370.290	1	78
371.486	1	64
372.682	1	55
373.879	1	43
375.075	1	32
376.271	1	34
377.467	1	33
378.663	1	37
379.859	1	9
381.055	1	10
382.251	1	9
383.447	1	10
384.643	1	5
385.839	1	18
387.035	1	19
388.230	1	17
389.426	1	6
390.622	1	6
391.817	1	3
393.013	1	15
394.208	1	8
395.404	1	11
396.599	1	13
397.795	1	6
398.990	1	15
400.186	1	6
401.381	1	7
402.576	1	16
403.771	1	5
404.967	1	10
406.162	1	13
407.357	1	17
408.552	1	8
409.747	1	12
410.942	1	18
412.137	1	14
413.332	1	14
414.526	1	2
415.721	1	16
416.916	1	14
418.111	1	12
419.305	1	15
420.500	1	15
421.695	1	18
422.889	1	22
424.084	1	18
425.278	1	11
426.472	1	22
427.667	1	14
428.861	1	18
430.055	1	23
431.250	1	14
432.444	1	7
433.638	1	15
434.832	1	4
436.026	1	9
437.220	1	17
438.414	1	15
439.608	1	6
440.802	1	15
441.996	1	10
443.190	1	12
444.384	1	20
445.578	1	15
446.771	1	6
447.965	1	12
449.159	1	5
450.352	1	6
451.546	1	1
452.739	1	13
453.933	1	3
455.126	1	6
456.320	1	9
457.513	1	10
458.706	1	19
459.899	1	9
461.093	1	14
462.286	1	2
463.479	1	3
464.672	1	16
465.865	1	10
467.058	1	-3
468.251	1	4
469.444	1	7
470.637	1	5
471.830	1	10
473.023	1	11
474.215	1	-1
475.408	1	22
476.601	1	8
477.793	1	3
478.986	1	19
480.179	1	12
481.371	1	-8
482.564	1	8
483.756	1	11
484.948	1	15
486.141	1	-3
487.333	1	-7
488.525	1	5
489.718	1	4
490.910	1	13
492.102	1	3
493.294	1	1
494.486	1	2
495.678	1	12
496.870	1	12
498.062	1	15
499.254	1	-1
500.446	1	6
501.638	1	12
502.829	1	9
504.021	1	15
505.213	1	0
506.404	1	23
507.596	1	21
508.788	1	16
509.979	1	10
511.171	1	21
512.362	1	22
513.553	1	20
514.745	1	16
515.936	1	12
517.127	1	14
518.319	1	15
519.510	1	9
520.701	1	23
521.892	1	25
523.083	1	16
524.274	1	20
525.465	1	26
526.656	1	17
527.847	1	4
529.038	1	20
530.229	1	27
531.419	1	18
532.610	1	23
533.801	1	25
534.991	1	23
536.182	1	18
537.373	1	13
538.563	1	10
539.754	1	16
540.944	1	15
542.134	1	14
543.325	1	30
544.515	1	15
545.705	1	16
546.896	1	18
548.086	1	16
549.276	1	25
550.466	1	16
551.656	1	13
552.846	1	17
554.036	1	21
555.226	1	11
556.416	1	25
557.606	1	5
558.796	1	18
559.986	1	23
561.175	1	10
562.365	1	11
563.555	1	21
564.744	1	24
565.934	1	21
567.123	1	7
568.313	1	5
569.502	1	12
570.692	1	11
571.881	1	2
573.070	1	6
574.260	1	14
575.449	1	8
576.638	1	15
577.827	1	6
579.016	1	1
580.205	1	9
581.394	1	7
582.583	1	15
583.772	1	11
584.961	1	7
586.150	1	14
587.339	1	11
588.528	1	13
589.717	1	9
590.905	1	2
592.094	1	17
593.283	1	14
594.471	1	-3
595.660	1	10
596.848	1	8
598.037	1	10
599.225	1	2
600.413	1	11
601.602	1	8
602.790	1	14
603.978	1	3
605.166	1	0
606.355	1	-5
607.543	1	2
608.731	1	-2
609.919	1	-6
611.107	1	13
612.295	1	7
613.483	1	9
614.671	1	16
615.858	1	2
617.046	1	5
618.234	1	-6
619.422	1	8
620.609	1	1
621.797	1	2
622.985	1	2
624.172	1	16
625.360	1	9
626.547	1	-6
627.735	1	9
628.922	1	6
630.109	1	-5
631.297	1	10
632.484	1	8
633.671	1	6
634.858	1	10
636.045	1	-6
637.232	1	12
638.419	1	4
639.606	1	14
640.793	1	0
641.980	1	18
643.167	1	6
644.354	1	20
645.541	1	5
646.728	1	4
647.914	1	-5
649.101	1	-2
650.288	1	4
651.474	1	15
652.661	1	15
653.847	1	5
655.034	1	1
656.220	1	6
657.406	1	0
658.593	1	1
659.779	1	10
660.965	1	5
662.152	1	2
663.338	1	-7
664.524	1	14
665.710	1	8
666.896	1	6
668.082	1	5
669.268	1	0
670.454	1	6
671.640	1	12
672.826	1	5
674.011	1	12
675.197	1	9
676.383	1	-1
677.569	1	19
678.754	1	10
679.940	1	-5
681.125	1	-1
682.311	1	9
683.496	1	7
684.682	1	8
685.867	1	7
687.053	1	23
688.238	1	15
688.746	1	1

File: GaN_sample D_spot15_UVVIS_150 K_200um_450 ms 2x2mm1_113.txt
340.368	1	8
341.565	1	8
342.763	1	1
343.960	1	2
345.157	1	12
346.354	1	8
347.552	1	17
348.749	1	25
349.946	1	2
351.143	1	8
352.340	1	14
353.537	1	-3
354.734	1	8
355.931	1	16
357.127	1	8
358.324	1	9
359.521	1	28
360.718	1	11
361.914	1	33
363.111	1	30
364.308	1	42
365.504	1	47
366.701	1	78
367.897	1	77
369.093	1	84
370.290	1	66
371.486	1	54
372.682	1	49
373.879	1	37
375.075	1	33
376.271	1	36
377.467	1	38
378.663	1	31
379.859	1	19
381.055	1	16
382.251	1	14
383.447	1	13
384.643	1	14
385.839	1	17
387.035	1	19
388.230	1	10
389.426	1	0
390.622	1	9
391.817	1	4
393.013	1	18
394.208	1	7
395.404	1	10
396.599	1	2
397.795	1	11
398.990	1	9
400.186	1	16
401.381	1	4
402.576	1	19
403.771	1	2
404.967	1	11
406.162	1	4
407.357	1	18
408.552	1	5
409.747	1	14
410.942	1	22
412.137	1	8
413.332	1	11
414.526	1	6
415.721	1	19
416.916	1	12
418.111	1	10
419.305	1	16
420.500	1	10
421.695	1	15
422.889	1	16
424.084	1	8
425.278	1	8
426.472	1	24
427.667	1	15
428.861	1	15
430.055	1	20
431.250	1	25
432.444	1	13
433.638	1	11
434.832	1	13
436.026	1	9
437.220	1	22
438.414	1	16
439.608	1	2
440.802	1	6
441.996	1	-3
443.190	1	11
444.384	1	14
445.578	1	2
446.771	1	8
447.965	1	9
449.159	1	0
450.352	1	-2
451.546	1	7
452.739	1	14
453.933	1	2
455.126	1	3
456.320	1	10
457.513	1	5
458.706	1	13
459.899	1	7
461.093	1	11
462.286	1	2
463.479	1	3
464.672	1	3
465.865	1	9
467.058	1	12
468.251	1	-1
469.444	1	7
470.637	1	7
471.830	1	0
473.023	1	13
474.215	1	21
475.408	1	5
476.601	1	13
477.793	1	-4
478.986	1	11
480.179	1	13
481.371	1	3
482.564	1	14
483.756	1	18
484.948	1	9
486.141	1	4
487.333	1	0
488.525	1	6
489.718	1	4
490.910	1	17
492.102	1	15
493.294	1	-7
494.486	1	7
495.678	1	3
496.870	1	10
498.062	1	0
499.254	1	8
500.446	1	4
501.638	1	16
502.829	1	4
504.021	1	21
505.213	1	15
506.404	1	14
507.596	1	18
508.788	1	15
509.979	1	21
511.171	1	19
512.362	1	15
513.553	1	20
514.745	1	19
515.936	1	8
517.127	1	26
518.319	1	16
519.510	1	4
520.701	1	32
521.892	1	16
523.083	1	20
524.274	1	12
525.465	1	29
526.656	1	19
527.847	1	3
529.038	1	20
530.229	1	30
531.419	1	23
532.610	1	22
533.801	1	24
534.991	1	19
536.182	1	19
537.373	1	20
538.563	1	16
539.754	1	12
540.944	1	16
542.134	1	21
543.325	1	24
544.515	1	23
545.705	1	19
546.896	1	20
548.086	1	18
549.276	1	25
550.466	1	18
551.656	1	13
552.846	1	16
554.036	1	25
555.226	1	15
556.416	1	18
557.606	1	5
558.796	1	19
559.986	1	18
561.175	1	13
562.365	1	6
563.555	1	17
564.744	1	18
565.934	1	27
567.123	1	7
568.313	1	13
569.502	1	6
570.692	1	8
571.881	1	15
573.070	1	5
574.260	1	8
575.449	1	5
576.638	1	7
577.827	1	9
579.016	1	3
580.205	1	6
581.394	1	10
582.583	1	7
583.772	1	15
584.961	1	7
586.150	1	11
587.339	1	11
588.528	1	4
589.717	1	2
590.905	1	-1
592.094	1	19
593.283	1	12
594.471	1	0
595.660	1	7
596.848	1	9
598.037	1	5
599.225	1	11
600.413	1	8
601.602	1	7
602.790	1	1
603.978	1	5
605.166	1	7
606.355	1	3
607.543	1	9
608.731	1	-12
609.919	1	-1
611.107	1	18
612.295	1	7
613.483	1	4
614.671	1	18
615.858	1	-5
617.046	1	-2
618.234	1	-3
619.422	1	15
620.609	1	5
621.797	1	10
622.985	1	6
624.172	1	6
625.360	1	12
626.547	1	2
627.735	1	6
628.922	1	12
630.109	1	2
631.297	1	8
632.484	1	7
633.671	1	11
634.858	1	7
636.045	1	-3
637.232	1	9
638.419	1	-1
639.606	1	8
640.793	1	7
641.980	1	7
643.167	1	4
644.354	1	5
645.541	1	4
646.728	1	10
647.914	1	8
649.101	1	4
650.288	1	10
651.474	1	6
652.661	1	2
653.847	1	2
655.034	1	10
656.220	1	6
657.406	1	9
658.593	1	10
659.779	1	10
660.965	1	1
662.152	1	-1
663.338	1	-5
664.524	1	15
665.710	1	3
666.896	1	7
668.082	1	9
669.268	1	4
670.454	1	11
671.640	1	17
672.826	1	8
674.011	1	11
675.197	1	3
676.383	1	1
677.569	1	10
678.754	1	6
679.940	1	4
681.125	1	-4
682.311	1	15
683.496	1	3
684.682	1	9
685.867	1	7
687.053	1	19
688.238	1	10
688.746	1	4

File: GaN_sample D_spot15_UVVIS_150 K_200um_450 ms 2x2mm1_114.txt
340.368	1	5
341.565	1	6
342.763	1	7
343.960	1	2
345.157	1	9
346.354	1	1
347.552	1	22
348.749	1	17
349.946	1	-8
351.143	1	5
352.340	1	13
353.537	1	1
354.734	1	-2
355.931	1	12
357.127	1	17
358.324	1	17
359.521	1	27
360.718	1	13
361.914	1	24
363.111	1	28
364.308	1	42
365.504	1	45
366.701	1	49
367.897	1	76
369.093	1	75
370.290	1	71
371.486	1	59
372.682	1	47
373.879	1	29
375.075	1	28
376.271	1	35
377.467	1	41
378.663	1	16
379.859	1	20
381.055	1	21
382.251	1	3
383.447	1	8
384.643	1	12
385.839	1	21
387.035	1	12
388.230	1	7
389.426	1	4
390.622	1	9
391.817	1	2
393.013	1	17
394.208	1	4
395.404	1	14
396.599	1	13
397.795	1	12
398.990	1	16
400.186	1	8
401.381	1	3
402.576	1	4
403.771	1	7
404.967	1	16
406.162	1	3
407.357	1	11
408.552	1	7
409.747	1	11
410.942	1	21
412.137	1	10
413.332	1	13
414.526	1	5
415.721	1	8
416.916	1	7
418.111	1	6
419.305	1	25
420.500	1	12
421.695	1	19
422.889	1	10
424.084	1	14
425.278	1	6
426.472	1	25
427.667	1	7
428.861	1	19
430.055	1	22
431.250	1	11
432.444	1	14
433.638	1	15
434.832	1	6
436.026	1	9
437.220	1	15
438.414	1	12
439.608	1	9
440.802	1	18
441.996	1	0
443.190	1	13
444.384	1	14
445.578	1	8
446.771	1	14
447.965	1	16
449.159	1	6
450.352	1	1
451.546	1	14
452.739	1	10
453.933	1	5
455.126	1	13
456.320	1	13
457.513	1	-1
458.706	1	15
459.899	1	3
461.093	1	6
462.286	1	2
463.479	1	8
464.672	1	10
465.865	1	11
467.058	1	3
468.251	1	1
469.444	1	5
470.637	1	7
471.830	1	-1
473.023	1	19
474.215	1	1
475.408	1	9
476.601	1	5
477.793	1	6
478.986	1	17
480.179	1	9
481.371	1	5
482.564	1	6
483.756	1	18
484.948	1	9
486.141	1	15
487.333	1	5
488.525	1	6
489.718	1	4
490.910	1	20
492.102	1	13
493.294	1	0
494.486	1	15
495.678	1	11
496.870	1	15
498.062	1	3
499.254	1	12
500.446	1	3
501.638	1	17
502.829	1	10
504.021	1	7
505.213	1	6
506.404	1	13
507.596	1	23
508.788	1	17
509.979	1	14
511.171	1	13
512.362	1	20
513.553	1	12
514.745	1	14
515.936	1	20
517.127	1	23
518.319	1	16
519.510	1	2
520.701	1	14
521.892	1	23
523.083	1	14
524.274	1	17
525.465	1	18
526.656	1	11
527.847	1	15
529.038	1	16
530.229	1	33
531.419	1	20
532.610	1	18
533.801	1	18
534.991	1	12
536.182	1	15
537.373	1	12
538.563	1	11
539.754	1	9
540.944	1	16
542.134	1	10
543.325	1	24
544.515	1	20
545.705	1	5
546.896	1	12
548.086	1	11
549.276	1	19
550.466	1	13
551.656	1	10
552.846	1	22
554.036	1	19
555.226	1	11
556.416	1	18
557.606	1	6
558.796	1	15
559.986	1	17
561.175	1	14
562.365	1	8
563.555	1	7
564.744	1	13
565.934	1	20
567.123	1	5
568.313	1	14
569.502	1	12
570.692	1	11
571.881	1	6
573.070	1	9
574.260	1	7
575.449	1	11
576.638	1	19
577.827	1	1
579.016	1	15
580.205	1	12
581.394	1	7
582.583	1	1
583.772	1	21
584.961	1	-1
586.150	1	17
587.339	1	2
588.528	1	12
589.717	1	1
590.905	1	3
592.094	1	11
593.283	1	13
594.471	1	0
595.660	1	10
596.848	1	12
598.037	1	3
599.225	1	3
600.413	1	14
601.602	1	12
602.790	1	11
603.978	1	9
605.166	1	3
606.355	1	-10
607.543	1	6
608.731	1	-11
609.919	1	-2
611.107	1	14
612.295	1	12
613.483	1	6
614.671	1	7
615.858	1	1
617.046	1	8
618.234	1	-1
619.422	1	21
620.609	1	-2
621.797	1	12
622.985	1	7
624.172	1	4
625.360	1	2
626.547	1	9
627.735	1	9
628.922	1	8
630.109	1	4
631.297	1	4
632.484	1	13
633.671	1	9
634.858	1	11
636.045	1	1
637.232	1	11
638.419	1	3
639.606	1	8
640.793	1	14
641.980	1	7
643.167	1	9
644.354	1	8
645.541	1	-7
646.728	1	2
647.914	1	10
649.101	1	2
650.288	1	9
651.474	1	11
652.661	1	11
653.847	1	10
655.034	1	4
656.220	1	6
657.406	1	4
658.593	1	11
659.779	1	9
660.965	1	7
662.152	1	2
663.338	1	8
664.524	1	18
665.710	1	4
666.896	1	13
668.082	1	9
669.268	1	-6
670.454	1	12
671.640	1	11
672.826	1	4
674.011	1	10
675.197	1	1
676.383	1	4
677.569	1	13
678.754	1	4
679.940	1	2
681.125	1	0
682.311	1	12
683.496	1	0
684.682	1	8
685.867	1	-7
687.053	1	19
688.238	1	8
688.746	1	5

File: GaN_sample D_spot15_UVVIS_150 K_200um_450 ms 2x2mm1_115.txt
340.368	1	1
341.565	1	9
342.763	1	-3
343.960	1	10
345.157	1	8
346.354	1	7
347.552	1	26
348.749	1	17
349.946	1	14
351.143	1	11
352.340	1	12
353.537	1	-1
354.734	1	7
355.931	1	12
357.127	1	10
358.324	1	10
359.521	1	19
360.718	1	18
361.914	1	19
363.111	1	23
364.308	1	41
365.504	1	45
366.701	1	56
367.897	1	74
369.093	1	74
370.290	1	75
371.486	1	63
372.682	1	37
373.879	1	40
375.075	1	25
376.271	1	18
377.467	1	43
378.663	1	24
379.859	1	17
381.055	1	14
382.251	1	3
383.447	1	5
384.643	1	9
385.839	1	13
387.035	1	20
388.230	1	24
389.426	1	12
390.622	1	13
391.817	1	2
393.013	1	8
394.208	1	11
395.404	1	16
396.599	1	6
397.795	1	8
398.990	1	16
400.186	1	16
401.381	1	7
402.576	1	9
403.771	1	-4
404.967	1	-4
406.162	1	0
407.357	1	9
408.552	1	9
409.747	1	0
410.942	1	23
412.137	1	-1
413.332	1	15
414.526	1	2
415.721	1	10
416.916	1	6
418.111	1	15
419.305	1	14
420.500	1	8
421.695	1	8
422.889	1	11
424.084	1	13
425.278	1	25
426.472	1	8
427.667	1	10
428.861	1	12
430.055	1	20
431.250	1	14
432.444	1	13
433.638	1	20
434.832	1	16
436.026	1	2
437.220	1	27
438.414	1	16
439.608	1	10
440.802	1	13
441.996	1	9
443.190	1	11
444.384	1	15
445.578	1	0
446.771	1	12
447.965	1	17
449.159	1	4
450.352	1	13
451.546	1	-4
452.739	1	8
453.933	1	9
455.126	1	13
456.320	1	15
457.513	1	9
458.706	1	20
459.899	1	6
461.093	1	9
462.286	1	4
463.479	1	3
464.672	1	9
465.865	1	1
467.058	1	6
468.251	1	-2
469.444	1	7
470.637	1	8
471.830	1	7
473.023	1	15
474.215	1	-1
475.408	1	9
476.601	1	3
477.793	1	10
478.986	1	6
480.179	1	6
481.371	1	-5
482.564	1	16
483.756	1	14
484.948	1	7
486.141	1	9
487.333	1	3
488.525	1	0
489.718	1	8
490.910	1	13
492.102	1	9
493.294	1	-1
494.486	1	11
495.678	1	9
496.870	1	11
498.062	1	16
499.254	1	-3
500.446	1	10
501.638	1	9
502.829	1	8
504.021	1	18
505.213	1	12
506.404	1	6
507.596	1	14
508.788	1	14
509.979	1	10
511.171	1	16
512.362	1	17
513.553	1	9
514.745	1	15
515.936	1	17
517.127	1	32
518.319	1	9
519.510	1	17
520.701	1	18
521.892	1	12
523.083	1	15
524.274	1	26
525.465	1	22
526.656	1	25
527.847	1	11
529.038	1	17
530.229	1	30
531.419	1	24
532.610	1	21
533.801	1	22
534.991	1	11
536.182	1	19
537.373	1	13
538.563	1	4
539.754	1	19
540.944	1	11
542.134	1	21
543.325	1	16
544.515	1	15
545.705	1	14
546.896	1	15
548.086	1	25
549.276	1	23
550.466	1	12
551.656	1	5
552.846	1	17
554.036	1	15
555.226	1	15
556.416	1	18
557.606	1	3
558.796	1	24
559.986	1	17
561.175	1	11
562.365	1	14
563.555	1	20
564.744	1	14
565.934	1	18
567.123	1	3
568.313	1	17
569.502	1	12
570.692	1	13
571.881	1	9
573.070	1	11
574.260	1	12
575.449	1	7
576.638	1	11
577.827	1	6
579.016	1	4
580.205	1	11
581.394	1	16
582.583	1	10
583.772	1	8
584.961	1	-3
586.150	1	16
587.339	1	-4
588.528	1	5
589.717	1	2
590.905	1	0
592.094	1	18
593.283	1	6
594.471	1	-6
595.660	1	8
596.848	1	12
598.037	1	3
599.225	1	4
600.413	1	12
601.602	1	6
602.790	1	12
603.978	1	2
605.166	1	12
606.355	1	-8
607.543	1	4
608.731	1	-2
609.919	1	5
611.107	1	13
612.295	1	11
613.483	1	-8
614.671	1	6
615.858	1	0
617.046	1	3
618.234	1	7
619.422	1	20
620.609	1	-7
621.797	1	9
622.985	1	0
624.172	1	11
625.360	1	7
626.547	1	9
627.735	1	5
628.922	1	12
630.109	1	-3
631.297	1	8
632.484	1	12
633.671	1	14
634.858	1	5
636.045	1	3
637.232	1	1
638.419	1	3
639.606	1	9
640.793	1	5
641.980	1	12
643.167	1	-3
644.354	1	8
645.541	1	11
646.728	1	2
647.914	1	4
649.101	1	2
650.288	1	7
651.474	1	16
652.661	1	9
653.847	1	9
655.034	1	3
656.220	1	9
657.406	1	-4
658.593	1	9
659.779	1	10
660.965	1	8
662.152	1	11
663.338	1	8
664.524	1	20
665.710	1	8
666.896	1	9
668.082	1	8
669.268	1	6
670.454	1	12
671.640	1	5
672.826	1	5
674.011	1	1
675.197	1	16
676.383	1	0
677.569	1	17
678.754	1	4
679.940	1	-6
681.125	1	2
682.311	1	5
683.496	1	6
684.682	1	6
685.867	1	5
687.053	1	12
688.238	1	14
688.746	1	1