Folder: cryo-il_analysis/Data/GaN_200K_800ms (part 12)

File: GaN_sample F_spot 12_UVVIS_200 K_200um_800 ms 2x2mm1_83.txt
340.368	1	8
341.565	1	6
342.763	1	10
343.960	1	7
345.157	1	-8
346.354	1	3
347.552	1	5
348.749	1	-1
349.946	1	-2
351.143	1	5
352.340	1	8
353.537	1	8
354.734	1	8
355.931	1	3
357.127	1	24
358.324	1	17
359.521	1	32
360.718	1	35
361.914	1	40
363.111	1	48
364.308	1	61
365.504	1	83
366.701	1	106
367.897	1	130
369.093	1	136
370.290	1	129
371.486	1	127
372.682	1	117
373.879	1	90
375.075	1	76
376.271	1	68
377.467	1	51
378.663	1	42
379.859	1	45
381.055	1	46
382.251	1	34
383.447	1	29
384.643	1	32
385.839	1	20
387.035	1	20
388.230	1	25
389.426	1	6
390.622	1	8
391.817	1	13
393.013	1	0
394.208	1	12
395.404	1	5
396.599	1	-1
397.795	1	7
398.990	1	3
400.186	1	8
401.381	1	4
402.576	1	2
403.771	1	9
404.967	1	17
406.162	1	15
407.357	1	1
408.552	1	-2
409.747	1	2
410.942	1	13
412.137	1	8
413.332	1	3
414.526	1	1
415.721	1	11
416.916	1	1
418.111	1	1
419.305	1	3
420.500	1	4
421.695	1	4
422.889	1	-4
424.084	1	6
425.278	1	13
426.472	1	-1
427.667	1	8
428.861	1	-6
430.055	1	8
431.250	1	1
432.444	1	9
433.638	1	4
434.832	1	10
436.026	1	0
437.220	1	11
438.414	1	-3
439.608	1	-14
440.802	1	-8
441.996	1	3
443.190	1	3
444.384	1	-8
445.578	1	-9
446.771	1	2
447.965	1	1
449.159	1	-1
450.352	1	2
451.546	1	9
452.739	1	13
453.933	1	2
455.126	1	-15
456.320	1	5
457.513	1	13
458.706	1	8
459.899	1	4
461.093	1	7
462.286	1	-2
463.479	1	0
464.672	1	1
465.865	1	-1
467.058	1	3
468.251	1	2
469.444	1	2
470.637	1	0
471.830	1	0
473.023	1	7
474.215	1	15
475.408	1	7
476.601	1	-1
477.793	1	-1
478.986	1	1
480.179	1	7
481.371	1	8
482.564	1	4
483.756	1	14
484.948	1	3
486.141	1	-3
487.333	1	9
488.525	1	-3
489.718	1	1
490.910	1	3
492.102	1	-1
493.294	1	-1
494.486	1	5
495.678	1	10
496.870	1	9
498.062	1	5
499.254	1	13
500.446	1	-2
501.638	1	5
502.829	1	4
504.021	1	3
505.213	1	12
506.404	1	11
507.596	1	3
508.788	1	23
509.979	1	13
511.171	1	-2
512.362	1	13
513.553	1	-5
514.745	1	17
515.936	1	11
517.127	1	5
518.319	1	12
519.510	1	3
520.701	1	6
521.892	1	7
523.083	1	16
524.274	1	16
525.465	1	20
526.656	1	7
527.847	1	13
529.038	1	16
530.229	1	18
531.419	1	20
532.610	1	2
533.801	1	18
534.991	1	13
536.182	1	8
537.373	1	20
538.563	1	27
539.754	1	20
540.944	1	4
542.134	1	12
543.325	1	14
544.515	1	16
545.705	1	13
546.896	1	9
548.086	1	16
549.276	1	22
550.466	1	8
551.656	1	25
552.846	1	6
554.036	1	6
555.226	1	8
556.416	1	12
557.606	1	19
558.796	1	14
559.986	1	13
561.175	1	24
562.365	1	23
563.555	1	11
564.744	1	11
565.934	1	21
567.123	1	10
568.313	1	21
569.502	1	8
570.692	1	21
571.881	1	23
573.070	1	18
574.260	1	20
575.449	1	17
576.638	1	13
577.827	1	18
579.016	1	23
580.205	1	19
581.394	1	8
582.583	1	21
583.772	1	23
584.961	1	20
586.150	1	18
587.339	1	14
588.528	1	20
589.717	1	14
590.905	1	21
592.094	1	9
593.283	1	9
594.471	1	27
595.660	1	15
596.848	1	10
598.037	1	12
599.225	1	8
600.413	1	16
601.602	1	21
602.790	1	12
603.978	1	15
605.166	1	18
606.355	1	18
607.543	1	4
608.731	1	5
609.919	1	12
611.107	1	15
612.295	1	5
613.483	1	11
614.671	1	14
615.858	1	12
617.046	1	13
618.234	1	16
619.422	1	6
620.609	1	6
621.797	1	8
622.985	1	1
624.172	1	8
625.360	1	15
626.547	1	8
627.735	1	9
628.922	1	10
630.109	1	-4
631.297	1	14
632.484	1	-1
633.671	1	3
634.858	1	6
636.045	1	4
637.232	1	9
638.419	1	3
639.606	1	11
640.793	1	9
641.980	1	10
643.167	1	5
644.354	1	2
645.541	1	9
646.728	1	14
647.914	1	5
649.101	1	4
650.288	1	15
651.474	1	2
652.661	1	4
653.847	1	11
655.034	1	8
656.220	1	-5
657.406	1	11
658.593	1	11
659.779	1	7
660.965	1	5
662.152	1	12
663.338	1	11
664.524	1	6
665.710	1	2
666.896	1	7
668.082	1	4
669.268	1	3
670.454	1	4
671.640	1	5
672.826	1	9
674.011	1	7
675.197	1	0
676.383	1	-1
677.569	1	3
678.754	1	5
679.940	1	0
681.125	1	0
682.311	1	17
683.496	1	6
684.682	1	2
685.867	1	9
687.053	1	4
688.238	1	5
688.746	1	0

File: GaN_sample F_spot 12_UVVIS_200 K_200um_800 ms 2x2mm1_84.txt
340.368	1	5
341.565	1	-7
342.763	1	9
343.960	1	12
345.157	1	3
346.354	1	3
347.552	1	-6
348.749	1	3
349.946	1	4
351.143	1	-6
352.340	1	11
353.537	1	14
354.734	1	6
355.931	1	3
357.127	1	13
358.324	1	6
359.521	1	19
360.718	1	38
361.914	1	42
363.111	1	50
364.308	1	63
365.504	1	82
366.701	1	101
367.897	1	131
369.093	1	137
370.290	1	131
371.486	1	128
372.682	1	110
373.879	1	87
375.075	1	79
376.271	1	73
377.467	1	60
378.663	1	51
379.859	1	40
381.055	1	45
382.251	1	26
383.447	1	32
384.643	1	34
385.839	1	20
387.035	1	29
388.230	1	28
389.426	1	9
390.622	1	8
391.817	1	16
393.013	1	12
394.208	1	14
395.404	1	8
396.599	1	1
397.795	1	15
398.990	1	11
400.186	1	9
401.381	1	-1
402.576	1	7
403.771	1	4
404.967	1	7
406.162	1	10
407.357	1	3
408.552	1	5
409.747	1	6
410.942	1	12
412.137	1	5
413.332	1	13
414.526	1	0
415.721	1	-4
416.916	1	-4
418.111	1	1
419.305	1	4
420.500	1	3
421.695	1	2
422.889	1	-6
424.084	1	-2
425.278	1	10
426.472	1	4
427.667	1	15
428.861	1	4
430.055	1	1
431.250	1	-14
432.444	1	9
433.638	1	0
434.832	1	4
436.026	1	7
437.220	1	3
438.414	1	-6
439.608	1	-11
440.802	1	-4
441.996	1	8
443.190	1	4
444.384	1	0
445.578	1	-4
446.771	1	12
447.965	1	-1
449.159	1	-2
450.352	1	3
451.546	1	-1
452.739	1	12
453.933	1	1
455.126	1	5
456.320	1	0
457.513	1	7
458.706	1	10
459.899	1	3
461.093	1	5
462.286	1	7
463.479	1	3
464.672	1	6
465.865	1	-1
467.058	1	-5
468.251	1	0
469.444	1	-1
470.637	1	2
471.830	1	4
473.023	1	0
474.215	1	16
475.408	1	4
476.601	1	9
477.793	1	8
478.986	1	-5
480.179	1	2
481.371	1	7
482.564	1	5
483.756	1	13
484.948	1	-6
486.141	1	2
487.333	1	2
488.525	1	-2
489.718	1	8
490.910	1	0
492.102	1	-4
493.294	1	8
494.486	1	4
495.678	1	4
496.870	1	4
498.062	1	14
499.254	1	8
500.446	1	-2
501.638	1	-1
502.829	1	10
504.021	1	5
505.213	1	9
506.404	1	10
507.596	1	2
508.788	1	25
509.979	1	3
511.171	1	3
512.362	1	4
513.553	1	-3
514.745	1	11
515.936	1	2
517.127	1	12
518.319	1	16
519.510	1	16
520.701	1	13
521.892	1	4
523.083	1	7
524.274	1	11
525.465	1	17
526.656	1	22
527.847	1	11
529.038	1	14
530.229	1	16
531.419	1	19
532.610	1	4
533.801	1	21
534.991	1	15
536.182	1	6
537.373	1	17
538.563	1	17
539.754	1	12
540.944	1	15
542.134	1	15
543.325	1	18
544.515	1	6
545.705	1	8
546.896	1	11
548.086	1	12
549.276	1	9
550.466	1	15
551.656	1	18
552.846	1	21
554.036	1	20
555.226	1	0
556.416	1	7
557.606	1	24
558.796	1	8
559.986	1	6
561.175	1	15
562.365	1	26
563.555	1	16
564.744	1	16
565.934	1	20
567.123	1	17
568.313	1	19
569.502	1	16
570.692	1	17
571.881	1	14
573.070	1	8
574.260	1	30
575.449	1	16
576.638	1	12
577.827	1	18
579.016	1	24
580.205	1	15
581.394	1	18
582.583	1	14
583.772	1	30
584.961	1	14
586.150	1	17
587.339	1	12
588.528	1	30
589.717	1	18
590.905	1	11
592.094	1	16
593.283	1	14
594.471	1	24
595.660	1	15
596.848	1	13
598.037	1	12
599.225	1	3
600.413	1	24
601.602	1	21
602.790	1	9
603.978	1	12
605.166	1	14
606.355	1	12
607.543	1	15
608.731	1	10
609.919	1	22
611.107	1	16
612.295	1	8
613.483	1	12
614.671	1	14
615.858	1	11
617.046	1	6
618.234	1	10
619.422	1	-3
620.609	1	18
621.797	1	12
622.985	1	16
624.172	1	13
625.360	1	14
626.547	1	7
627.735	1	27
628.922	1	2
630.109	1	5
631.297	1	11
632.484	1	12
633.671	1	11
634.858	1	4
636.045	1	16
637.232	1	4
638.419	1	3
639.606	1	10
640.793	1	9
641.980	1	9
643.167	1	6
644.354	1	10
645.541	1	9
646.728	1	4
647.914	1	5
649.101	1	10
650.288	1	23
651.474	1	7
652.661	1	4
653.847	1	5
655.034	1	6
656.220	1	-1
657.406	1	14
658.593	1	7
659.779	1	8
660.965	1	9
662.152	1	5
663.338	1	10
664.524	1	9
665.710	1	11
666.896	1	5
668.082	1	4
669.268	1	-3
670.454	1	7
671.640	1	1
672.826	1	11
674.011	1	8
675.197	1	-1
676.383	1	5
677.569	1	1
678.754	1	0
679.940	1	4
681.125	1	3
682.311	1	21
683.496	1	6
684.682	1	2
685.867	1	-2
687.053	1	13
688.238	1	12
688.746	1	-1

File: GaN_sample F_spot 12_UVVIS_200 K_200um_800 ms 2x2mm1_85.txt
340.368	1	5
341.565	1	-4
342.763	1	10
343.960	1	3
345.157	1	6
346.354	1	7
347.552	1	-5
348.749	1	4
349.946	1	-5
351.143	1	7
352.340	1	15
353.537	1	15
354.734	1	10
355.931	1	7
357.127	1	9
358.324	1	17
359.521	1	33
360.718	1	11
361.914	1	38
363.111	1	37
364.308	1	53
365.504	1	87
366.701	1	97
367.897	1	106
369.093	1	127
370.290	1	134
371.486	1	120
372.682	1	109
373.879	1	88
375.075	1	67
376.271	1	64
377.467	1	56
378.663	1	51
379.859	1	39
381.055	1	50
382.251	1	35
383.447	1	35
384.643	1	38
385.839	1	20
387.035	1	7
388.230	1	17
389.426	1	12
390.622	1	10
391.817	1	12
393.013	1	6
394.208	1	22
395.404	1	7
396.599	1	-4
397.795	1	15
398.990	1	8
400.186	1	14
401.381	1	-4
402.576	1	5
403.771	1	9
404.967	1	14
406.162	1	9
407.357	1	4
408.552	1	-4
409.747	1	-1
410.942	1	15
412.137	1	8
413.332	1	12
414.526	1	4
415.721	1	7
416.916	1	2
418.111	1	-1
419.305	1	3
420.500	1	-8
421.695	1	1
422.889	1	-2
424.084	1	-2
425.278	1	13
426.472	1	0
427.667	1	6
428.861	1	-3
430.055	1	6
431.250	1	-2
432.444	1	5
433.638	1	2
434.832	1	0
436.026	1	15
437.220	1	7
438.414	1	-2
439.608	1	-5
440.802	1	0
441.996	1	0
443.190	1	9
444.384	1	-8
445.578	1	-10
446.771	1	16
447.965	1	-2
449.159	1	0
450.352	1	3
451.546	1	5
452.739	1	13
453.933	1	0
455.126	1	-9
456.320	1	0
457.513	1	4
458.706	1	-2
459.899	1	8
461.093	1	5
462.286	1	3
463.479	1	5
464.672	1	0
465.865	1	-3
467.058	1	8
468.251	1	-5
469.444	1	-9
470.637	1	7
471.830	1	-4
473.023	1	8
474.215	1	13
475.408	1	1
476.601	1	6
477.793	1	5
478.986	1	4
480.179	1	8
481.371	1	11
482.564	1	12
483.756	1	6
484.948	1	-2
486.141	1	2
487.333	1	6
488.525	1	0
489.718	1	-1
490.910	1	3
492.102	1	-2
493.294	1	-2
494.486	1	17
495.678	1	9
496.870	1	10
498.062	1	2
499.254	1	12
500.446	1	-7
501.638	1	-3
502.829	1	9
504.021	1	4
505.213	1	11
506.404	1	8
507.596	1	15
508.788	1	18
509.979	1	-2
511.171	1	0
512.362	1	1
513.553	1	-7
514.745	1	6
515.936	1	7
517.127	1	2
518.319	1	6
519.510	1	7
520.701	1	7
521.892	1	12
523.083	1	9
524.274	1	5
525.465	1	12
526.656	1	5
527.847	1	10
529.038	1	13
530.229	1	12
531.419	1	18
532.610	1	2
533.801	1	23
534.991	1	13
536.182	1	7
537.373	1	12
538.563	1	19
539.754	1	20
540.944	1	1
542.134	1	16
543.325	1	12
544.515	1	1
545.705	1	8
546.896	1	8
548.086	1	14
549.276	1	12
550.466	1	15
551.656	1	14
552.846	1	16
554.036	1	20
555.226	1	-3
556.416	1	6
557.606	1	24
558.796	1	12
559.986	1	13
561.175	1	11
562.365	1	9
563.555	1	-1
564.744	1	10
565.934	1	20
567.123	1	26
568.313	1	16
569.502	1	4
570.692	1	10
571.881	1	26
573.070	1	17
574.260	1	15
575.449	1	9
576.638	1	5
577.827	1	4
579.016	1	19
580.205	1	18
581.394	1	9
582.583	1	13
583.772	1	23
584.961	1	19
586.150	1	9
587.339	1	15
588.528	1	13
589.717	1	5
590.905	1	3
592.094	1	13
593.283	1	11
594.471	1	22
595.660	1	5
596.848	1	11
598.037	1	9
599.225	1	0
600.413	1	10
601.602	1	18
602.790	1	4
603.978	1	7
605.166	1	7
606.355	1	18
607.543	1	8
608.731	1	10
609.919	1	12
611.107	1	3
612.295	1	9
613.483	1	14
614.671	1	12
615.858	1	12
617.046	1	11
618.234	1	-2
619.422	1	2
620.609	1	11
621.797	1	4
622.985	1	6
624.172	1	-2
625.360	1	8
626.547	1	5
627.735	1	3
628.922	1	10
630.109	1	-9
631.297	1	12
632.484	1	1
633.671	1	-3
634.858	1	18
636.045	1	17
637.232	1	4
638.419	1	-1
639.606	1	18
640.793	1	12
641.980	1	14
643.167	1	5
644.354	1	15
645.541	1	1
646.728	1	3
647.914	1	-3
649.101	1	3
650.288	1	10
651.474	1	7
652.661	1	5
653.847	1	15
655.034	1	5
656.220	1	8
657.406	1	9
658.593	1	9
659.779	1	4
660.965	1	16
662.152	1	15
663.338	1	17
664.524	1	13
665.710	1	7
666.896	1	-4
668.082	1	14
669.268	1	9
670.454	1	1
671.640	1	3
672.826	1	-3
674.011	1	-1
675.197	1	8
676.383	1	8
677.569	1	3
678.754	1	4
679.940	1	7
681.125	1	13
682.311	1	14
683.496	1	-2
684.682	1	-3
685.867	1	4
687.053	1	1
688.238	1	2
688.746	1	9

File: GaN_sample F_spot 12_UVVIS_200 K_200um_800 ms 2x2mm1_87.txt
340.368	1	3
341.565	1	-8
342.763	1	7
343.960	1	5
345.157	1	0
346.354	1	10
347.552	1	7
348.749	1	7
349.946	1	1
351.143	1	-2
352.340	1	11
353.537	1	0
354.734	1	0
355.931	1	18
357.127	1	10
358.324	1	8
359.521	1	29
360.718	1	27
361.914	1	34
363.111	1	42
364.308	1	57
365.504	1	76
366.701	1	92
367.897	1	120
369.093	1	124
370.290	1	124
371.486	1	135
372.682	1	109
373.879	1	88
375.075	1	71
376.271	1	69
377.467	1	58
378.663	1	37
379.859	1	41
381.055	1	47
382.251	1	27
383.447	1	34
384.643	1	31
385.839	1	21
387.035	1	21
388.230	1	25
389.426	1	10
390.622	1	17
391.817	1	8
393.013	1	8
394.208	1	9
395.404	1	-1
396.599	1	12
397.795	1	4
398.990	1	9
400.186	1	8
401.381	1	1
402.576	1	4
403.771	1	8
404.967	1	14
406.162	1	12
407.357	1	7
408.552	1	-1
409.747	1	-6
410.942	1	15
412.137	1	12
413.332	1	6
414.526	1	0
415.721	1	4
416.916	1	-9
418.111	1	10
419.305	1	5
420.500	1	3
421.695	1	-2
422.889	1	-11
424.084	1	8
425.278	1	6
426.472	1	7
427.667	1	9
428.861	1	-2
430.055	1	14
431.250	1	2
432.444	1	8
433.638	1	-2
434.832	1	9
436.026	1	8
437.220	1	9
438.414	1	-2
439.608	1	-3
440.802	1	-4
441.996	1	12
443.190	1	-1
444.384	1	-8
445.578	1	-2
446.771	1	13
447.965	1	3
449.159	1	0
450.352	1	2
451.546	1	6
452.739	1	3
453.933	1	2
455.126	1	0
456.320	1	-4
457.513	1	4
458.706	1	4
459.899	1	0
461.093	1	-4
462.286	1	12
463.479	1	3
464.672	1	2
465.865	1	0
467.058	1	0
468.251	1	-9
469.444	1	-6
470.637	1	6
471.830	1	3
473.023	1	4
474.215	1	15
475.408	1	-1
476.601	1	0
477.793	1	5
478.986	1	-11
480.179	1	5
481.371	1	11
482.564	1	5
483.756	1	11
484.948	1	-6
486.141	1	-1
487.333	1	3
488.525	1	6
489.718	1	-5
490.910	1	4
492.102	1	0
493.294	1	3
494.486	1	4
495.678	1	5
496.870	1	2
498.062	1	-3
499.254	1	7
500.446	1	0
501.638	1	10
502.829	1	1
504.021	1	6
505.213	1	13
506.404	1	7
507.596	1	12
508.788	1	19
509.979	1	7
511.171	1	6
512.362	1	1
513.553	1	-1
514.745	1	1
515.936	1	4
517.127	1	11
518.319	1	11
519.510	1	20
520.701	1	10
521.892	1	18
523.083	1	5
524.274	1	16
525.465	1	13
526.656	1	12
527.847	1	13
529.038	1	6
530.229	1	20
531.419	1	19
532.610	1	13
533.801	1	18
534.991	1	21
536.182	1	6
537.373	1	16
538.563	1	15
539.754	1	13
540.944	1	4
542.134	1	15
543.325	1	13
544.515	1	19
545.705	1	10
546.896	1	17
548.086	1	13
549.276	1	21
550.466	1	18
551.656	1	15
552.846	1	18
554.036	1	16
555.226	1	11
556.416	1	9
557.606	1	23
558.796	1	17
559.986	1	4
561.175	1	28
562.365	1	18
563.555	1	17
564.744	1	12
565.934	1	13
567.123	1	7
568.313	1	22
569.502	1	15
570.692	1	18
571.881	1	34
573.070	1	22
574.260	1	20
575.449	1	12
576.638	1	5
577.827	1	12
579.016	1	19
580.205	1	14
581.394	1	18
582.583	1	18
583.772	1	18
584.961	1	20
586.150	1	5
587.339	1	17
588.528	1	21
589.717	1	13
590.905	1	16
592.094	1	15
593.283	1	13
594.471	1	24
595.660	1	13
596.848	1	15
598.037	1	6
599.225	1	0
600.413	1	17
601.602	1	15
602.790	1	11
603.978	1	7
605.166	1	12
606.355	1	15
607.543	1	3
608.731	1	17
609.919	1	20
611.107	1	9
612.295	1	5
613.483	1	17
614.671	1	10
615.858	1	9
617.046	1	5
618.234	1	8
619.422	1	-2
620.609	1	11
621.797	1	-1
622.985	1	6
624.172	1	4
625.360	1	14
626.547	1	10
627.735	1	6
628.922	1	12
630.109	1	3
631.297	1	13
632.484	1	4
633.671	1	2
634.858	1	13
636.045	1	17
637.232	1	10
638.419	1	-2
639.606	1	7
640.793	1	14
641.980	1	8
643.167	1	-4
644.354	1	9
645.541	1	10
646.728	1	3
647.914	1	11
649.101	1	-1
650.288	1	12
651.474	1	7
652.661	1	9
653.847	1	13
655.034	1	-1
656.220	1	-1
657.406	1	12
658.593	1	22
659.779	1	7
660.965	1	16
662.152	1	12
663.338	1	7
664.524	1	5
665.710	1	1
666.896	1	-4
668.082	1	3
669.268	1	9
670.454	1	9
671.640	1	7
672.826	1	4
674.011	1	8
675.197	1	-5
676.383	1	1
677.569	1	5
678.754	1	0
679.940	1	-1
681.125	1	11
682.311	1	13
683.496	1	8
684.682	1	8
685.867	1	0
687.053	1	4
688.238	1	13
688.746	1	2

File: GaN_sample F_spot 12_UVVIS_200 K_200um_800 ms 2x2mm1_88.txt
340.368	1	3
341.565	1	-9
342.763	1	13
343.960	1	3
345.157	1	-4
346.354	1	4
347.552	1	2
348.749	1	3
349.946	1	-5
351.143	1	9
352.340	1	6
353.537	1	11
354.734	1	9
355.931	1	8
357.127	1	6
358.324	1	8
359.521	1	20
360.718	1	27
361.914	1	36
363.111	1	35
364.308	1	50
365.504	1	67
366.701	1	86
367.897	1	102
369.093	1	116
370.290	1	121
371.486	1	125
372.682	1	99
373.879	1	83
375.075	1	74
376.271	1	62
377.467	1	53
378.663	1	40
379.859	1	36
381.055	1	38
382.251	1	30
383.447	1	15
384.643	1	25
385.839	1	23
387.035	1	23
388.230	1	16
389.426	1	10
390.622	1	8
391.817	1	21
393.013	1	9
394.208	1	9
395.404	1	8
396.599	1	0
397.795	1	15
398.990	1	14
400.186	1	9
401.381	1	-3
402.576	1	-5
403.771	1	1
404.967	1	5
406.162	1	7
407.357	1	7
408.552	1	8
409.747	1	-1
410.942	1	10
412.137	1	13
413.332	1	11
414.526	1	8
415.721	1	1
416.916	1	4
418.111	1	3
419.305	1	-1
420.500	1	5
421.695	1	-3
422.889	1	3
424.084	1	1
425.278	1	9
426.472	1	2
427.667	1	4
428.861	1	4
430.055	1	12
431.250	1	-4
432.444	1	12
433.638	1	0
434.832	1	7
436.026	1	11
437.220	1	7
438.414	1	0
439.608	1	5
440.802	1	-3
441.996	1	1
443.190	1	2
444.384	1	3
445.578	1	0
446.771	1	19
447.965	1	1
449.159	1	-5
450.352	1	5
451.546	1	12
452.739	1	6
453.933	1	1
455.126	1	-4
456.320	1	-1
457.513	1	8
458.706	1	-2
459.899	1	3
461.093	1	3
462.286	1	2
463.479	1	-1
464.672	1	9
465.865	1	-3
467.058	1	-3
468.251	1	8
469.444	1	-8
470.637	1	-1
471.830	1	-2
473.023	1	1
474.215	1	5
475.408	1	-2
476.601	1	6
477.793	1	-1
478.986	1	-5
480.179	1	0
481.371	1	11
482.564	1	10
483.756	1	10
484.948	1	-5
486.141	1	4
487.333	1	-5
488.525	1	5
489.718	1	2
490.910	1	10
492.102	1	4
493.294	1	-2
494.486	1	11
495.678	1	10
496.870	1	11
498.062	1	4
499.254	1	7
500.446	1	-9
501.638	1	-2
502.829	1	7
504.021	1	12
505.213	1	12
506.404	1	11
507.596	1	4
508.788	1	16
509.979	1	3
511.171	1	1
512.362	1	2
513.553	1	-2
514.745	1	-1
515.936	1	7
517.127	1	5
518.319	1	13
519.510	1	13
520.701	1	6
521.892	1	16
523.083	1	-1
524.274	1	10
525.465	1	17
526.656	1	14
527.847	1	7
529.038	1	8
530.229	1	13
531.419	1	15
532.610	1	8
533.801	1	26
534.991	1	10
536.182	1	18
537.373	1	12
538.563	1	16
539.754	1	24
540.944	1	6
542.134	1	13
543.325	1	5
544.515	1	14
545.705	1	11
546.896	1	14
548.086	1	23
549.276	1	9
550.466	1	19
551.656	1	18
552.846	1	25
554.036	1	13
555.226	1	15
556.416	1	6
557.606	1	14
558.796	1	12
559.986	1	6
561.175	1	17
562.365	1	14
563.555	1	12
564.744	1	21
565.934	1	11
567.123	1	19
568.313	1	11
569.502	1	14
570.692	1	14
571.881	1	25
573.070	1	17
574.260	1	21
575.449	1	11
576.638	1	5
577.827	1	4
579.016	1	15
580.205	1	13
581.394	1	16
582.583	1	20
583.772	1	19
584.961	1	15
586.150	1	10
587.339	1	11
588.528	1	16
589.717	1	11
590.905	1	16
592.094	1	12
593.283	1	17
594.471	1	21
595.660	1	14
596.848	1	14
598.037	1	3
599.225	1	2
600.413	1	17
601.602	1	16
602.790	1	6
603.978	1	7
605.166	1	8
606.355	1	10
607.543	1	9
608.731	1	10
609.919	1	24
611.107	1	8
612.295	1	7
613.483	1	18
614.671	1	17
615.858	1	15
617.046	1	14
618.234	1	10
619.422	1	7
620.609	1	10
621.797	1	8
622.985	1	11
624.172	1	6
625.360	1	8
626.547	1	6
627.735	1	24
628.922	1	14
630.109	1	5
631.297	1	12
632.484	1	-1
633.671	1	5
634.858	1	7
636.045	1	20
637.232	1	3
638.419	1	7
639.606	1	21
640.793	1	15
641.980	1	6
643.167	1	-1
644.354	1	4
645.541	1	6
646.728	1	2
647.914	1	8
649.101	1	9
650.288	1	10
651.474	1	-4
652.661	1	6
653.847	1	7
655.034	1	10
656.220	1	-3
657.406	1	3
658.593	1	2
659.779	1	3
660.965	1	11
662.152	1	1
663.338	1	17
664.524	1	12
665.710	1	14
666.896	1	-2
668.082	1	9
669.268	1	-3
670.454	1	6
671.640	1	3
672.826	1	2
674.011	1	6
675.197	1	-1
676.383	1	11
677.569	1	4
678.754	1	1
679.940	1	-3
681.125	1	6
682.311	1	18
683.496	1	5
684.682	1	-8
685.867	1	-2
687.053	1	12
688.238	1	16
688.746	1	2

File: GaN_sample F_spot 12_UVVIS_200 K_200um_800 ms 2x2mm1_90.txt
340.368	1	11
341.565	1	-3
342.763	1	17
343.960	1	1
345.157	1	-1
346.354	1	2
347.552	1	8
348.749	1	5
349.946	1	4
351.143	1	6
352.340	1	7
353.537	1	8
354.734	1	13
355.931	1	10
357.127	1	10
358.324	1	12
359.521	1	27
360.718	1	19
361.914	1	32
363.111	1	44
364.308	1	51
365.504	1	75
366.701	1	88
367.897	1	104
369.093	1	100
370.290	1	116
371.486	1	119
372.682	1	106
373.879	1	77
375.075	1	60
376.271	1	68
377.467	1	51
378.663	1	43
379.859	1	32
381.055	1	29
382.251	1	30
383.447	1	31
384.643	1	30
385.839	1	21
387.035	1	21
388.230	1	17
389.426	1	15
390.622	1	7
391.817	1	9
393.013	1	15
394.208	1	11
395.404	1	3
396.599	1	4
397.795	1	14
398.990	1	8
400.186	1	7
401.381	1	2
402.576	1	15
403.771	1	11
404.967	1	6
406.162	1	16
407.357	1	-4
408.552	1	-1
409.747	1	4
410.942	1	10
412.137	1	7
413.332	1	6
414.526	1	5
415.721	1	3
416.916	1	-1
418.111	1	2
419.305	1	9
420.500	1	4
421.695	1	2
422.889	1	-6
424.084	1	-2
425.278	1	6
426.472	1	7
427.667	1	3
428.861	1	9
430.055	1	6
431.250	1	-2
432.444	1	6
433.638	1	-4
434.832	1	2
436.026	1	7
437.220	1	6
438.414	1	0
439.608	1	-12
440.802	1	-5
441.996	1	10
443.190	1	-3
444.384	1	-2
445.578	1	-2
446.771	1	10
447.965	1	8
449.159	1	0
450.352	1	0
451.546	1	10
452.739	1	-2
453.933	1	-2
455.126	1	-6
456.320	1	4
457.513	1	10
458.706	1	6
459.899	1	4
461.093	1	0
462.286	1	2
463.479	1	-5
464.672	1	4
465.865	1	4
467.058	1	4
468.251	1	4
469.444	1	-2
470.637	1	5
471.830	1	0
473.023	1	3
474.215	1	16
475.408	1	6
476.601	1	1
477.793	1	5
478.986	1	-1
480.179	1	-5
481.371	1	2
482.564	1	8
483.756	1	11
484.948	1	0
486.141	1	0
487.333	1	2
488.525	1	4
489.718	1	4
490.910	1	2
492.102	1	-6
493.294	1	5
494.486	1	13
495.678	1	-1
496.870	1	10
498.062	1	-1
499.254	1	3
500.446	1	-6
501.638	1	2
502.829	1	12
504.021	1	10
505.213	1	15
506.404	1	15
507.596	1	9
508.788	1	15
509.979	1	9
511.171	1	-7
512.362	1	0
513.553	1	3
514.745	1	14
515.936	1	3
517.127	1	2
518.319	1	9
519.510	1	1
520.701	1	15
521.892	1	8
523.083	1	5
524.274	1	7
525.465	1	18
526.656	1	3
527.847	1	9
529.038	1	13
530.229	1	13
531.419	1	9
532.610	1	3
533.801	1	15
534.991	1	13
536.182	1	10
537.373	1	13
538.563	1	14
539.754	1	17
540.944	1	8
542.134	1	14
543.325	1	9
544.515	1	8
545.705	1	9
546.896	1	12
548.086	1	14
549.276	1	12
550.466	1	16
551.656	1	22
552.846	1	7
554.036	1	14
555.226	1	4
556.416	1	-4
557.606	1	16
558.796	1	9
559.986	1	10
561.175	1	12
562.365	1	6
563.555	1	14
564.744	1	14
565.934	1	19
567.123	1	18
568.313	1	13
569.502	1	11
570.692	1	12
571.881	1	25
573.070	1	13
574.260	1	16
575.449	1	4
576.638	1	5
577.827	1	15
579.016	1	14
580.205	1	7
581.394	1	14
582.583	1	17
583.772	1	15
584.961	1	15
586.150	1	7
587.339	1	14
588.528	1	14
589.717	1	16
590.905	1	9
592.094	1	4
593.283	1	5
594.471	1	20
595.660	1	10
596.848	1	4
598.037	1	6
599.225	1	5
600.413	1	19
601.602	1	20
602.790	1	7
603.978	1	18
605.166	1	17
606.355	1	4
607.543	1	10
608.731	1	12
609.919	1	20
611.107	1	13
612.295	1	2
613.483	1	20
614.671	1	13
615.858	1	7
617.046	1	1
618.234	1	4
619.422	1	2
620.609	1	9
621.797	1	8
622.985	1	4
624.172	1	5
625.360	1	7
626.547	1	2
627.735	1	9
628.922	1	8
630.109	1	-1
631.297	1	2
632.484	1	-1
633.671	1	7
634.858	1	7
636.045	1	12
637.232	1	8
638.419	1	11
639.606	1	9
640.793	1	13
641.980	1	13
643.167	1	-10
644.354	1	3
645.541	1	14
646.728	1	0
647.914	1	4
649.101	1	5
650.288	1	10
651.474	1	3
652.661	1	8
653.847	1	20
655.034	1	0
656.220	1	-4
657.406	1	9
658.593	1	11
659.779	1	-2
660.965	1	15
662.152	1	7
663.338	1	18
664.524	1	12
665.710	1	3
666.896	1	1
668.082	1	6
669.268	1	4
670.454	1	13
671.640	1	-1
672.826	1	2
674.011	1	2
675.197	1	8
676.383	1	4
677.569	1	2
678.754	1	0
679.940	1	-3
681.125	1	11
682.311	1	10
683.496	1	10
684.682	1	3
685.867	1	6
687.053	1	10
688.238	1	4
688.746	1	7