Folder: cryo-il_analysis/Data/GaN_150K_450ms (part 6)

File: GaN_sample D_spot15_UVVIS_150 K_200um_450 ms 2x2mm1_66.txt
340.368	1	2
341.565	1	17
342.763	1	0
343.960	1	8
345.157	1	14
346.354	1	8
347.552	1	19
348.749	1	18
349.946	1	4
351.143	1	7
352.340	1	15
353.537	1	11
354.734	1	17
355.931	1	15
357.127	1	32
358.324	1	37
359.521	1	44
360.718	1	45
361.914	1	77
363.111	1	105
364.308	1	153
365.504	1	221
366.701	1	278
367.897	1	327
369.093	1	320
370.290	1	272
371.486	1	212
372.682	1	168
373.879	1	134
375.075	1	113
376.271	1	84
377.467	1	96
378.663	1	71
379.859	1	60
381.055	1	53
382.251	1	39
383.447	1	37
384.643	1	37
385.839	1	37
387.035	1	33
388.230	1	36
389.426	1	30
390.622	1	19
391.817	1	18
393.013	1	28
394.208	1	31
395.404	1	23
396.599	1	23
397.795	1	20
398.990	1	33
400.186	1	29
401.381	1	12
402.576	1	15
403.771	1	6
404.967	1	25
406.162	1	18
407.357	1	24
408.552	1	18
409.747	1	14
410.942	1	22
412.137	1	17
413.332	1	20
414.526	1	10
415.721	1	18
416.916	1	17
418.111	1	15
419.305	1	16
420.500	1	7
421.695	1	20
422.889	1	25
424.084	1	9
425.278	1	15
426.472	1	24
427.667	1	14
428.861	1	29
430.055	1	31
431.250	1	15
432.444	1	18
433.638	1	22
434.832	1	13
436.026	1	2
437.220	1	18
438.414	1	20
439.608	1	15
440.802	1	13
441.996	1	15
443.190	1	19
444.384	1	21
445.578	1	15
446.771	1	14
447.965	1	13
449.159	1	15
450.352	1	13
451.546	1	14
452.739	1	13
453.933	1	5
455.126	1	11
456.320	1	17
457.513	1	7
458.706	1	19
459.899	1	-1
461.093	1	9
462.286	1	11
463.479	1	3
464.672	1	15
465.865	1	10
467.058	1	4
468.251	1	13
469.444	1	12
470.637	1	13
471.830	1	17
473.023	1	22
474.215	1	8
475.408	1	9
476.601	1	20
477.793	1	12
478.986	1	15
480.179	1	25
481.371	1	5
482.564	1	20
483.756	1	20
484.948	1	15
486.141	1	26
487.333	1	10
488.525	1	22
489.718	1	6
490.910	1	35
492.102	1	33
493.294	1	18
494.486	1	27
495.678	1	34
496.870	1	34
498.062	1	30
499.254	1	44
500.446	1	42
501.638	1	47
502.829	1	38
504.021	1	47
505.213	1	43
506.404	1	51
507.596	1	61
508.788	1	46
509.979	1	54
511.171	1	61
512.362	1	61
513.553	1	60
514.745	1	55
515.936	1	61
517.127	1	76
518.319	1	64
519.510	1	63
520.701	1	65
521.892	1	79
523.083	1	71
524.274	1	74
525.465	1	73
526.656	1	70
527.847	1	67
529.038	1	82
530.229	1	84
531.419	1	86
532.610	1	71
533.801	1	72
534.991	1	69
536.182	1	65
537.373	1	71
538.563	1	65
539.754	1	66
540.944	1	72
542.134	1	79
543.325	1	77
544.515	1	59
545.705	1	74
546.896	1	71
548.086	1	65
549.276	1	54
550.466	1	66
551.656	1	69
552.846	1	70
554.036	1	61
555.226	1	60
556.416	1	60
557.606	1	39
558.796	1	59
559.986	1	48
561.175	1	53
562.365	1	42
563.555	1	44
564.744	1	48
565.934	1	52
567.123	1	37
568.313	1	49
569.502	1	50
570.692	1	46
571.881	1	29
573.070	1	32
574.260	1	41
575.449	1	39
576.638	1	45
577.827	1	28
579.016	1	30
580.205	1	34
581.394	1	36
582.583	1	33
583.772	1	28
584.961	1	27
586.150	1	37
587.339	1	17
588.528	1	9
589.717	1	34
590.905	1	23
592.094	1	21
593.283	1	18
594.471	1	7
595.660	1	27
596.848	1	25
598.037	1	18
599.225	1	22
600.413	1	16
601.602	1	24
602.790	1	24
603.978	1	23
605.166	1	18
606.355	1	3
607.543	1	29
608.731	1	14
609.919	1	6
611.107	1	23
612.295	1	19
613.483	1	18
614.671	1	13
615.858	1	10
617.046	1	12
618.234	1	8
619.422	1	22
620.609	1	20
621.797	1	9
622.985	1	7
624.172	1	6
625.360	1	9
626.547	1	12
627.735	1	14
628.922	1	16
630.109	1	4
631.297	1	16
632.484	1	21
633.671	1	21
634.858	1	13
636.045	1	0
637.232	1	7
638.419	1	6
639.606	1	20
640.793	1	8
641.980	1	14
643.167	1	12
644.354	1	15
645.541	1	14
646.728	1	20
647.914	1	10
649.101	1	11
650.288	1	12
651.474	1	14
652.661	1	12
653.847	1	15
655.034	1	7
656.220	1	14
657.406	1	8
658.593	1	8
659.779	1	15
660.965	1	10
662.152	1	15
663.338	1	0
664.524	1	20
665.710	1	17
666.896	1	1
668.082	1	11
669.268	1	6
670.454	1	19
671.640	1	15
672.826	1	12
674.011	1	9
675.197	1	16
676.383	1	3
677.569	1	22
678.754	1	8
679.940	1	7
681.125	1	10
682.311	1	18
683.496	1	5
684.682	1	10
685.867	1	15
687.053	1	27
688.238	1	24
688.746	1	18

File: GaN_sample D_spot15_UVVIS_150 K_200um_450 ms 2x2mm1_67.txt
340.368	1	-2
341.565	1	14
342.763	1	4
343.960	1	10
345.157	1	16
346.354	1	6
347.552	1	18
348.749	1	15
349.946	1	3
351.143	1	4
352.340	1	13
353.537	1	8
354.734	1	15
355.931	1	14
357.127	1	27
358.324	1	27
359.521	1	40
360.718	1	52
361.914	1	77
363.111	1	87
364.308	1	149
365.504	1	184
366.701	1	267
367.897	1	318
369.093	1	300
370.290	1	263
371.486	1	200
372.682	1	171
373.879	1	136
375.075	1	124
376.271	1	93
377.467	1	93
378.663	1	66
379.859	1	63
381.055	1	46
382.251	1	34
383.447	1	49
384.643	1	30
385.839	1	43
387.035	1	41
388.230	1	35
389.426	1	31
390.622	1	30
391.817	1	23
393.013	1	21
394.208	1	17
395.404	1	24
396.599	1	17
397.795	1	21
398.990	1	28
400.186	1	22
401.381	1	18
402.576	1	19
403.771	1	13
404.967	1	16
406.162	1	12
407.357	1	26
408.552	1	12
409.747	1	18
410.942	1	28
412.137	1	13
413.332	1	22
414.526	1	17
415.721	1	20
416.916	1	14
418.111	1	21
419.305	1	20
420.500	1	13
421.695	1	20
422.889	1	19
424.084	1	14
425.278	1	11
426.472	1	22
427.667	1	8
428.861	1	18
430.055	1	10
431.250	1	24
432.444	1	19
433.638	1	15
434.832	1	-5
436.026	1	13
437.220	1	26
438.414	1	10
439.608	1	4
440.802	1	11
441.996	1	7
443.190	1	21
444.384	1	11
445.578	1	1
446.771	1	12
447.965	1	11
449.159	1	7
450.352	1	9
451.546	1	7
452.739	1	7
453.933	1	16
455.126	1	6
456.320	1	11
457.513	1	16
458.706	1	18
459.899	1	13
461.093	1	10
462.286	1	10
463.479	1	6
464.672	1	18
465.865	1	8
467.058	1	11
468.251	1	-3
469.444	1	18
470.637	1	4
471.830	1	5
473.023	1	16
474.215	1	11
475.408	1	11
476.601	1	1
477.793	1	11
478.986	1	18
480.179	1	15
481.371	1	9
482.564	1	20
483.756	1	18
484.948	1	24
486.141	1	12
487.333	1	14
488.525	1	16
489.718	1	4
490.910	1	35
492.102	1	21
493.294	1	21
494.486	1	30
495.678	1	48
496.870	1	32
498.062	1	27
499.254	1	42
500.446	1	33
501.638	1	35
502.829	1	37
504.021	1	43
505.213	1	49
506.404	1	49
507.596	1	48
508.788	1	53
509.979	1	54
511.171	1	56
512.362	1	69
513.553	1	67
514.745	1	58
515.936	1	63
517.127	1	73
518.319	1	53
519.510	1	56
520.701	1	69
521.892	1	63
523.083	1	69
524.274	1	70
525.465	1	79
526.656	1	73
527.847	1	66
529.038	1	67
530.229	1	79
531.419	1	65
532.610	1	80
533.801	1	68
534.991	1	68
536.182	1	59
537.373	1	58
538.563	1	67
539.754	1	64
540.944	1	66
542.134	1	63
543.325	1	70
544.515	1	66
545.705	1	66
546.896	1	60
548.086	1	72
549.276	1	66
550.466	1	68
551.656	1	53
552.846	1	57
554.036	1	60
555.226	1	53
556.416	1	55
557.606	1	40
558.796	1	51
559.986	1	57
561.175	1	41
562.365	1	44
563.555	1	39
564.744	1	47
565.934	1	54
567.123	1	35
568.313	1	39
569.502	1	49
570.692	1	38
571.881	1	33
573.070	1	43
574.260	1	32
575.449	1	17
576.638	1	38
577.827	1	28
579.016	1	32
580.205	1	31
581.394	1	21
582.583	1	40
583.772	1	19
584.961	1	19
586.150	1	24
587.339	1	11
588.528	1	26
589.717	1	36
590.905	1	20
592.094	1	26
593.283	1	30
594.471	1	19
595.660	1	27
596.848	1	21
598.037	1	23
599.225	1	8
600.413	1	13
601.602	1	22
602.790	1	31
603.978	1	13
605.166	1	18
606.355	1	3
607.543	1	13
608.731	1	4
609.919	1	8
611.107	1	21
612.295	1	22
613.483	1	16
614.671	1	14
615.858	1	7
617.046	1	9
618.234	1	10
619.422	1	24
620.609	1	9
621.797	1	14
622.985	1	12
624.172	1	18
625.360	1	12
626.547	1	12
627.735	1	10
628.922	1	20
630.109	1	4
631.297	1	15
632.484	1	14
633.671	1	10
634.858	1	19
636.045	1	7
637.232	1	13
638.419	1	4
639.606	1	12
640.793	1	15
641.980	1	9
643.167	1	10
644.354	1	19
645.541	1	4
646.728	1	20
647.914	1	7
649.101	1	8
650.288	1	17
651.474	1	11
652.661	1	10
653.847	1	18
655.034	1	11
656.220	1	14
657.406	1	8
658.593	1	15
659.779	1	16
660.965	1	8
662.152	1	14
663.338	1	6
664.524	1	19
665.710	1	7
666.896	1	14
668.082	1	13
669.268	1	6
670.454	1	9
671.640	1	15
672.826	1	5
674.011	1	16
675.197	1	11
676.383	1	16
677.569	1	16
678.754	1	15
679.940	1	4
681.125	1	6
682.311	1	20
683.496	1	5
684.682	1	15
685.867	1	10
687.053	1	28
688.238	1	23
688.746	1	20

File: GaN_sample D_spot15_UVVIS_150 K_200um_450 ms 2x2mm1_69.txt
340.368	1	-1
341.565	1	7
342.763	1	4
343.960	1	11
345.157	1	10
346.354	1	12
347.552	1	21
348.749	1	18
349.946	1	9
351.143	1	9
352.340	1	16
353.537	1	8
354.734	1	2
355.931	1	14
357.127	1	29
358.324	1	26
359.521	1	41
360.718	1	53
361.914	1	65
363.111	1	85
364.308	1	128
365.504	1	171
366.701	1	247
367.897	1	278
369.093	1	264
370.290	1	239
371.486	1	181
372.682	1	144
373.879	1	117
375.075	1	105
376.271	1	83
377.467	1	70
378.663	1	68
379.859	1	55
381.055	1	44
382.251	1	48
383.447	1	36
384.643	1	32
385.839	1	44
387.035	1	33
388.230	1	35
389.426	1	26
390.622	1	17
391.817	1	21
393.013	1	27
394.208	1	9
395.404	1	22
396.599	1	23
397.795	1	15
398.990	1	38
400.186	1	19
401.381	1	18
402.576	1	13
403.771	1	11
404.967	1	21
406.162	1	6
407.357	1	19
408.552	1	10
409.747	1	2
410.942	1	25
412.137	1	13
413.332	1	25
414.526	1	7
415.721	1	13
416.916	1	14
418.111	1	15
419.305	1	13
420.500	1	23
421.695	1	24
422.889	1	24
424.084	1	18
425.278	1	18
426.472	1	24
427.667	1	12
428.861	1	26
430.055	1	24
431.250	1	15
432.444	1	21
433.638	1	19
434.832	1	14
436.026	1	8
437.220	1	19
438.414	1	15
439.608	1	9
440.802	1	7
441.996	1	10
443.190	1	17
444.384	1	16
445.578	1	15
446.771	1	16
447.965	1	17
449.159	1	3
450.352	1	7
451.546	1	7
452.739	1	16
453.933	1	6
455.126	1	14
456.320	1	20
457.513	1	6
458.706	1	22
459.899	1	5
461.093	1	11
462.286	1	10
463.479	1	7
464.672	1	6
465.865	1	6
467.058	1	10
468.251	1	4
469.444	1	11
470.637	1	16
471.830	1	15
473.023	1	19
474.215	1	6
475.408	1	13
476.601	1	17
477.793	1	4
478.986	1	20
480.179	1	14
481.371	1	1
482.564	1	15
483.756	1	13
484.948	1	16
486.141	1	21
487.333	1	10
488.525	1	14
489.718	1	17
490.910	1	25
492.102	1	20
493.294	1	19
494.486	1	26
495.678	1	25
496.870	1	20
498.062	1	32
499.254	1	39
500.446	1	34
501.638	1	44
502.829	1	37
504.021	1	42
505.213	1	43
506.404	1	43
507.596	1	54
508.788	1	56
509.979	1	44
511.171	1	46
512.362	1	55
513.553	1	57
514.745	1	57
515.936	1	53
517.127	1	61
518.319	1	56
519.510	1	51
520.701	1	66
521.892	1	66
523.083	1	64
524.274	1	66
525.465	1	73
526.656	1	72
527.847	1	59
529.038	1	56
530.229	1	78
531.419	1	65
532.610	1	77
533.801	1	62
534.991	1	63
536.182	1	69
537.373	1	52
538.563	1	50
539.754	1	60
540.944	1	58
542.134	1	56
543.325	1	64
544.515	1	58
545.705	1	54
546.896	1	60
548.086	1	64
549.276	1	60
550.466	1	56
551.656	1	53
552.846	1	55
554.036	1	61
555.226	1	54
556.416	1	43
557.606	1	35
558.796	1	48
559.986	1	45
561.175	1	38
562.365	1	38
563.555	1	48
564.744	1	47
565.934	1	44
567.123	1	30
568.313	1	39
569.502	1	36
570.692	1	28
571.881	1	24
573.070	1	38
574.260	1	36
575.449	1	31
576.638	1	34
577.827	1	36
579.016	1	32
580.205	1	28
581.394	1	28
582.583	1	31
583.772	1	29
584.961	1	16
586.150	1	22
587.339	1	30
588.528	1	15
589.717	1	22
590.905	1	26
592.094	1	20
593.283	1	16
594.471	1	4
595.660	1	15
596.848	1	15
598.037	1	15
599.225	1	19
600.413	1	24
601.602	1	23
602.790	1	13
603.978	1	19
605.166	1	15
606.355	1	7
607.543	1	20
608.731	1	6
609.919	1	6
611.107	1	24
612.295	1	6
613.483	1	10
614.671	1	6
615.858	1	9
617.046	1	13
618.234	1	2
619.422	1	28
620.609	1	5
621.797	1	9
622.985	1	4
624.172	1	16
625.360	1	0
626.547	1	9
627.735	1	7
628.922	1	17
630.109	1	3
631.297	1	14
632.484	1	10
633.671	1	15
634.858	1	15
636.045	1	5
637.232	1	6
638.419	1	12
639.606	1	16
640.793	1	5
641.980	1	23
643.167	1	7
644.354	1	23
645.541	1	13
646.728	1	19
647.914	1	3
649.101	1	14
650.288	1	11
651.474	1	16
652.661	1	7
653.847	1	12
655.034	1	8
656.220	1	10
657.406	1	6
658.593	1	14
659.779	1	18
660.965	1	7
662.152	1	10
663.338	1	7
664.524	1	10
665.710	1	10
666.896	1	6
668.082	1	11
669.268	1	11
670.454	1	10
671.640	1	14
672.826	1	12
674.011	1	4
675.197	1	15
676.383	1	11
677.569	1	22
678.754	1	7
679.940	1	6
681.125	1	13
682.311	1	15
683.496	1	2
684.682	1	15
685.867	1	10
687.053	1	18
688.238	1	22
688.746	1	8

File: GaN_sample D_spot15_UVVIS_150 K_200um_450 ms 2x2mm1_70.txt
340.368	1	0
341.565	1	14
342.763	1	5
343.960	1	7
345.157	1	13
346.354	1	8
347.552	1	21
348.749	1	17
349.946	1	1
351.143	1	6
352.340	1	18
353.537	1	4
354.734	1	16
355.931	1	24
357.127	1	30
358.324	1	30
359.521	1	41
360.718	1	47
361.914	1	63
363.111	1	78
364.308	1	118
365.504	1	158
366.701	1	224
367.897	1	244
369.093	1	245
370.290	1	217
371.486	1	161
372.682	1	140
373.879	1	121
375.075	1	86
376.271	1	82
377.467	1	79
378.663	1	60
379.859	1	54
381.055	1	34
382.251	1	30
383.447	1	36
384.643	1	39
385.839	1	34
387.035	1	30
388.230	1	29
389.426	1	27
390.622	1	23
391.817	1	11
393.013	1	28
394.208	1	21
395.404	1	26
396.599	1	17
397.795	1	19
398.990	1	26
400.186	1	18
401.381	1	13
402.576	1	17
403.771	1	7
404.967	1	22
406.162	1	12
407.357	1	18
408.552	1	14
409.747	1	13
410.942	1	18
412.137	1	17
413.332	1	14
414.526	1	4
415.721	1	20
416.916	1	12
418.111	1	20
419.305	1	10
420.500	1	21
421.695	1	13
422.889	1	19
424.084	1	17
425.278	1	24
426.472	1	21
427.667	1	10
428.861	1	10
430.055	1	20
431.250	1	19
432.444	1	12
433.638	1	15
434.832	1	16
436.026	1	11
437.220	1	17
438.414	1	23
439.608	1	-1
440.802	1	16
441.996	1	18
443.190	1	15
444.384	1	17
445.578	1	8
446.771	1	15
447.965	1	9
449.159	1	4
450.352	1	3
451.546	1	13
452.739	1	14
453.933	1	4
455.126	1	13
456.320	1	19
457.513	1	4
458.706	1	15
459.899	1	5
461.093	1	19
462.286	1	17
463.479	1	8
464.672	1	13
465.865	1	13
467.058	1	10
468.251	1	11
469.444	1	11
470.637	1	5
471.830	1	8
473.023	1	9
474.215	1	17
475.408	1	6
476.601	1	11
477.793	1	8
478.986	1	16
480.179	1	25
481.371	1	6
482.564	1	10
483.756	1	15
484.948	1	14
486.141	1	21
487.333	1	4
488.525	1	16
489.718	1	17
490.910	1	27
492.102	1	26
493.294	1	18
494.486	1	25
495.678	1	23
496.870	1	35
498.062	1	31
499.254	1	17
500.446	1	32
501.638	1	51
502.829	1	28
504.021	1	42
505.213	1	35
506.404	1	43
507.596	1	53
508.788	1	47
509.979	1	48
511.171	1	55
512.362	1	57
513.553	1	54
514.745	1	54
515.936	1	53
517.127	1	63
518.319	1	54
519.510	1	48
520.701	1	58
521.892	1	58
523.083	1	61
524.274	1	64
525.465	1	69
526.656	1	61
527.847	1	46
529.038	1	68
530.229	1	65
531.419	1	68
532.610	1	61
533.801	1	74
534.991	1	51
536.182	1	58
537.373	1	53
538.563	1	59
539.754	1	48
540.944	1	55
542.134	1	52
543.325	1	61
544.515	1	43
545.705	1	58
546.896	1	50
548.086	1	54
549.276	1	58
550.466	1	46
551.656	1	53
552.846	1	47
554.036	1	51
555.226	1	47
556.416	1	51
557.606	1	36
558.796	1	49
559.986	1	44
561.175	1	38
562.365	1	38
563.555	1	46
564.744	1	50
565.934	1	50
567.123	1	29
568.313	1	32
569.502	1	35
570.692	1	32
571.881	1	36
573.070	1	30
574.260	1	38
575.449	1	26
576.638	1	20
577.827	1	32
579.016	1	36
580.205	1	33
581.394	1	28
582.583	1	23
583.772	1	27
584.961	1	16
586.150	1	26
587.339	1	18
588.528	1	7
589.717	1	16
590.905	1	14
592.094	1	17
593.283	1	19
594.471	1	13
595.660	1	22
596.848	1	15
598.037	1	17
599.225	1	14
600.413	1	21
601.602	1	21
602.790	1	20
603.978	1	26
605.166	1	15
606.355	1	1
607.543	1	15
608.731	1	7
609.919	1	8
611.107	1	13
612.295	1	5
613.483	1	8
614.671	1	16
615.858	1	6
617.046	1	6
618.234	1	0
619.422	1	23
620.609	1	5
621.797	1	6
622.985	1	11
624.172	1	12
625.360	1	8
626.547	1	-3
627.735	1	13
628.922	1	13
630.109	1	5
631.297	1	12
632.484	1	16
633.671	1	13
634.858	1	10
636.045	1	-3
637.232	1	7
638.419	1	3
639.606	1	14
640.793	1	17
641.980	1	13
643.167	1	3
644.354	1	18
645.541	1	7
646.728	1	9
647.914	1	12
649.101	1	2
650.288	1	5
651.474	1	6
652.661	1	8
653.847	1	17
655.034	1	7
656.220	1	8
657.406	1	6
658.593	1	11
659.779	1	9
660.965	1	12
662.152	1	16
663.338	1	8
664.524	1	21
665.710	1	11
666.896	1	18
668.082	1	14
669.268	1	4
670.454	1	5
671.640	1	10
672.826	1	1
674.011	1	4
675.197	1	8
676.383	1	7
677.569	1	24
678.754	1	7
679.940	1	8
681.125	1	4
682.311	1	19
683.496	1	0
684.682	1	6
685.867	1	9
687.053	1	23
688.238	1	13
688.746	1	7

File: GaN_sample D_spot15_UVVIS_150 K_200um_450 ms 2x2mm1_71.txt
340.368	1	-4
341.565	1	3
342.763	1	6
343.960	1	1
345.157	1	10
346.354	1	-5
347.552	1	21
348.749	1	13
349.946	1	2
351.143	1	11
352.340	1	9
353.537	1	5
354.734	1	19
355.931	1	23
357.127	1	24
358.324	1	21
359.521	1	31
360.718	1	38
361.914	1	57
363.111	1	66
364.308	1	119
365.504	1	148
366.701	1	216
367.897	1	237
369.093	1	244
370.290	1	212
371.486	1	174
372.682	1	141
373.879	1	115
375.075	1	94
376.271	1	74
377.467	1	81
378.663	1	59
379.859	1	51
381.055	1	48
382.251	1	27
383.447	1	31
384.643	1	36
385.839	1	33
387.035	1	42
388.230	1	26
389.426	1	22
390.622	1	28
391.817	1	11
393.013	1	25
394.208	1	11
395.404	1	18
396.599	1	26
397.795	1	16
398.990	1	26
400.186	1	24
401.381	1	23
402.576	1	14
403.771	1	-1
404.967	1	19
406.162	1	13
407.357	1	13
408.552	1	5
409.747	1	18
410.942	1	14
412.137	1	11
413.332	1	16
414.526	1	8
415.721	1	13
416.916	1	18
418.111	1	17
419.305	1	20
420.500	1	19
421.695	1	21
422.889	1	16
424.084	1	19
425.278	1	13
426.472	1	20
427.667	1	12
428.861	1	30
430.055	1	21
431.250	1	25
432.444	1	21
433.638	1	23
434.832	1	11
436.026	1	17
437.220	1	20
438.414	1	16
439.608	1	13
440.802	1	15
441.996	1	8
443.190	1	13
444.384	1	10
445.578	1	5
446.771	1	14
447.965	1	15
449.159	1	14
450.352	1	14
451.546	1	7
452.739	1	14
453.933	1	5
455.126	1	14
456.320	1	12
457.513	1	12
458.706	1	21
459.899	1	8
461.093	1	21
462.286	1	12
463.479	1	10
464.672	1	11
465.865	1	10
467.058	1	13
468.251	1	4
469.444	1	9
470.637	1	10
471.830	1	4
473.023	1	20
474.215	1	14
475.408	1	15
476.601	1	10
477.793	1	5
478.986	1	26
480.179	1	13
481.371	1	10
482.564	1	12
483.756	1	14
484.948	1	19
486.141	1	25
487.333	1	12
488.525	1	18
489.718	1	12
490.910	1	27
492.102	1	21
493.294	1	10
494.486	1	12
495.678	1	24
496.870	1	26
498.062	1	23
499.254	1	37
500.446	1	28
501.638	1	35
502.829	1	37
504.021	1	39
505.213	1	45
506.404	1	39
507.596	1	53
508.788	1	45
509.979	1	53
511.171	1	51
512.362	1	50
513.553	1	40
514.745	1	41
515.936	1	51
517.127	1	57
518.319	1	59
519.510	1	55
520.701	1	57
521.892	1	60
523.083	1	53
524.274	1	66
525.465	1	76
526.656	1	57
527.847	1	50
529.038	1	69
530.229	1	61
531.419	1	61
532.610	1	70
533.801	1	61
534.991	1	51
536.182	1	57
537.373	1	51
538.563	1	48
539.754	1	45
540.944	1	52
542.134	1	59
543.325	1	51
544.515	1	59
545.705	1	51
546.896	1	47
548.086	1	54
549.276	1	54
550.466	1	48
551.656	1	51
552.846	1	48
554.036	1	51
555.226	1	43
556.416	1	44
557.606	1	41
558.796	1	44
559.986	1	38
561.175	1	27
562.365	1	38
563.555	1	32
564.744	1	33
565.934	1	45
567.123	1	36
568.313	1	30
569.502	1	38
570.692	1	35
571.881	1	11
573.070	1	39
574.260	1	33
575.449	1	30
576.638	1	35
577.827	1	21
579.016	1	31
580.205	1	28
581.394	1	12
582.583	1	35
583.772	1	38
584.961	1	11
586.150	1	19
587.339	1	20
588.528	1	17
589.717	1	21
590.905	1	12
592.094	1	28
593.283	1	19
594.471	1	7
595.660	1	20
596.848	1	14
598.037	1	17
599.225	1	18
600.413	1	9
601.602	1	8
602.790	1	12
603.978	1	10
605.166	1	11
606.355	1	0
607.543	1	12
608.731	1	4
609.919	1	-2
611.107	1	21
612.295	1	20
613.483	1	17
614.671	1	13
615.858	1	2
617.046	1	8
618.234	1	4
619.422	1	27
620.609	1	10
621.797	1	9
622.985	1	10
624.172	1	6
625.360	1	13
626.547	1	7
627.735	1	2
628.922	1	16
630.109	1	6
631.297	1	10
632.484	1	23
633.671	1	15
634.858	1	7
636.045	1	3
637.232	1	16
638.419	1	10
639.606	1	29
640.793	1	6
641.980	1	11
643.167	1	7
644.354	1	17
645.541	1	4
646.728	1	22
647.914	1	11
649.101	1	5
650.288	1	7
651.474	1	14
652.661	1	10
653.847	1	5
655.034	1	9
656.220	1	9
657.406	1	7
658.593	1	21
659.779	1	6
660.965	1	9
662.152	1	13
663.338	1	0
664.524	1	18
665.710	1	14
666.896	1	14
668.082	1	16
669.268	1	4
670.454	1	7
671.640	1	13
672.826	1	12
674.011	1	17
675.197	1	19
676.383	1	5
677.569	1	14
678.754	1	9
679.940	1	0
681.125	1	6
682.311	1	16
683.496	1	4
684.682	1	12
685.867	1	9
687.053	1	25
688.238	1	23
688.746	1	6

File: GaN_sample D_spot15_UVVIS_150 K_200um_450 ms 2x2mm1_72.txt
340.368	1	5
341.565	1	15
342.763	1	3
343.960	1	6
345.157	1	19
346.354	1	2
347.552	1	23
348.749	1	11
349.946	1	5
351.143	1	14
352.340	1	16
353.537	1	11
354.734	1	13
355.931	1	15
357.127	1	25
358.324	1	26
359.521	1	40
360.718	1	41
361.914	1	50
363.111	1	87
364.308	1	107
365.504	1	153
366.701	1	209
367.897	1	240
369.093	1	227
370.290	1	200
371.486	1	168
372.682	1	135
373.879	1	111
375.075	1	91
376.271	1	84
377.467	1	69
378.663	1	42
379.859	1	55
381.055	1	37
382.251	1	31
383.447	1	37
384.643	1	41
385.839	1	39
387.035	1	37
388.230	1	26
389.426	1	12
390.622	1	22
391.817	1	17
393.013	1	22
394.208	1	18
395.404	1	24
396.599	1	18
397.795	1	13
398.990	1	19
400.186	1	11
401.381	1	10
402.576	1	18
403.771	1	4
404.967	1	16
406.162	1	10
407.357	1	27
408.552	1	19
409.747	1	13
410.942	1	27
412.137	1	18
413.332	1	18
414.526	1	13
415.721	1	20
416.916	1	13
418.111	1	17
419.305	1	23
420.500	1	9
421.695	1	19
422.889	1	18
424.084	1	13
425.278	1	24
426.472	1	27
427.667	1	13
428.861	1	25
430.055	1	17
431.250	1	22
432.444	1	16
433.638	1	21
434.832	1	18
436.026	1	7
437.220	1	24
438.414	1	16
439.608	1	9
440.802	1	14
441.996	1	12
443.190	1	19
444.384	1	19
445.578	1	5
446.771	1	17
447.965	1	14
449.159	1	5
450.352	1	7
451.546	1	9
452.739	1	14
453.933	1	5
455.126	1	15
456.320	1	20
457.513	1	7
458.706	1	14
459.899	1	4
461.093	1	11
462.286	1	13
463.479	1	11
464.672	1	11
465.865	1	2
467.058	1	18
468.251	1	2
469.444	1	17
470.637	1	10
471.830	1	13
473.023	1	15
474.215	1	14
475.408	1	18
476.601	1	19
477.793	1	8
478.986	1	24
480.179	1	16
481.371	1	3
482.564	1	16
483.756	1	12
484.948	1	20
486.141	1	18
487.333	1	10
488.525	1	3
489.718	1	14
490.910	1	13
492.102	1	18
493.294	1	27
494.486	1	21
495.678	1	21
496.870	1	25
498.062	1	24
499.254	1	24
500.446	1	28
501.638	1	30
502.829	1	32
504.021	1	31
505.213	1	28
506.404	1	46
507.596	1	48
508.788	1	39
509.979	1	45
511.171	1	41
512.362	1	48
513.553	1	43
514.745	1	41
515.936	1	43
517.127	1	62
518.319	1	52
519.510	1	50
520.701	1	64
521.892	1	52
523.083	1	51
524.274	1	53
525.465	1	66
526.656	1	54
527.847	1	40
529.038	1	60
530.229	1	73
531.419	1	55
532.610	1	66
533.801	1	50
534.991	1	49
536.182	1	46
537.373	1	51
538.563	1	38
539.754	1	46
540.944	1	51
542.134	1	50
543.325	1	50
544.515	1	45
545.705	1	42
546.896	1	54
548.086	1	49
549.276	1	58
550.466	1	42
551.656	1	48
552.846	1	43
554.036	1	45
555.226	1	42
556.416	1	49
557.606	1	29
558.796	1	58
559.986	1	35
561.175	1	40
562.365	1	43
563.555	1	44
564.744	1	44
565.934	1	39
567.123	1	36
568.313	1	30
569.502	1	34
570.692	1	31
571.881	1	28
573.070	1	28
574.260	1	24
575.449	1	25
576.638	1	32
577.827	1	22
579.016	1	26
580.205	1	18
581.394	1	26
582.583	1	28
583.772	1	18
584.961	1	10
586.150	1	19
587.339	1	16
588.528	1	17
589.717	1	15
590.905	1	16
592.094	1	18
593.283	1	17
594.471	1	0
595.660	1	19
596.848	1	21
598.037	1	9
599.225	1	24
600.413	1	7
601.602	1	12
602.790	1	13
603.978	1	13
605.166	1	19
606.355	1	2
607.543	1	20
608.731	1	13
609.919	1	15
611.107	1	15
612.295	1	13
613.483	1	11
614.671	1	8
615.858	1	6
617.046	1	7
618.234	1	9
619.422	1	25
620.609	1	9
621.797	1	19
622.985	1	9
624.172	1	13
625.360	1	14
626.547	1	14
627.735	1	6
628.922	1	14
630.109	1	-4
631.297	1	12
632.484	1	22
633.671	1	16
634.858	1	9
636.045	1	2
637.232	1	2
638.419	1	5
639.606	1	18
640.793	1	7
641.980	1	22
643.167	1	11
644.354	1	19
645.541	1	4
646.728	1	12
647.914	1	10
649.101	1	0
650.288	1	0
651.474	1	13
652.661	1	19
653.847	1	16
655.034	1	5
656.220	1	23
657.406	1	0
658.593	1	9
659.779	1	12
660.965	1	8
662.152	1	5
663.338	1	7
664.524	1	19
665.710	1	6
666.896	1	11
668.082	1	10
669.268	1	2
670.454	1	22
671.640	1	13
672.826	1	8
674.011	1	6
675.197	1	8
676.383	1	-1
677.569	1	14
678.754	1	13
679.940	1	-4
681.125	1	9
682.311	1	10
683.496	1	0
684.682	1	13
685.867	1	4
687.053	1	30
688.238	1	21
688.746	1	7