Folder: cryo-il_analysis/Data/GaN_150K_450ms

File: GaN_sample D_spot15_UVVIS_150 K_200um_450 ms 2x2mm1_5.txt
340.368	1	-2
341.565	1	5
342.763	1	2
343.960	1	6
345.157	1	4
346.354	1	-2
347.552	1	7
348.749	1	9
349.946	1	1
351.143	1	2
352.340	1	7
353.537	1	-9
354.734	1	0
355.931	1	3
357.127	1	10
358.324	1	4
359.521	1	7
360.718	1	1
361.914	1	-1
363.111	1	0
364.308	1	0
365.504	1	-7
366.701	1	1
367.897	1	-1
369.093	1	0
370.290	1	5
371.486	1	10
372.682	1	5
373.879	1	1
375.075	1	-6
376.271	1	-4
377.467	1	-1
378.663	1	2
379.859	1	1
381.055	1	5
382.251	1	-10
383.447	1	3
384.643	1	-6
385.839	1	8
387.035	1	0
388.230	1	4
389.426	1	-6
390.622	1	-10
391.817	1	-11
393.013	1	5
394.208	1	6
395.404	1	-10
396.599	1	1
397.795	1	-3
398.990	1	-1
400.186	1	0
401.381	1	2
402.576	1	9
403.771	1	-8
404.967	1	-3
406.162	1	-7
407.357	1	1
408.552	1	-4
409.747	1	0
410.942	1	-2
412.137	1	-2
413.332	1	-6
414.526	1	1
415.721	1	0
416.916	1	-3
418.111	1	-3
419.305	1	0
420.500	1	-1
421.695	1	3
422.889	1	2
424.084	1	1
425.278	1	-2
426.472	1	4
427.667	1	-5
428.861	1	0
430.055	1	8
431.250	1	8
432.444	1	6
433.638	1	1
434.832	1	-3
436.026	1	-4
437.220	1	2
438.414	1	9
439.608	1	-9
440.802	1	-8
441.996	1	-12
443.190	1	-1
444.384	1	8
445.578	1	-3
446.771	1	-1
447.965	1	-3
449.159	1	-8
450.352	1	-1
451.546	1	-4
452.739	1	4
453.933	1	-3
455.126	1	0
456.320	1	12
457.513	1	3
458.706	1	7
459.899	1	-1
461.093	1	9
462.286	1	-2
463.479	1	-8
464.672	1	6
465.865	1	3
467.058	1	3
468.251	1	-8
469.444	1	-3
470.637	1	-1
471.830	1	5
473.023	1	10
474.215	1	-5
475.408	1	6
476.601	1	4
477.793	1	-3
478.986	1	7
480.179	1	8
481.371	1	-8
482.564	1	9
483.756	1	9
484.948	1	4
486.141	1	7
487.333	1	-6
488.525	1	-1
489.718	1	-8
490.910	1	6
492.102	1	4
493.294	1	-13
494.486	1	-4
495.678	1	-4
496.870	1	3
498.062	1	-1
499.254	1	-2
500.446	1	-5
501.638	1	9
502.829	1	-9
504.021	1	-1
505.213	1	-11
506.404	1	2
507.596	1	6
508.788	1	3
509.979	1	-14
511.171	1	2
512.362	1	15
513.553	1	1
514.745	1	1
515.936	1	-1
517.127	1	7
518.319	1	0
519.510	1	-9
520.701	1	1
521.892	1	-8
523.083	1	-6
524.274	1	2
525.465	1	5
526.656	1	-9
527.847	1	-15
529.038	1	-2
530.229	1	6
531.419	1	-5
532.610	1	2
533.801	1	-2
534.991	1	6
536.182	1	-5
537.373	1	-8
538.563	1	4
539.754	1	2
540.944	1	3
542.134	1	5
543.325	1	3
544.515	1	13
545.705	1	1
546.896	1	5
548.086	1	10
549.276	1	5
550.466	1	-6
551.656	1	5
552.846	1	2
554.036	1	3
555.226	1	4
556.416	1	5
557.606	1	-14
558.796	1	4
559.986	1	-5
561.175	1	1
562.365	1	2
563.555	1	12
564.744	1	7
565.934	1	4
567.123	1	-4
568.313	1	-5
569.502	1	0
570.692	1	4
571.881	1	3
573.070	1	3
574.260	1	8
575.449	1	-6
576.638	1	8
577.827	1	1
579.016	1	-6
580.205	1	4
581.394	1	1
582.583	1	5
583.772	1	1
584.961	1	-3
586.150	1	6
587.339	1	-3
588.528	1	-5
589.717	1	3
590.905	1	-10
592.094	1	10
593.283	1	0
594.471	1	-8
595.660	1	10
596.848	1	2
598.037	1	-5
599.225	1	2
600.413	1	4
601.602	1	13
602.790	1	5
603.978	1	0
605.166	1	4
606.355	1	-18
607.543	1	5
608.731	1	-14
609.919	1	-3
611.107	1	12
612.295	1	7
613.483	1	-2
614.671	1	3
615.858	1	0
617.046	1	-13
618.234	1	-8
619.422	1	17
620.609	1	3
621.797	1	-6
622.985	1	-2
624.172	1	1
625.360	1	-1
626.547	1	-4
627.735	1	1
628.922	1	0
630.109	1	-6
631.297	1	-10
632.484	1	9
633.671	1	5
634.858	1	-4
636.045	1	-2
637.232	1	-1
638.419	1	-1
639.606	1	10
640.793	1	-4
641.980	1	4
643.167	1	2
644.354	1	3
645.541	1	9
646.728	1	11
647.914	1	-5
649.101	1	-2
650.288	1	-10
651.474	1	-1
652.661	1	11
653.847	1	-2
655.034	1	-3
656.220	1	-2
657.406	1	-3
658.593	1	7
659.779	1	-6
660.965	1	0
662.152	1	-4
663.338	1	-1
664.524	1	9
665.710	1	1
666.896	1	7
668.082	1	-6
669.268	1	-5
670.454	1	0
671.640	1	1
672.826	1	-3
674.011	1	0
675.197	1	4
676.383	1	-6
677.569	1	11
678.754	1	-2
679.940	1	-9
681.125	1	-4
682.311	1	6
683.496	1	-7
684.682	1	7
685.867	1	1
687.053	1	14
688.238	1	5
688.746	1	-4

File: GaN_sample D_spot15_UVVIS_150 K_200um_450 ms 2x2mm1_6.txt
340.368	1	4
341.565	1	5
342.763	1	0
343.960	1	4
345.157	1	8
346.354	1	-6
347.552	1	13
348.749	1	5
349.946	1	-1
351.143	1	5
352.340	1	2
353.537	1	-5
354.734	1	7
355.931	1	-5
357.127	1	4
358.324	1	5
359.521	1	1
360.718	1	4
361.914	1	4
363.111	1	3
364.308	1	-2
365.504	1	0
366.701	1	-4
367.897	1	-3
369.093	1	0
370.290	1	4
371.486	1	10
372.682	1	1
373.879	1	-9
375.075	1	-6
376.271	1	-6
377.467	1	4
378.663	1	5
379.859	1	-3
381.055	1	-7
382.251	1	-10
383.447	1	3
384.643	1	4
385.839	1	-1
387.035	1	-3
388.230	1	-1
389.426	1	-1
390.622	1	-3
391.817	1	-2
393.013	1	4
394.208	1	-2
395.404	1	-1
396.599	1	-5
397.795	1	-3
398.990	1	8
400.186	1	-3
401.381	1	-4
402.576	1	2
403.771	1	-13
404.967	1	0
406.162	1	-6
407.357	1	1
408.552	1	-3
409.747	1	-6
410.942	1	9
412.137	1	-1
413.332	1	5
414.526	1	-6
415.721	1	7
416.916	1	-1
418.111	1	2
419.305	1	10
420.500	1	5
421.695	1	4
422.889	1	2
424.084	1	4
425.278	1	2
426.472	1	9
427.667	1	-2
428.861	1	1
430.055	1	8
431.250	1	6
432.444	1	1
433.638	1	4
434.832	1	-11
436.026	1	-11
437.220	1	-1
438.414	1	5
439.608	1	-3
440.802	1	4
441.996	1	2
443.190	1	6
444.384	1	2
445.578	1	-7
446.771	1	-14
447.965	1	-7
449.159	1	0
450.352	1	-5
451.546	1	-5
452.739	1	1
453.933	1	-8
455.126	1	0
456.320	1	7
457.513	1	-6
458.706	1	12
459.899	1	3
461.093	1	5
462.286	1	4
463.479	1	-4
464.672	1	-2
465.865	1	-9
467.058	1	5
468.251	1	-7
469.444	1	3
470.637	1	3
471.830	1	3
473.023	1	6
474.215	1	-7
475.408	1	-2
476.601	1	3
477.793	1	1
478.986	1	5
480.179	1	2
481.371	1	-10
482.564	1	8
483.756	1	-5
484.948	1	5
486.141	1	3
487.333	1	-12
488.525	1	5
489.718	1	-12
490.910	1	5
492.102	1	4
493.294	1	-12
494.486	1	0
495.678	1	-7
496.870	1	2
498.062	1	-3
499.254	1	-17
500.446	1	-2
501.638	1	-1
502.829	1	-3
504.021	1	-10
505.213	1	-3
506.404	1	11
507.596	1	9
508.788	1	4
509.979	1	3
511.171	1	-4
512.362	1	10
513.553	1	3
514.745	1	0
515.936	1	-4
517.127	1	3
518.319	1	1
519.510	1	-3
520.701	1	4
521.892	1	-4
523.083	1	-10
524.274	1	6
525.465	1	13
526.656	1	9
527.847	1	-9
529.038	1	2
530.229	1	2
531.419	1	2
532.610	1	5
533.801	1	5
534.991	1	6
536.182	1	-4
537.373	1	1
538.563	1	-6
539.754	1	-2
540.944	1	-1
542.134	1	-3
543.325	1	2
544.515	1	-4
545.705	1	4
546.896	1	8
548.086	1	-3
549.276	1	5
550.466	1	-8
551.656	1	8
552.846	1	4
554.036	1	11
555.226	1	-6
556.416	1	0
557.606	1	-13
558.796	1	5
559.986	1	2
561.175	1	-1
562.365	1	0
563.555	1	6
564.744	1	0
565.934	1	-1
567.123	1	-9
568.313	1	-5
569.502	1	9
570.692	1	1
571.881	1	-5
573.070	1	4
574.260	1	5
575.449	1	5
576.638	1	9
577.827	1	-2
579.016	1	8
580.205	1	-1
581.394	1	-4
582.583	1	10
583.772	1	4
584.961	1	-2
586.150	1	7
587.339	1	-3
588.528	1	-7
589.717	1	1
590.905	1	-3
592.094	1	3
593.283	1	6
594.471	1	-9
595.660	1	1
596.848	1	-1
598.037	1	0
599.225	1	-6
600.413	1	-5
601.602	1	7
602.790	1	4
603.978	1	-4
605.166	1	-8
606.355	1	-9
607.543	1	1
608.731	1	-1
609.919	1	-12
611.107	1	2
612.295	1	6
613.483	1	-1
614.671	1	1
615.858	1	-10
617.046	1	-3
618.234	1	-12
619.422	1	5
620.609	1	-2
621.797	1	-4
622.985	1	-3
624.172	1	4
625.360	1	-9
626.547	1	1
627.735	1	1
628.922	1	7
630.109	1	1
631.297	1	2
632.484	1	8
633.671	1	9
634.858	1	3
636.045	1	-4
637.232	1	-1
638.419	1	-2
639.606	1	6
640.793	1	0
641.980	1	6
643.167	1	-9
644.354	1	5
645.541	1	-4
646.728	1	7
647.914	1	12
649.101	1	8
650.288	1	-3
651.474	1	-2
652.661	1	5
653.847	1	2
655.034	1	-1
656.220	1	-3
657.406	1	0
658.593	1	-3
659.779	1	-7
660.965	1	-1
662.152	1	-4
663.338	1	-7
664.524	1	6
665.710	1	6
666.896	1	4
668.082	1	5
669.268	1	-1
670.454	1	10
671.640	1	6
672.826	1	-6
674.011	1	6
675.197	1	1
676.383	1	5
677.569	1	7
678.754	1	5
679.940	1	-3
681.125	1	-3
682.311	1	8
683.496	1	-6
684.682	1	7
685.867	1	5
687.053	1	11
688.238	1	5
688.746	1	1

File: GaN_sample D_spot15_UVVIS_150 K_200um_450 ms 2x2mm1_14.txt
340.368	1	-3
341.565	1	-2
342.763	1	5
343.960	1	-2
345.157	1	11
346.354	1	4
347.552	1	7
348.749	1	9
349.946	1	-6
351.143	1	4
352.340	1	5
353.537	1	-6
354.734	1	2
355.931	1	6
357.127	1	5
358.324	1	1
359.521	1	0
360.718	1	0
361.914	1	7
363.111	1	7
364.308	1	-7
365.504	1	2
366.701	1	-4
367.897	1	-9
369.093	1	9
370.290	1	2
371.486	1	2
372.682	1	1
373.879	1	2
375.075	1	-10
376.271	1	-5
377.467	1	10
378.663	1	8
379.859	1	4
381.055	1	2
382.251	1	-1
383.447	1	-6
384.643	1	-3
385.839	1	0
387.035	1	9
388.230	1	-5
389.426	1	-5
390.622	1	-4
391.817	1	-6
393.013	1	7
394.208	1	-9
395.404	1	3
396.599	1	6
397.795	1	-5
398.990	1	4
400.186	1	4
401.381	1	-4
402.576	1	3
403.771	1	-5
404.967	1	5
406.162	1	6
407.357	1	4
408.552	1	-4
409.747	1	-9
410.942	1	9
412.137	1	2
413.332	1	10
414.526	1	-6
415.721	1	-11
416.916	1	-4
418.111	1	4
419.305	1	10
420.500	1	6
421.695	1	-2
422.889	1	7
424.084	1	5
425.278	1	-6
426.472	1	4
427.667	1	1
428.861	1	5
430.055	1	7
431.250	1	3
432.444	1	2
433.638	1	2
434.832	1	-9
436.026	1	-9
437.220	1	11
438.414	1	3
439.608	1	0
440.802	1	-1
441.996	1	3
443.190	1	-8
444.384	1	12
445.578	1	-12
446.771	1	5
447.965	1	-1
449.159	1	-7
450.352	1	-8
451.546	1	9
452.739	1	0
453.933	1	-7
455.126	1	-4
456.320	1	3
457.513	1	2
458.706	1	11
459.899	1	3
461.093	1	2
462.286	1	-3
463.479	1	-5
464.672	1	-1
465.865	1	2
467.058	1	-1
468.251	1	-5
469.444	1	-2
470.637	1	0
471.830	1	7
473.023	1	-6
474.215	1	-5
475.408	1	3
476.601	1	6
477.793	1	-4
478.986	1	6
480.179	1	-2
481.371	1	-2
482.564	1	2
483.756	1	5
484.948	1	8
486.141	1	2
487.333	1	-9
488.525	1	-6
489.718	1	-6
490.910	1	-1
492.102	1	-4
493.294	1	-6
494.486	1	1
495.678	1	3
496.870	1	-1
498.062	1	-1
499.254	1	-1
500.446	1	-3
501.638	1	2
502.829	1	-5
504.021	1	6
505.213	1	-7
506.404	1	-4
507.596	1	10
508.788	1	4
509.979	1	-3
511.171	1	7
512.362	1	4
513.553	1	5
514.745	1	4
515.936	1	1
517.127	1	1
518.319	1	-3
519.510	1	-5
520.701	1	0
521.892	1	7
523.083	1	1
524.274	1	0
525.465	1	7
526.656	1	5
527.847	1	-17
529.038	1	8
530.229	1	8
531.419	1	-2
532.610	1	9
533.801	1	2
534.991	1	-3
536.182	1	-3
537.373	1	-2
538.563	1	-8
539.754	1	-2
540.944	1	2
542.134	1	1
543.325	1	2
544.515	1	4
545.705	1	-1
546.896	1	-3
548.086	1	2
549.276	1	0
550.466	1	-4
551.656	1	9
552.846	1	2
554.036	1	18
555.226	1	3
556.416	1	-1
557.606	1	-8
558.796	1	11
559.986	1	2
561.175	1	-7
562.365	1	-5
563.555	1	-2
564.744	1	6
565.934	1	11
567.123	1	1
568.313	1	7
569.502	1	8
570.692	1	-3
571.881	1	-4
573.070	1	4
574.260	1	3
575.449	1	0
576.638	1	8
577.827	1	1
579.016	1	-2
580.205	1	3
581.394	1	0
582.583	1	3
583.772	1	6
584.961	1	-6
586.150	1	6
587.339	1	-1
588.528	1	-4
589.717	1	-3
590.905	1	-9
592.094	1	5
593.283	1	11
594.471	1	-3
595.660	1	8
596.848	1	2
598.037	1	0
599.225	1	-1
600.413	1	3
601.602	1	7
602.790	1	9
603.978	1	-4
605.166	1	-3
606.355	1	-15
607.543	1	-3
608.731	1	-16
609.919	1	-11
611.107	1	13
612.295	1	4
613.483	1	-1
614.671	1	-1
615.858	1	-7
617.046	1	-10
618.234	1	-9
619.422	1	15
620.609	1	-1
621.797	1	0
622.985	1	0
624.172	1	5
625.360	1	9
626.547	1	-3
627.735	1	-2
628.922	1	2
630.109	1	-4
631.297	1	4
632.484	1	12
633.671	1	6
634.858	1	4
636.045	1	-8
637.232	1	-5
638.419	1	-2
639.606	1	6
640.793	1	-3
641.980	1	11
643.167	1	8
644.354	1	7
645.541	1	-1
646.728	1	1
647.914	1	3
649.101	1	-10
650.288	1	3
651.474	1	4
652.661	1	7
653.847	1	-3
655.034	1	1
656.220	1	2
657.406	1	-2
658.593	1	-4
659.779	1	7
660.965	1	2
662.152	1	0
663.338	1	2
664.524	1	8
665.710	1	17
666.896	1	9
668.082	1	0
669.268	1	3
670.454	1	6
671.640	1	5
672.826	1	1
674.011	1	4
675.197	1	-4
676.383	1	-8
677.569	1	10
678.754	1	4
679.940	1	-6
681.125	1	3
682.311	1	7
683.496	1	0
684.682	1	9
685.867	1	0
687.053	1	18
688.238	1	8
688.746	1	5

File: GaN_sample D_spot15_UVVIS_150 K_200um_450 ms 2x2mm1_24.txt
340.368	1	5
341.565	1	0
342.763	1	-2
343.960	1	-2
345.157	1	8
346.354	1	-1
347.552	1	5
348.749	1	5
349.946	1	-1
351.143	1	4
352.340	1	7
353.537	1	-6
354.734	1	-1
355.931	1	0
357.127	1	8
358.324	1	12
359.521	1	10
360.718	1	3
361.914	1	4
363.111	1	-4
364.308	1	-5
365.504	1	1
366.701	1	-5
367.897	1	-3
369.093	1	1
370.290	1	-1
371.486	1	11
372.682	1	2
373.879	1	2
375.075	1	-13
376.271	1	-4
377.467	1	11
378.663	1	4
379.859	1	4
381.055	1	1
382.251	1	-11
383.447	1	-2
384.643	1	3
385.839	1	0
387.035	1	6
388.230	1	0
389.426	1	-4
390.622	1	-7
391.817	1	-1
393.013	1	10
394.208	1	1
395.404	1	2
396.599	1	3
397.795	1	1
398.990	1	5
400.186	1	0
401.381	1	-5
402.576	1	-2
403.771	1	-7
404.967	1	-4
406.162	1	-10
407.357	1	4
408.552	1	-2
409.747	1	4
410.942	1	11
412.137	1	-5
413.332	1	4
414.526	1	-4
415.721	1	1
416.916	1	-3
418.111	1	-6
419.305	1	5
420.500	1	5
421.695	1	5
422.889	1	0
424.084	1	0
425.278	1	3
426.472	1	6
427.667	1	-7
428.861	1	12
430.055	1	4
431.250	1	5
432.444	1	-2
433.638	1	8
434.832	1	-9
436.026	1	-3
437.220	1	12
438.414	1	9
439.608	1	5
440.802	1	4
441.996	1	2
443.190	1	3
444.384	1	5
445.578	1	-9
446.771	1	1
447.965	1	0
449.159	1	-1
450.352	1	-4
451.546	1	-8
452.739	1	-2
453.933	1	-3
455.126	1	-2
456.320	1	9
457.513	1	3
458.706	1	11
459.899	1	-1
461.093	1	10
462.286	1	1
463.479	1	-3
464.672	1	8
465.865	1	-1
467.058	1	2
468.251	1	-7
469.444	1	3
470.637	1	3
471.830	1	-4
473.023	1	4
474.215	1	-4
475.408	1	3
476.601	1	-5
477.793	1	3
478.986	1	3
480.179	1	-1
481.371	1	-12
482.564	1	3
483.756	1	-2
484.948	1	1
486.141	1	8
487.333	1	-6
488.525	1	-6
489.718	1	0
490.910	1	2
492.102	1	-2
493.294	1	-10
494.486	1	-5
495.678	1	4
496.870	1	5
498.062	1	-5
499.254	1	-7
500.446	1	-6
501.638	1	0
502.829	1	-5
504.021	1	0
505.213	1	-2
506.404	1	-1
507.596	1	7
508.788	1	-1
509.979	1	0
511.171	1	2
512.362	1	10
513.553	1	4
514.745	1	-2
515.936	1	1
517.127	1	5
518.319	1	-8
519.510	1	2
520.701	1	8
521.892	1	-2
523.083	1	-6
524.274	1	0
525.465	1	10
526.656	1	6
527.847	1	-9
529.038	1	-5
530.229	1	5
531.419	1	5
532.610	1	-3
533.801	1	2
534.991	1	3
536.182	1	2
537.373	1	-4
538.563	1	-7
539.754	1	-2
540.944	1	0
542.134	1	0
543.325	1	-2
544.515	1	8
545.705	1	-1
546.896	1	6
548.086	1	2
549.276	1	10
550.466	1	-6
551.656	1	0
552.846	1	8
554.036	1	8
555.226	1	3
556.416	1	6
557.606	1	-4
558.796	1	12
559.986	1	5
561.175	1	-3
562.365	1	5
563.555	1	4
564.744	1	8
565.934	1	18
567.123	1	2
568.313	1	6
569.502	1	2
570.692	1	-2
571.881	1	-3
573.070	1	2
574.260	1	12
575.449	1	-4
576.638	1	7
577.827	1	-6
579.016	1	4
580.205	1	3
581.394	1	-1
582.583	1	2
583.772	1	10
584.961	1	0
586.150	1	5
587.339	1	1
588.528	1	-3
589.717	1	-1
590.905	1	11
592.094	1	13
593.283	1	1
594.471	1	2
595.660	1	-2
596.848	1	8
598.037	1	10
599.225	1	0
600.413	1	-5
601.602	1	5
602.790	1	8
603.978	1	9
605.166	1	14
606.355	1	-4
607.543	1	7
608.731	1	-10
609.919	1	-12
611.107	1	11
612.295	1	7
613.483	1	0
614.671	1	0
615.858	1	-5
617.046	1	2
618.234	1	-5
619.422	1	6
620.609	1	0
621.797	1	0
622.985	1	-3
624.172	1	4
625.360	1	2
626.547	1	-7
627.735	1	-4
628.922	1	13
630.109	1	-7
631.297	1	6
632.484	1	3
633.671	1	3
634.858	1	10
636.045	1	-11
637.232	1	-2
638.419	1	-3
639.606	1	1
640.793	1	-8
641.980	1	7
643.167	1	-3
644.354	1	8
645.541	1	-4
646.728	1	4
647.914	1	-1
649.101	1	-1
650.288	1	1
651.474	1	7
652.661	1	13
653.847	1	4
655.034	1	-5
656.220	1	-1
657.406	1	-4
658.593	1	-1
659.779	1	-2
660.965	1	-1
662.152	1	-1
663.338	1	-3
664.524	1	10
665.710	1	4
666.896	1	2
668.082	1	3
669.268	1	-3
670.454	1	4
671.640	1	12
672.826	1	-6
674.011	1	11
675.197	1	10
676.383	1	-2
677.569	1	16
678.754	1	3
679.940	1	2
681.125	1	-11
682.311	1	0
683.496	1	-9
684.682	1	5
685.867	1	-8
687.053	1	11
688.238	1	3
688.746	1	-5

File: GaN_sample D_spot15_UVVIS_150 K_200um_450 ms 2x2mm1_25.txt
340.368	1	-2
341.565	1	-2
342.763	1	-1
343.960	1	3
345.157	1	16
346.354	1	-3
347.552	1	12
348.749	1	14
349.946	1	-6
351.143	1	1
352.340	1	5
353.537	1	-11
354.734	1	5
355.931	1	9
357.127	1	12
358.324	1	5
359.521	1	11
360.718	1	4
361.914	1	6
363.111	1	-5
364.308	1	5
365.504	1	0
366.701	1	4
367.897	1	4
369.093	1	0
370.290	1	3
371.486	1	6
372.682	1	-1
373.879	1	-5
375.075	1	-2
376.271	1	-8
377.467	1	5
378.663	1	-1
379.859	1	1
381.055	1	5
382.251	1	-2
383.447	1	-3
384.643	1	5
385.839	1	5
387.035	1	1
388.230	1	2
389.426	1	-11
390.622	1	-8
391.817	1	0
393.013	1	0
394.208	1	-2
395.404	1	6
396.599	1	5
397.795	1	-1
398.990	1	8
400.186	1	-4
401.381	1	-2
402.576	1	-4
403.771	1	-11
404.967	1	1
406.162	1	-9
407.357	1	5
408.552	1	-4
409.747	1	-4
410.942	1	5
412.137	1	5
413.332	1	4
414.526	1	-16
415.721	1	-6
416.916	1	-4
418.111	1	1
419.305	1	2
420.500	1	7
421.695	1	6
422.889	1	0
424.084	1	1
425.278	1	-3
426.472	1	1
427.667	1	-4
428.861	1	5
430.055	1	5
431.250	1	5
432.444	1	11
433.638	1	13
434.832	1	-8
436.026	1	1
437.220	1	6
438.414	1	4
439.608	1	0
440.802	1	-1
441.996	1	-3
443.190	1	3
444.384	1	2
445.578	1	-7
446.771	1	1
447.965	1	1
449.159	1	0
450.352	1	-1
451.546	1	2
452.739	1	4
453.933	1	-10
455.126	1	0
456.320	1	2
457.513	1	2
458.706	1	10
459.899	1	-2
461.093	1	1
462.286	1	-2
463.479	1	-1
464.672	1	5
465.865	1	1
467.058	1	9
468.251	1	-2
469.444	1	2
470.637	1	-9
471.830	1	4
473.023	1	7
474.215	1	-1
475.408	1	3
476.601	1	2
477.793	1	5
478.986	1	10
480.179	1	9
481.371	1	-11
482.564	1	5
483.756	1	2
484.948	1	5
486.141	1	7
487.333	1	-5
488.525	1	-3
489.718	1	-6
490.910	1	-1
492.102	1	5
493.294	1	-16
494.486	1	4
495.678	1	-5
496.870	1	6
498.062	1	1
499.254	1	-6
500.446	1	-9
501.638	1	2
502.829	1	-2
504.021	1	2
505.213	1	-2
506.404	1	1
507.596	1	7
508.788	1	-1
509.979	1	-5
511.171	1	-3
512.362	1	3
513.553	1	-5
514.745	1	2
515.936	1	3
517.127	1	5
518.319	1	1
519.510	1	-3
520.701	1	4
521.892	1	1
523.083	1	0
524.274	1	2
525.465	1	8
526.656	1	0
527.847	1	-6
529.038	1	-3
530.229	1	9
531.419	1	1
532.610	1	5
533.801	1	1
534.991	1	3
536.182	1	0
537.373	1	4
538.563	1	-2
539.754	1	-9
540.944	1	5
542.134	1	-1
543.325	1	9
544.515	1	-12
545.705	1	8
546.896	1	-3
548.086	1	2
549.276	1	3
550.466	1	-2
551.656	1	-2
552.846	1	5
554.036	1	14
555.226	1	-2
556.416	1	5
557.606	1	-9
558.796	1	13
559.986	1	8
561.175	1	-8
562.365	1	-2
563.555	1	6
564.744	1	10
565.934	1	8
567.123	1	2
568.313	1	1
569.502	1	3
570.692	1	-3
571.881	1	-4
573.070	1	4
574.260	1	4
575.449	1	-10
576.638	1	3
577.827	1	5
579.016	1	0
580.205	1	-1
581.394	1	1
582.583	1	4
583.772	1	5
584.961	1	-5
586.150	1	-2
587.339	1	-1
588.528	1	2
589.717	1	-1
590.905	1	1
592.094	1	8
593.283	1	7
594.471	1	-15
595.660	1	12
596.848	1	0
598.037	1	0
599.225	1	4
600.413	1	2
601.602	1	13
602.790	1	5
603.978	1	4
605.166	1	3
606.355	1	-15
607.543	1	5
608.731	1	-8
609.919	1	-9
611.107	1	4
612.295	1	-4
613.483	1	3
614.671	1	6
615.858	1	-22
617.046	1	-1
618.234	1	-9
619.422	1	11
620.609	1	-2
621.797	1	2
622.985	1	-13
624.172	1	-4
625.360	1	-7
626.547	1	-6
627.735	1	-3
628.922	1	14
630.109	1	-2
631.297	1	12
632.484	1	4
633.671	1	7
634.858	1	-2
636.045	1	-1
637.232	1	-5
638.419	1	0
639.606	1	6
640.793	1	-1
641.980	1	7
643.167	1	-1
644.354	1	14
645.541	1	9
646.728	1	-5
647.914	1	1
649.101	1	1
650.288	1	3
651.474	1	3
652.661	1	6
653.847	1	-4
655.034	1	-1
656.220	1	3
657.406	1	1
658.593	1	15
659.779	1	10
660.965	1	-4
662.152	1	1
663.338	1	0
664.524	1	4
665.710	1	4
666.896	1	7
668.082	1	2
669.268	1	-5
670.454	1	5
671.640	1	8
672.826	1	4
674.011	1	1
675.197	1	13
676.383	1	-8
677.569	1	11
678.754	1	-5
679.940	1	-6
681.125	1	0
682.311	1	3
683.496	1	3
684.682	1	6
685.867	1	0
687.053	1	15
688.238	1	7
688.746	1	-4

File: GaN_sample D_spot15_UVVIS_150 K_200um_450 ms 2x2mm1_27.txt
340.368	1	0
341.565	1	2
342.763	1	-4
343.960	1	7
345.157	1	8
346.354	1	2
347.552	1	14
348.749	1	5
349.946	1	-2
351.143	1	3
352.340	1	4
353.537	1	-10
354.734	1	-1
355.931	1	7
357.127	1	9
358.324	1	-5
359.521	1	8
360.718	1	3
361.914	1	0
363.111	1	-2
364.308	1	1
365.504	1	-4
366.701	1	4
367.897	1	-4
369.093	1	8
370.290	1	6
371.486	1	1
372.682	1	3
373.879	1	0
375.075	1	1
376.271	1	2
377.467	1	14
378.663	1	6
379.859	1	-1
381.055	1	-2
382.251	1	-8
383.447	1	4
384.643	1	-2
385.839	1	2
387.035	1	1
388.230	1	6
389.426	1	-7
390.622	1	-7
391.817	1	-11
393.013	1	9
394.208	1	-4
395.404	1	2
396.599	1	4
397.795	1	-2
398.990	1	4
400.186	1	-2
401.381	1	-1
402.576	1	2
403.771	1	-6
404.967	1	2
406.162	1	-14
407.357	1	-1
408.552	1	-5
409.747	1	1
410.942	1	3
412.137	1	2
413.332	1	-5
414.526	1	-6
415.721	1	-3
416.916	1	3
418.111	1	1
419.305	1	-1
420.500	1	-1
421.695	1	0
422.889	1	3
424.084	1	5
425.278	1	2
426.472	1	11
427.667	1	-4
428.861	1	7
430.055	1	4
431.250	1	4
432.444	1	-1
433.638	1	10
434.832	1	2
436.026	1	-12
437.220	1	6
438.414	1	2
439.608	1	-3
440.802	1	5
441.996	1	-8
443.190	1	-1
444.384	1	11
445.578	1	-3
446.771	1	-3
447.965	1	3
449.159	1	1
450.352	1	-7
451.546	1	0
452.739	1	5
453.933	1	2
455.126	1	-4
456.320	1	3
457.513	1	-1
458.706	1	6
459.899	1	-1
461.093	1	5
462.286	1	-2
463.479	1	2
464.672	1	2
465.865	1	3
467.058	1	-2
468.251	1	-6
469.444	1	3
470.637	1	1
471.830	1	5
473.023	1	7
474.215	1	-1
475.408	1	9
476.601	1	4
477.793	1	-4
478.986	1	7
480.179	1	-2
481.371	1	-5
482.564	1	4
483.756	1	5
484.948	1	-2
486.141	1	7
487.333	1	-3
488.525	1	-5
489.718	1	-10
490.910	1	0
492.102	1	4
493.294	1	-10
494.486	1	-1
495.678	1	-2
496.870	1	5
498.062	1	-3
499.254	1	0
500.446	1	4
501.638	1	4
502.829	1	-5
504.021	1	1
505.213	1	-3
506.404	1	-2
507.596	1	3
508.788	1	-3
509.979	1	-5
511.171	1	2
512.362	1	10
513.553	1	1
514.745	1	4
515.936	1	3
517.127	1	14
518.319	1	2
519.510	1	-4
520.701	1	2
521.892	1	-4
523.083	1	-4
524.274	1	8
525.465	1	5
526.656	1	1
527.847	1	-19
529.038	1	6
530.229	1	8
531.419	1	7
532.610	1	0
533.801	1	7
534.991	1	-4
536.182	1	-3
537.373	1	3
538.563	1	-3
539.754	1	1
540.944	1	6
542.134	1	4
543.325	1	9
544.515	1	4
545.705	1	3
546.896	1	-3
548.086	1	8
549.276	1	4
550.466	1	-4
551.656	1	2
552.846	1	-4
554.036	1	9
555.226	1	3
556.416	1	7
557.606	1	-10
558.796	1	10
559.986	1	4
561.175	1	1
562.365	1	-6
563.555	1	-2
564.744	1	9
565.934	1	19
567.123	1	-2
568.313	1	3
569.502	1	2
570.692	1	8
571.881	1	-3
573.070	1	5
574.260	1	-1
575.449	1	-6
576.638	1	4
577.827	1	2
579.016	1	7
580.205	1	0
581.394	1	-2
582.583	1	5
583.772	1	8
584.961	1	-8
586.150	1	6
587.339	1	4
588.528	1	-6
589.717	1	2
590.905	1	0
592.094	1	5
593.283	1	7
594.471	1	-5
595.660	1	5
596.848	1	5
598.037	1	1
599.225	1	1
600.413	1	3
601.602	1	2
602.790	1	3
603.978	1	-3
605.166	1	-2
606.355	1	-8
607.543	1	2
608.731	1	-12
609.919	1	-15
611.107	1	13
612.295	1	4
613.483	1	-1
614.671	1	8
615.858	1	-11
617.046	1	-7
618.234	1	-6
619.422	1	16
620.609	1	-4
621.797	1	-5
622.985	1	3
624.172	1	1
625.360	1	0
626.547	1	0
627.735	1	2
628.922	1	6
630.109	1	-6
631.297	1	7
632.484	1	4
633.671	1	3
634.858	1	-3
636.045	1	-1
637.232	1	-3
638.419	1	1
639.606	1	10
640.793	1	-4
641.980	1	17
643.167	1	2
644.354	1	7
645.541	1	-1
646.728	1	2
647.914	1	3
649.101	1	-11
650.288	1	5
651.474	1	11
652.661	1	-1
653.847	1	6
655.034	1	-8
656.220	1	4
657.406	1	-4
658.593	1	10
659.779	1	1
660.965	1	-4
662.152	1	-5
663.338	1	2
664.524	1	7
665.710	1	1
666.896	1	-1
668.082	1	4
669.268	1	6
670.454	1	6
671.640	1	0
672.826	1	-2
674.011	1	5
675.197	1	5
676.383	1	-1
677.569	1	6
678.754	1	-1
679.940	1	-7
681.125	1	2
682.311	1	10
683.496	1	-3
684.682	1	7
685.867	1	2
687.053	1	14
688.238	1	5
688.746	1	1