Folder: cryo-il_analysis/Data/GaN_130K_350ms (part 19)

File: GaN_sample F_spot6_UVVIS_130 K_200um_350 ms 2x2mm1_231.txt
340.368	1	8
341.565	1	-3
342.763	1	3
343.960	1	-18
345.157	1	-9
346.354	1	4
347.552	1	2
348.749	1	9
349.946	1	6
351.143	1	1
352.340	1	9
353.537	1	1
354.734	1	-1
355.931	1	0
357.127	1	5
358.324	1	-1
359.521	1	0
360.718	1	5
361.914	1	7
363.111	1	11
364.308	1	14
365.504	1	8
366.701	1	11
367.897	1	12
369.093	1	11
370.290	1	15
371.486	1	9
372.682	1	14
373.879	1	8
375.075	1	13
376.271	1	9
377.467	1	13
378.663	1	7
379.859	1	2
381.055	1	-5
382.251	1	6
383.447	1	4
384.643	1	3
385.839	1	6
387.035	1	19
388.230	1	2
389.426	1	10
390.622	1	6
391.817	1	11
393.013	1	0
394.208	1	-1
395.404	1	-6
396.599	1	14
397.795	1	-6
398.990	1	2
400.186	1	2
401.381	1	14
402.576	1	8
403.771	1	9
404.967	1	6
406.162	1	-2
407.357	1	-3
408.552	1	9
409.747	1	3
410.942	1	2
412.137	1	-2
413.332	1	0
414.526	1	12
415.721	1	-1
416.916	1	-2
418.111	1	7
419.305	1	3
420.500	1	-3
421.695	1	0
422.889	1	0
424.084	1	4
425.278	1	1
426.472	1	-4
427.667	1	8
428.861	1	0
430.055	1	3
431.250	1	11
432.444	1	15
433.638	1	8
434.832	1	0
436.026	1	7
437.220	1	2
438.414	1	-2
439.608	1	4
440.802	1	-8
441.996	1	20
443.190	1	0
444.384	1	-11
445.578	1	-2
446.771	1	5
447.965	1	7
449.159	1	10
450.352	1	4
451.546	1	19
452.739	1	3
453.933	1	-4
455.126	1	-1
456.320	1	4
457.513	1	7
458.706	1	5
459.899	1	4
461.093	1	13
462.286	1	10
463.479	1	8
464.672	1	5
465.865	1	-2
467.058	1	3
468.251	1	9
469.444	1	-2
470.637	1	4
471.830	1	4
473.023	1	10
474.215	1	4
475.408	1	12
476.601	1	3
477.793	1	4
478.986	1	-2
480.179	1	-3
481.371	1	7
482.564	1	4
483.756	1	3
484.948	1	4
486.141	1	-3
487.333	1	-3
488.525	1	7
489.718	1	7
490.910	1	-7
492.102	1	12
493.294	1	7
494.486	1	12
495.678	1	-1
496.870	1	7
498.062	1	-6
499.254	1	7
500.446	1	8
501.638	1	1
502.829	1	1
504.021	1	4
505.213	1	0
506.404	1	7
507.596	1	0
508.788	1	8
509.979	1	3
511.171	1	17
512.362	1	4
513.553	1	4
514.745	1	1
515.936	1	17
517.127	1	-6
518.319	1	1
519.510	1	-2
520.701	1	-1
521.892	1	6
523.083	1	6
524.274	1	1
525.465	1	10
526.656	1	4
527.847	1	2
529.038	1	0
530.229	1	5
531.419	1	3
532.610	1	5
533.801	1	12
534.991	1	5
536.182	1	18
537.373	1	8
538.563	1	8
539.754	1	-1
540.944	1	4
542.134	1	8
543.325	1	5
544.515	1	0
545.705	1	0
546.896	1	1
548.086	1	1
549.276	1	-5
550.466	1	17
551.656	1	5
552.846	1	-3
554.036	1	8
555.226	1	10
556.416	1	10
557.606	1	-4
558.796	1	8
559.986	1	10
561.175	1	-4
562.365	1	8
563.555	1	12
564.744	1	5
565.934	1	-12
567.123	1	-2
568.313	1	1
569.502	1	9
570.692	1	10
571.881	1	1
573.070	1	3
574.260	1	13
575.449	1	4
576.638	1	-6
577.827	1	0
579.016	1	-1
580.205	1	-3
581.394	1	0
582.583	1	13
583.772	1	5
584.961	1	0
586.150	1	6
587.339	1	8
588.528	1	9
589.717	1	-2
590.905	1	-1
592.094	1	3
593.283	1	2
594.471	1	6
595.660	1	1
596.848	1	8
598.037	1	10
599.225	1	7
600.413	1	7
601.602	1	3
602.790	1	-2
603.978	1	7
605.166	1	4
606.355	1	8
607.543	1	0
608.731	1	-1
609.919	1	8
611.107	1	1
612.295	1	12
613.483	1	1
614.671	1	5
615.858	1	-1
617.046	1	2
618.234	1	6
619.422	1	0
620.609	1	-3
621.797	1	-10
622.985	1	-2
624.172	1	5
625.360	1	-2
626.547	1	3
627.735	1	11
628.922	1	-4
630.109	1	3
631.297	1	5
632.484	1	-5
633.671	1	-7
634.858	1	12
636.045	1	10
637.232	1	-5
638.419	1	10
639.606	1	1
640.793	1	-6
641.980	1	0
643.167	1	4
644.354	1	-7
645.541	1	6
646.728	1	7
647.914	1	-7
649.101	1	0
650.288	1	7
651.474	1	2
652.661	1	-1
653.847	1	1
655.034	1	-5
656.220	1	-5
657.406	1	5
658.593	1	-3
659.779	1	10
660.965	1	0
662.152	1	1
663.338	1	-5
664.524	1	-8
665.710	1	4
666.896	1	10
668.082	1	9
669.268	1	6
670.454	1	-3
671.640	1	-7
672.826	1	3
674.011	1	-2
675.197	1	4
676.383	1	-1
677.569	1	-2
678.754	1	5
679.940	1	2
681.125	1	5
682.311	1	-7
683.496	1	5
684.682	1	4
685.867	1	-2
687.053	1	1
688.238	1	3
688.746	1	6

File: GaN_sample F_spot6_UVVIS_130 K_200um_350 ms 2x2mm1_235.txt
340.368	1	8
341.565	1	1
342.763	1	-2
343.960	1	-5
345.157	1	-11
346.354	1	-11
347.552	1	0
348.749	1	9
349.946	1	5
351.143	1	4
352.340	1	18
353.537	1	-5
354.734	1	-1
355.931	1	2
357.127	1	5
358.324	1	4
359.521	1	0
360.718	1	4
361.914	1	10
363.111	1	12
364.308	1	10
365.504	1	11
366.701	1	16
367.897	1	8
369.093	1	13
370.290	1	14
371.486	1	12
372.682	1	13
373.879	1	17
375.075	1	22
376.271	1	14
377.467	1	11
378.663	1	8
379.859	1	9
381.055	1	5
382.251	1	5
383.447	1	8
384.643	1	8
385.839	1	4
387.035	1	10
388.230	1	-2
389.426	1	9
390.622	1	1
391.817	1	8
393.013	1	7
394.208	1	-4
395.404	1	-7
396.599	1	13
397.795	1	-2
398.990	1	7
400.186	1	8
401.381	1	12
402.576	1	8
403.771	1	10
404.967	1	-4
406.162	1	-5
407.357	1	-4
408.552	1	-2
409.747	1	-3
410.942	1	0
412.137	1	-2
413.332	1	-1
414.526	1	9
415.721	1	4
416.916	1	-8
418.111	1	9
419.305	1	1
420.500	1	4
421.695	1	3
422.889	1	-5
424.084	1	10
425.278	1	5
426.472	1	-1
427.667	1	9
428.861	1	-3
430.055	1	3
431.250	1	16
432.444	1	9
433.638	1	2
434.832	1	3
436.026	1	0
437.220	1	5
438.414	1	9
439.608	1	17
440.802	1	-6
441.996	1	13
443.190	1	8
444.384	1	-6
445.578	1	4
446.771	1	8
447.965	1	-1
449.159	1	6
450.352	1	7
451.546	1	16
452.739	1	6
453.933	1	8
455.126	1	1
456.320	1	7
457.513	1	2
458.706	1	1
459.899	1	7
461.093	1	10
462.286	1	9
463.479	1	10
464.672	1	2
465.865	1	4
467.058	1	7
468.251	1	6
469.444	1	-2
470.637	1	14
471.830	1	5
473.023	1	2
474.215	1	2
475.408	1	10
476.601	1	2
477.793	1	-7
478.986	1	-1
480.179	1	-7
481.371	1	6
482.564	1	2
483.756	1	-2
484.948	1	4
486.141	1	5
487.333	1	-4
488.525	1	6
489.718	1	7
490.910	1	0
492.102	1	10
493.294	1	1
494.486	1	12
495.678	1	-2
496.870	1	-6
498.062	1	1
499.254	1	7
500.446	1	8
501.638	1	2
502.829	1	-6
504.021	1	-1
505.213	1	0
506.404	1	3
507.596	1	4
508.788	1	4
509.979	1	-6
511.171	1	21
512.362	1	-2
513.553	1	9
514.745	1	0
515.936	1	15
517.127	1	14
518.319	1	1
519.510	1	-5
520.701	1	8
521.892	1	10
523.083	1	0
524.274	1	-3
525.465	1	3
526.656	1	9
527.847	1	9
529.038	1	-2
530.229	1	7
531.419	1	12
532.610	1	7
533.801	1	15
534.991	1	-2
536.182	1	2
537.373	1	7
538.563	1	12
539.754	1	-3
540.944	1	9
542.134	1	0
543.325	1	4
544.515	1	12
545.705	1	5
546.896	1	2
548.086	1	-4
549.276	1	-7
550.466	1	12
551.656	1	7
552.846	1	2
554.036	1	-5
555.226	1	2
556.416	1	9
557.606	1	3
558.796	1	11
559.986	1	0
561.175	1	10
562.365	1	11
563.555	1	4
564.744	1	1
565.934	1	3
567.123	1	6
568.313	1	-12
569.502	1	-6
570.692	1	8
571.881	1	-1
573.070	1	-2
574.260	1	5
575.449	1	13
576.638	1	-4
577.827	1	8
579.016	1	5
580.205	1	-5
581.394	1	2
582.583	1	7
583.772	1	12
584.961	1	8
586.150	1	14
587.339	1	-4
588.528	1	11
589.717	1	-1
590.905	1	10
592.094	1	0
593.283	1	-4
594.471	1	6
595.660	1	0
596.848	1	4
598.037	1	11
599.225	1	10
600.413	1	4
601.602	1	-1
602.790	1	0
603.978	1	7
605.166	1	9
606.355	1	9
607.543	1	-2
608.731	1	2
609.919	1	7
611.107	1	1
612.295	1	5
613.483	1	-5
614.671	1	5
615.858	1	0
617.046	1	13
618.234	1	5
619.422	1	1
620.609	1	-8
621.797	1	-5
622.985	1	8
624.172	1	10
625.360	1	4
626.547	1	9
627.735	1	6
628.922	1	-3
630.109	1	11
631.297	1	-1
632.484	1	1
633.671	1	-5
634.858	1	8
636.045	1	19
637.232	1	-8
638.419	1	18
639.606	1	5
640.793	1	3
641.980	1	4
643.167	1	8
644.354	1	-4
645.541	1	5
646.728	1	10
647.914	1	-11
649.101	1	-7
650.288	1	12
651.474	1	5
652.661	1	-1
653.847	1	-1
655.034	1	-4
656.220	1	-3
657.406	1	4
658.593	1	8
659.779	1	2
660.965	1	8
662.152	1	2
663.338	1	6
664.524	1	-2
665.710	1	5
666.896	1	9
668.082	1	4
669.268	1	3
670.454	1	-3
671.640	1	-1
672.826	1	-2
674.011	1	7
675.197	1	4
676.383	1	3
677.569	1	-1
678.754	1	8
679.940	1	-2
681.125	1	8
682.311	1	-12
683.496	1	5
684.682	1	-8
685.867	1	2
687.053	1	3
688.238	1	10
688.746	1	14

File: GaN_sample F_spot6_UVVIS_130 K_200um_350 ms 2x2mm1_240.txt
340.368	1	8
341.565	1	8
342.763	1	6
343.960	1	-1
345.157	1	-9
346.354	1	5
347.552	1	3
348.749	1	-1
349.946	1	10
351.143	1	0
352.340	1	20
353.537	1	1
354.734	1	-2
355.931	1	6
357.127	1	4
358.324	1	2
359.521	1	6
360.718	1	8
361.914	1	11
363.111	1	16
364.308	1	13
365.504	1	5
366.701	1	10
367.897	1	13
369.093	1	16
370.290	1	13
371.486	1	15
372.682	1	13
373.879	1	11
375.075	1	9
376.271	1	9
377.467	1	11
378.663	1	7
379.859	1	-1
381.055	1	2
382.251	1	9
383.447	1	2
384.643	1	3
385.839	1	3
387.035	1	24
388.230	1	0
389.426	1	15
390.622	1	8
391.817	1	9
393.013	1	8
394.208	1	2
395.404	1	-8
396.599	1	8
397.795	1	-5
398.990	1	4
400.186	1	0
401.381	1	3
402.576	1	3
403.771	1	11
404.967	1	3
406.162	1	2
407.357	1	-4
408.552	1	-6
409.747	1	5
410.942	1	4
412.137	1	-10
413.332	1	2
414.526	1	1
415.721	1	2
416.916	1	3
418.111	1	14
419.305	1	5
420.500	1	5
421.695	1	2
422.889	1	7
424.084	1	12
425.278	1	-1
426.472	1	6
427.667	1	11
428.861	1	8
430.055	1	3
431.250	1	7
432.444	1	8
433.638	1	8
434.832	1	2
436.026	1	8
437.220	1	-1
438.414	1	-1
439.608	1	11
440.802	1	1
441.996	1	3
443.190	1	5
444.384	1	5
445.578	1	3
446.771	1	10
447.965	1	-4
449.159	1	4
450.352	1	5
451.546	1	7
452.739	1	7
453.933	1	-2
455.126	1	-1
456.320	1	3
457.513	1	-2
458.706	1	4
459.899	1	0
461.093	1	9
462.286	1	6
463.479	1	5
464.672	1	-1
465.865	1	-9
467.058	1	6
468.251	1	-1
469.444	1	3
470.637	1	2
471.830	1	1
473.023	1	15
474.215	1	-1
475.408	1	6
476.601	1	4
477.793	1	-2
478.986	1	6
480.179	1	-12
481.371	1	6
482.564	1	-2
483.756	1	-8
484.948	1	-3
486.141	1	3
487.333	1	-2
488.525	1	2
489.718	1	5
490.910	1	-1
492.102	1	10
493.294	1	2
494.486	1	9
495.678	1	-3
496.870	1	6
498.062	1	-4
499.254	1	6
500.446	1	13
501.638	1	5
502.829	1	4
504.021	1	-1
505.213	1	14
506.404	1	-1
507.596	1	9
508.788	1	1
509.979	1	0
511.171	1	15
512.362	1	3
513.553	1	6
514.745	1	8
515.936	1	19
517.127	1	8
518.319	1	-3
519.510	1	-3
520.701	1	6
521.892	1	6
523.083	1	10
524.274	1	0
525.465	1	2
526.656	1	10
527.847	1	8
529.038	1	-2
530.229	1	6
531.419	1	3
532.610	1	0
533.801	1	17
534.991	1	3
536.182	1	6
537.373	1	13
538.563	1	7
539.754	1	0
540.944	1	5
542.134	1	1
543.325	1	3
544.515	1	0
545.705	1	8
546.896	1	3
548.086	1	-5
549.276	1	-5
550.466	1	11
551.656	1	2
552.846	1	-5
554.036	1	3
555.226	1	5
556.416	1	9
557.606	1	-1
558.796	1	8
559.986	1	8
561.175	1	12
562.365	1	15
563.555	1	9
564.744	1	4
565.934	1	-5
567.123	1	5
568.313	1	-2
569.502	1	-5
570.692	1	11
571.881	1	-1
573.070	1	4
574.260	1	3
575.449	1	13
576.638	1	0
577.827	1	-8
579.016	1	9
580.205	1	-7
581.394	1	-2
582.583	1	12
583.772	1	5
584.961	1	-6
586.150	1	11
587.339	1	9
588.528	1	4
589.717	1	-1
590.905	1	11
592.094	1	-1
593.283	1	-5
594.471	1	4
595.660	1	3
596.848	1	6
598.037	1	-1
599.225	1	8
600.413	1	9
601.602	1	2
602.790	1	7
603.978	1	0
605.166	1	5
606.355	1	6
607.543	1	5
608.731	1	5
609.919	1	8
611.107	1	1
612.295	1	15
613.483	1	-10
614.671	1	2
615.858	1	-5
617.046	1	7
618.234	1	3
619.422	1	2
620.609	1	-7
621.797	1	7
622.985	1	9
624.172	1	8
625.360	1	9
626.547	1	-4
627.735	1	12
628.922	1	-1
630.109	1	0
631.297	1	8
632.484	1	-3
633.671	1	-8
634.858	1	10
636.045	1	17
637.232	1	-13
638.419	1	7
639.606	1	6
640.793	1	-7
641.980	1	-2
643.167	1	1
644.354	1	-3
645.541	1	6
646.728	1	12
647.914	1	-6
649.101	1	-5
650.288	1	17
651.474	1	3
652.661	1	-2
653.847	1	2
655.034	1	7
656.220	1	-3
657.406	1	0
658.593	1	4
659.779	1	0
660.965	1	-5
662.152	1	2
663.338	1	1
664.524	1	-3
665.710	1	-2
666.896	1	8
668.082	1	10
669.268	1	-5
670.454	1	6
671.640	1	-2
672.826	1	-2
674.011	1	2
675.197	1	-2
676.383	1	-10
677.569	1	1
678.754	1	1
679.940	1	-1
681.125	1	10
682.311	1	-11
683.496	1	-1
684.682	1	-5
685.867	1	6
687.053	1	5
688.238	1	5
688.746	1	9

File: GaN_sample F_spot6_UVVIS_130 K_200um_350 ms 2x2mm1_243.txt
340.368	1	6
341.565	1	4
342.763	1	1
343.960	1	-8
345.157	1	-10
346.354	1	-2
347.552	1	1
348.749	1	7
349.946	1	1
351.143	1	0
352.340	1	12
353.537	1	0
354.734	1	1
355.931	1	6
357.127	1	-3
358.324	1	3
359.521	1	4
360.718	1	6
361.914	1	-6
363.111	1	15
364.308	1	13
365.504	1	12
366.701	1	19
367.897	1	-2
369.093	1	6
370.290	1	9
371.486	1	11
372.682	1	6
373.879	1	11
375.075	1	16
376.271	1	8
377.467	1	10
378.663	1	2
379.859	1	0
381.055	1	-6
382.251	1	0
383.447	1	4
384.643	1	7
385.839	1	13
387.035	1	11
388.230	1	-1
389.426	1	10
390.622	1	4
391.817	1	19
393.013	1	2
394.208	1	4
395.404	1	-9
396.599	1	8
397.795	1	-13
398.990	1	-4
400.186	1	-2
401.381	1	5
402.576	1	10
403.771	1	9
404.967	1	8
406.162	1	-3
407.357	1	1
408.552	1	0
409.747	1	-7
410.942	1	5
412.137	1	-4
413.332	1	3
414.526	1	-7
415.721	1	4
416.916	1	-1
418.111	1	-1
419.305	1	8
420.500	1	12
421.695	1	-1
422.889	1	1
424.084	1	8
425.278	1	-2
426.472	1	4
427.667	1	5
428.861	1	-2
430.055	1	-1
431.250	1	6
432.444	1	3
433.638	1	-5
434.832	1	-4
436.026	1	6
437.220	1	-12
438.414	1	0
439.608	1	12
440.802	1	-8
441.996	1	1
443.190	1	6
444.384	1	2
445.578	1	-6
446.771	1	12
447.965	1	5
449.159	1	10
450.352	1	11
451.546	1	0
452.739	1	10
453.933	1	0
455.126	1	-6
456.320	1	-1
457.513	1	-11
458.706	1	8
459.899	1	-9
461.093	1	12
462.286	1	7
463.479	1	13
464.672	1	7
465.865	1	-12
467.058	1	-2
468.251	1	6
469.444	1	6
470.637	1	2
471.830	1	1
473.023	1	10
474.215	1	0
475.408	1	6
476.601	1	5
477.793	1	-7
478.986	1	0
480.179	1	15
481.371	1	10
482.564	1	4
483.756	1	-2
484.948	1	4
486.141	1	-4
487.333	1	5
488.525	1	3
489.718	1	7
490.910	1	-13
492.102	1	3
493.294	1	5
494.486	1	14
495.678	1	4
496.870	1	4
498.062	1	-4
499.254	1	7
500.446	1	7
501.638	1	3
502.829	1	1
504.021	1	-2
505.213	1	0
506.404	1	2
507.596	1	0
508.788	1	-4
509.979	1	-1
511.171	1	10
512.362	1	5
513.553	1	5
514.745	1	6
515.936	1	12
517.127	1	7
518.319	1	3
519.510	1	1
520.701	1	-3
521.892	1	3
523.083	1	5
524.274	1	-4
525.465	1	15
526.656	1	8
527.847	1	8
529.038	1	-4
530.229	1	3
531.419	1	6
532.610	1	0
533.801	1	10
534.991	1	-1
536.182	1	2
537.373	1	10
538.563	1	10
539.754	1	2
540.944	1	3
542.134	1	7
543.325	1	5
544.515	1	1
545.705	1	2
546.896	1	5
548.086	1	-12
549.276	1	0
550.466	1	7
551.656	1	7
552.846	1	0
554.036	1	8
555.226	1	6
556.416	1	5
557.606	1	-5
558.796	1	9
559.986	1	-5
561.175	1	12
562.365	1	10
563.555	1	8
564.744	1	2
565.934	1	-7
567.123	1	7
568.313	1	-7
569.502	1	-5
570.692	1	8
571.881	1	0
573.070	1	-3
574.260	1	3
575.449	1	11
576.638	1	-5
577.827	1	1
579.016	1	5
580.205	1	3
581.394	1	-3
582.583	1	5
583.772	1	-1
584.961	1	-1
586.150	1	16
587.339	1	6
588.528	1	10
589.717	1	-6
590.905	1	11
592.094	1	-1
593.283	1	-7
594.471	1	4
595.660	1	10
596.848	1	1
598.037	1	6
599.225	1	3
600.413	1	5
601.602	1	4
602.790	1	-1
603.978	1	4
605.166	1	6
606.355	1	8
607.543	1	2
608.731	1	0
609.919	1	7
611.107	1	8
612.295	1	6
613.483	1	2
614.671	1	7
615.858	1	-3
617.046	1	10
618.234	1	5
619.422	1	0
620.609	1	-10
621.797	1	1
622.985	1	7
624.172	1	9
625.360	1	-9
626.547	1	10
627.735	1	15
628.922	1	-3
630.109	1	6
631.297	1	-7
632.484	1	-11
633.671	1	0
634.858	1	11
636.045	1	15
637.232	1	-4
638.419	1	3
639.606	1	10
640.793	1	-9
641.980	1	-1
643.167	1	3
644.354	1	-3
645.541	1	3
646.728	1	6
647.914	1	-3
649.101	1	0
650.288	1	11
651.474	1	-2
652.661	1	3
653.847	1	2
655.034	1	5
656.220	1	0
657.406	1	7
658.593	1	9
659.779	1	-2
660.965	1	11
662.152	1	-3
663.338	1	0
664.524	1	3
665.710	1	12
666.896	1	-2
668.082	1	11
669.268	1	-4
670.454	1	6
671.640	1	-15
672.826	1	0
674.011	1	-4
675.197	1	-1
676.383	1	7
677.569	1	-5
678.754	1	13
679.940	1	0
681.125	1	15
682.311	1	-6
683.496	1	-5
684.682	1	-5
685.867	1	-3
687.053	1	1
688.238	1	4
688.746	1	4

File: GaN_sample F_spot6_UVVIS_130 K_200um_350 ms 2x2mm1_244.txt
340.368	1	1
341.565	1	-11
342.763	1	3
343.960	1	0
345.157	1	-18
346.354	1	0
347.552	1	-6
348.749	1	3
349.946	1	7
351.143	1	-2
352.340	1	-1
353.537	1	-1
354.734	1	9
355.931	1	13
357.127	1	9
358.324	1	0
359.521	1	-2
360.718	1	6
361.914	1	0
363.111	1	22
364.308	1	15
365.504	1	14
366.701	1	12
367.897	1	6
369.093	1	18
370.290	1	13
371.486	1	13
372.682	1	5
373.879	1	12
375.075	1	17
376.271	1	15
377.467	1	9
378.663	1	2
379.859	1	11
381.055	1	1
382.251	1	4
383.447	1	9
384.643	1	3
385.839	1	8
387.035	1	11
388.230	1	8
389.426	1	17
390.622	1	6
391.817	1	18
393.013	1	4
394.208	1	-2
395.404	1	-9
396.599	1	7
397.795	1	5
398.990	1	2
400.186	1	2
401.381	1	11
402.576	1	1
403.771	1	11
404.967	1	4
406.162	1	1
407.357	1	9
408.552	1	-7
409.747	1	-6
410.942	1	1
412.137	1	3
413.332	1	-6
414.526	1	8
415.721	1	5
416.916	1	-1
418.111	1	12
419.305	1	7
420.500	1	4
421.695	1	-5
422.889	1	13
424.084	1	5
425.278	1	4
426.472	1	4
427.667	1	15
428.861	1	-4
430.055	1	-2
431.250	1	14
432.444	1	11
433.638	1	14
434.832	1	-2
436.026	1	13
437.220	1	-2
438.414	1	-1
439.608	1	16
440.802	1	0
441.996	1	11
443.190	1	11
444.384	1	-5
445.578	1	-6
446.771	1	-4
447.965	1	0
449.159	1	2
450.352	1	7
451.546	1	15
452.739	1	6
453.933	1	1
455.126	1	-6
456.320	1	0
457.513	1	-3
458.706	1	4
459.899	1	-1
461.093	1	12
462.286	1	0
463.479	1	9
464.672	1	3
465.865	1	-8
467.058	1	10
468.251	1	5
469.444	1	3
470.637	1	7
471.830	1	9
473.023	1	8
474.215	1	3
475.408	1	13
476.601	1	0
477.793	1	-3
478.986	1	-12
480.179	1	-4
481.371	1	12
482.564	1	-8
483.756	1	3
484.948	1	0
486.141	1	0
487.333	1	2
488.525	1	1
489.718	1	10
490.910	1	-3
492.102	1	7
493.294	1	4
494.486	1	9
495.678	1	-1
496.870	1	2
498.062	1	-4
499.254	1	5
500.446	1	4
501.638	1	1
502.829	1	3
504.021	1	1
505.213	1	5
506.404	1	4
507.596	1	1
508.788	1	-8
509.979	1	-5
511.171	1	18
512.362	1	2
513.553	1	11
514.745	1	-1
515.936	1	16
517.127	1	6
518.319	1	0
519.510	1	2
520.701	1	-2
521.892	1	6
523.083	1	3
524.274	1	2
525.465	1	5
526.656	1	5
527.847	1	2
529.038	1	-4
530.229	1	6
531.419	1	21
532.610	1	-5
533.801	1	14
534.991	1	7
536.182	1	14
537.373	1	0
538.563	1	9
539.754	1	0
540.944	1	9
542.134	1	3
543.325	1	1
544.515	1	8
545.705	1	3
546.896	1	11
548.086	1	-4
549.276	1	-2
550.466	1	14
551.656	1	4
552.846	1	-5
554.036	1	7
555.226	1	9
556.416	1	4
557.606	1	6
558.796	1	8
559.986	1	2
561.175	1	-1
562.365	1	12
563.555	1	11
564.744	1	0
565.934	1	-1
567.123	1	-2
568.313	1	-3
569.502	1	0
570.692	1	7
571.881	1	0
573.070	1	-10
574.260	1	5
575.449	1	7
576.638	1	3
577.827	1	-7
579.016	1	3
580.205	1	0
581.394	1	3
582.583	1	14
583.772	1	7
584.961	1	0
586.150	1	10
587.339	1	-2
588.528	1	8
589.717	1	1
590.905	1	17
592.094	1	-1
593.283	1	-8
594.471	1	-3
595.660	1	8
596.848	1	2
598.037	1	6
599.225	1	6
600.413	1	6
601.602	1	-1
602.790	1	1
603.978	1	6
605.166	1	10
606.355	1	10
607.543	1	-2
608.731	1	0
609.919	1	9
611.107	1	6
612.295	1	11
613.483	1	0
614.671	1	4
615.858	1	-7
617.046	1	5
618.234	1	3
619.422	1	-1
620.609	1	-4
621.797	1	4
622.985	1	6
624.172	1	-6
625.360	1	-3
626.547	1	10
627.735	1	16
628.922	1	-9
630.109	1	11
631.297	1	7
632.484	1	-4
633.671	1	-8
634.858	1	1
636.045	1	13
637.232	1	1
638.419	1	5
639.606	1	7
640.793	1	-4
641.980	1	4
643.167	1	8
644.354	1	-2
645.541	1	1
646.728	1	5
647.914	1	-9
649.101	1	2
650.288	1	13
651.474	1	-8
652.661	1	2
653.847	1	-5
655.034	1	-5
656.220	1	1
657.406	1	-4
658.593	1	4
659.779	1	8
660.965	1	3
662.152	1	-2
663.338	1	-3
664.524	1	1
665.710	1	-5
666.896	1	1
668.082	1	1
669.268	1	-1
670.454	1	-3
671.640	1	-6
672.826	1	-5
674.011	1	-5
675.197	1	-4
676.383	1	5
677.569	1	2
678.754	1	6
679.940	1	3
681.125	1	12
682.311	1	-11
683.496	1	-3
684.682	1	-3
685.867	1	-2
687.053	1	5
688.238	1	4
688.746	1	7

File: GaN_sample F_spot6_UVVIS_130 K_200um_350 ms 2x2mm1_248.txt
340.368	1	3
341.565	1	-6
342.763	1	1
343.960	1	-12
345.157	1	-12
346.354	1	3
347.552	1	-7
348.749	1	-2
349.946	1	0
351.143	1	10
352.340	1	13
353.537	1	3
354.734	1	8
355.931	1	9
357.127	1	6
358.324	1	-5
359.521	1	-2
360.718	1	6
361.914	1	-2
363.111	1	20
364.308	1	12
365.504	1	13
366.701	1	2
367.897	1	7
369.093	1	8
370.290	1	15
371.486	1	15
372.682	1	8
373.879	1	18
375.075	1	4
376.271	1	11
377.467	1	9
378.663	1	7
379.859	1	9
381.055	1	2
382.251	1	3
383.447	1	15
384.643	1	5
385.839	1	1
387.035	1	4
388.230	1	12
389.426	1	1
390.622	1	9
391.817	1	8
393.013	1	7
394.208	1	-5
395.404	1	-8
396.599	1	6
397.795	1	-3
398.990	1	0
400.186	1	-1
401.381	1	-3
402.576	1	1
403.771	1	11
404.967	1	4
406.162	1	8
407.357	1	7
408.552	1	0
409.747	1	7
410.942	1	8
412.137	1	2
413.332	1	5
414.526	1	9
415.721	1	1
416.916	1	-3
418.111	1	13
419.305	1	-6
420.500	1	6
421.695	1	3
422.889	1	0
424.084	1	13
425.278	1	-7
426.472	1	-6
427.667	1	5
428.861	1	1
430.055	1	-1
431.250	1	9
432.444	1	8
433.638	1	11
434.832	1	4
436.026	1	5
437.220	1	8
438.414	1	-6
439.608	1	10
440.802	1	-6
441.996	1	8
443.190	1	4
444.384	1	1
445.578	1	-8
446.771	1	3
447.965	1	4
449.159	1	8
450.352	1	9
451.546	1	-8
452.739	1	2
453.933	1	-3
455.126	1	1
456.320	1	3
457.513	1	-2
458.706	1	8
459.899	1	2
461.093	1	14
462.286	1	16
463.479	1	10
464.672	1	7
465.865	1	-3
467.058	1	9
468.251	1	6
469.444	1	4
470.637	1	3
471.830	1	4
473.023	1	7
474.215	1	4
475.408	1	2
476.601	1	-7
477.793	1	0
478.986	1	1
480.179	1	-5
481.371	1	9
482.564	1	-4
483.756	1	3
484.948	1	4
486.141	1	-3
487.333	1	1
488.525	1	5
489.718	1	1
490.910	1	-11
492.102	1	6
493.294	1	7
494.486	1	2
495.678	1	5
496.870	1	6
498.062	1	1
499.254	1	13
500.446	1	4
501.638	1	1
502.829	1	1
504.021	1	4
505.213	1	6
506.404	1	-3
507.596	1	4
508.788	1	2
509.979	1	-4
511.171	1	9
512.362	1	2
513.553	1	9
514.745	1	0
515.936	1	11
517.127	1	4
518.319	1	-8
519.510	1	-4
520.701	1	2
521.892	1	9
523.083	1	6
524.274	1	-5
525.465	1	7
526.656	1	8
527.847	1	-3
529.038	1	-2
530.229	1	3
531.419	1	8
532.610	1	4
533.801	1	12
534.991	1	2
536.182	1	16
537.373	1	5
538.563	1	10
539.754	1	3
540.944	1	7
542.134	1	-1
543.325	1	3
544.515	1	2
545.705	1	-1
546.896	1	6
548.086	1	-5
549.276	1	0
550.466	1	15
551.656	1	-1
552.846	1	1
554.036	1	9
555.226	1	6
556.416	1	2
557.606	1	-1
558.796	1	15
559.986	1	-2
561.175	1	9
562.365	1	8
563.555	1	8
564.744	1	8
565.934	1	7
567.123	1	0
568.313	1	4
569.502	1	-2
570.692	1	13
571.881	1	4
573.070	1	5
574.260	1	2
575.449	1	0
576.638	1	4
577.827	1	-9
579.016	1	4
580.205	1	-6
581.394	1	4
582.583	1	8
583.772	1	-1
584.961	1	2
586.150	1	15
587.339	1	1
588.528	1	6
589.717	1	-5
590.905	1	2
592.094	1	3
593.283	1	-10
594.471	1	4
595.660	1	4
596.848	1	9
598.037	1	2
599.225	1	6
600.413	1	6
601.602	1	0
602.790	1	4
603.978	1	4
605.166	1	6
606.355	1	11
607.543	1	2
608.731	1	-4
609.919	1	11
611.107	1	5
612.295	1	6
613.483	1	-3
614.671	1	2
615.858	1	-12
617.046	1	18
618.234	1	4
619.422	1	-2
620.609	1	-4
621.797	1	0
622.985	1	7
624.172	1	0
625.360	1	-3
626.547	1	4
627.735	1	9
628.922	1	-4
630.109	1	12
631.297	1	4
632.484	1	-2
633.671	1	-8
634.858	1	14
636.045	1	18
637.232	1	-8
638.419	1	4
639.606	1	8
640.793	1	-2
641.980	1	2
643.167	1	4
644.354	1	-3
645.541	1	-4
646.728	1	11
647.914	1	-5
649.101	1	5
650.288	1	7
651.474	1	-2
652.661	1	0
653.847	1	-6
655.034	1	-3
656.220	1	-5
657.406	1	-2
658.593	1	4
659.779	1	6
660.965	1	0
662.152	1	1
663.338	1	-2
664.524	1	-4
665.710	1	1
666.896	1	6
668.082	1	-3
669.268	1	-1
670.454	1	1
671.640	1	-5
672.826	1	2
674.011	1	1
675.197	1	-12
676.383	1	2
677.569	1	-3
678.754	1	13
679.940	1	-1
681.125	1	7
682.311	1	-11
683.496	1	-8
684.682	1	-3
685.867	1	-2
687.053	1	5
688.238	1	16
688.746	1	6