Folder: cryo-il_analysis/Data/GaN_150K_450ms (part 12)

File: GaN_sample D_spot15_UVVIS_150 K_200um_450 ms 2x2mm1_103.txt
340.368	1	5
341.565	1	6
342.763	1	6
343.960	1	10
345.157	1	12
346.354	1	12
347.552	1	16
348.749	1	15
349.946	1	6
351.143	1	14
352.340	1	6
353.537	1	4
354.734	1	14
355.931	1	23
357.127	1	11
358.324	1	15
359.521	1	22
360.718	1	16
361.914	1	40
363.111	1	42
364.308	1	55
365.504	1	54
366.701	1	70
367.897	1	86
369.093	1	83
370.290	1	76
371.486	1	61
372.682	1	69
373.879	1	39
375.075	1	35
376.271	1	29
377.467	1	37
378.663	1	30
379.859	1	23
381.055	1	10
382.251	1	-1
383.447	1	8
384.643	1	22
385.839	1	12
387.035	1	13
388.230	1	14
389.426	1	3
390.622	1	5
391.817	1	3
393.013	1	11
394.208	1	11
395.404	1	17
396.599	1	6
397.795	1	11
398.990	1	15
400.186	1	14
401.381	1	16
402.576	1	12
403.771	1	5
404.967	1	14
406.162	1	6
407.357	1	18
408.552	1	-1
409.747	1	16
410.942	1	17
412.137	1	17
413.332	1	15
414.526	1	10
415.721	1	21
416.916	1	11
418.111	1	13
419.305	1	19
420.500	1	20
421.695	1	28
422.889	1	19
424.084	1	13
425.278	1	15
426.472	1	21
427.667	1	10
428.861	1	17
430.055	1	17
431.250	1	22
432.444	1	12
433.638	1	20
434.832	1	8
436.026	1	15
437.220	1	24
438.414	1	8
439.608	1	5
440.802	1	15
441.996	1	10
443.190	1	8
444.384	1	21
445.578	1	11
446.771	1	5
447.965	1	11
449.159	1	5
450.352	1	0
451.546	1	1
452.739	1	7
453.933	1	17
455.126	1	13
456.320	1	21
457.513	1	1
458.706	1	14
459.899	1	8
461.093	1	1
462.286	1	7
463.479	1	4
464.672	1	5
465.865	1	-1
467.058	1	8
468.251	1	5
469.444	1	-4
470.637	1	7
471.830	1	6
473.023	1	9
474.215	1	6
475.408	1	16
476.601	1	13
477.793	1	-1
478.986	1	16
480.179	1	10
481.371	1	0
482.564	1	14
483.756	1	8
484.948	1	9
486.141	1	15
487.333	1	-1
488.525	1	10
489.718	1	1
490.910	1	9
492.102	1	5
493.294	1	1
494.486	1	2
495.678	1	8
496.870	1	16
498.062	1	3
499.254	1	9
500.446	1	6
501.638	1	18
502.829	1	19
504.021	1	21
505.213	1	16
506.404	1	9
507.596	1	31
508.788	1	18
509.979	1	22
511.171	1	17
512.362	1	26
513.553	1	26
514.745	1	18
515.936	1	23
517.127	1	26
518.319	1	22
519.510	1	18
520.701	1	21
521.892	1	21
523.083	1	16
524.274	1	18
525.465	1	23
526.656	1	42
527.847	1	11
529.038	1	26
530.229	1	24
531.419	1	31
532.610	1	28
533.801	1	18
534.991	1	16
536.182	1	15
537.373	1	27
538.563	1	18
539.754	1	26
540.944	1	24
542.134	1	22
543.325	1	31
544.515	1	21
545.705	1	31
546.896	1	15
548.086	1	19
549.276	1	20
550.466	1	14
551.656	1	19
552.846	1	23
554.036	1	26
555.226	1	26
556.416	1	22
557.606	1	6
558.796	1	12
559.986	1	19
561.175	1	17
562.365	1	22
563.555	1	17
564.744	1	21
565.934	1	23
567.123	1	10
568.313	1	19
569.502	1	11
570.692	1	15
571.881	1	13
573.070	1	18
574.260	1	9
575.449	1	12
576.638	1	23
577.827	1	3
579.016	1	11
580.205	1	12
581.394	1	7
582.583	1	15
583.772	1	6
584.961	1	1
586.150	1	19
587.339	1	15
588.528	1	2
589.717	1	3
590.905	1	10
592.094	1	12
593.283	1	5
594.471	1	-1
595.660	1	11
596.848	1	7
598.037	1	3
599.225	1	5
600.413	1	14
601.602	1	10
602.790	1	20
603.978	1	9
605.166	1	5
606.355	1	-8
607.543	1	-5
608.731	1	3
609.919	1	1
611.107	1	19
612.295	1	5
613.483	1	10
614.671	1	-1
615.858	1	3
617.046	1	2
618.234	1	1
619.422	1	13
620.609	1	3
621.797	1	10
622.985	1	5
624.172	1	9
625.360	1	3
626.547	1	0
627.735	1	9
628.922	1	14
630.109	1	0
631.297	1	9
632.484	1	9
633.671	1	15
634.858	1	14
636.045	1	1
637.232	1	0
638.419	1	-4
639.606	1	13
640.793	1	5
641.980	1	15
643.167	1	12
644.354	1	11
645.541	1	6
646.728	1	6
647.914	1	3
649.101	1	-3
650.288	1	1
651.474	1	14
652.661	1	15
653.847	1	6
655.034	1	5
656.220	1	10
657.406	1	2
658.593	1	12
659.779	1	4
660.965	1	12
662.152	1	3
663.338	1	-3
664.524	1	15
665.710	1	10
666.896	1	-5
668.082	1	4
669.268	1	4
670.454	1	11
671.640	1	12
672.826	1	-1
674.011	1	12
675.197	1	10
676.383	1	12
677.569	1	15
678.754	1	1
679.940	1	-3
681.125	1	2
682.311	1	14
683.496	1	7
684.682	1	10
685.867	1	14
687.053	1	27
688.238	1	28
688.746	1	0

File: GaN_sample D_spot15_UVVIS_150 K_200um_450 ms 2x2mm1_104.txt
340.368	1	5
341.565	1	21
342.763	1	11
343.960	1	5
345.157	1	13
346.354	1	0
347.552	1	20
348.749	1	13
349.946	1	12
351.143	1	18
352.340	1	10
353.537	1	4
354.734	1	12
355.931	1	20
357.127	1	15
358.324	1	14
359.521	1	27
360.718	1	15
361.914	1	27
363.111	1	31
364.308	1	56
365.504	1	66
366.701	1	81
367.897	1	74
369.093	1	97
370.290	1	81
371.486	1	75
372.682	1	61
373.879	1	48
375.075	1	32
376.271	1	49
377.467	1	41
378.663	1	26
379.859	1	20
381.055	1	19
382.251	1	14
383.447	1	20
384.643	1	11
385.839	1	19
387.035	1	12
388.230	1	15
389.426	1	13
390.622	1	10
391.817	1	2
393.013	1	20
394.208	1	18
395.404	1	9
396.599	1	11
397.795	1	11
398.990	1	19
400.186	1	8
401.381	1	12
402.576	1	18
403.771	1	-4
404.967	1	16
406.162	1	10
407.357	1	23
408.552	1	-4
409.747	1	8
410.942	1	20
412.137	1	15
413.332	1	13
414.526	1	11
415.721	1	16
416.916	1	10
418.111	1	25
419.305	1	24
420.500	1	15
421.695	1	24
422.889	1	22
424.084	1	17
425.278	1	12
426.472	1	15
427.667	1	9
428.861	1	19
430.055	1	17
431.250	1	12
432.444	1	17
433.638	1	23
434.832	1	8
436.026	1	4
437.220	1	16
438.414	1	14
439.608	1	10
440.802	1	6
441.996	1	9
443.190	1	7
444.384	1	19
445.578	1	-4
446.771	1	6
447.965	1	13
449.159	1	-4
450.352	1	9
451.546	1	6
452.739	1	13
453.933	1	-6
455.126	1	8
456.320	1	14
457.513	1	7
458.706	1	18
459.899	1	6
461.093	1	12
462.286	1	5
463.479	1	4
464.672	1	7
465.865	1	7
467.058	1	10
468.251	1	-4
469.444	1	12
470.637	1	7
471.830	1	5
473.023	1	9
474.215	1	15
475.408	1	12
476.601	1	5
477.793	1	9
478.986	1	8
480.179	1	13
481.371	1	-3
482.564	1	14
483.756	1	5
484.948	1	20
486.141	1	16
487.333	1	0
488.525	1	0
489.718	1	5
490.910	1	17
492.102	1	14
493.294	1	7
494.486	1	9
495.678	1	1
496.870	1	17
498.062	1	4
499.254	1	10
500.446	1	7
501.638	1	19
502.829	1	16
504.021	1	25
505.213	1	9
506.404	1	22
507.596	1	24
508.788	1	27
509.979	1	10
511.171	1	23
512.362	1	22
513.553	1	22
514.745	1	16
515.936	1	25
517.127	1	26
518.319	1	20
519.510	1	14
520.701	1	20
521.892	1	20
523.083	1	23
524.274	1	23
525.465	1	26
526.656	1	30
527.847	1	12
529.038	1	36
530.229	1	33
531.419	1	37
532.610	1	34
533.801	1	19
534.991	1	16
536.182	1	11
537.373	1	24
538.563	1	18
539.754	1	13
540.944	1	15
542.134	1	19
543.325	1	21
544.515	1	19
545.705	1	21
546.896	1	23
548.086	1	25
549.276	1	25
550.466	1	14
551.656	1	11
552.846	1	27
554.036	1	20
555.226	1	14
556.416	1	28
557.606	1	9
558.796	1	25
559.986	1	8
561.175	1	19
562.365	1	13
563.555	1	22
564.744	1	20
565.934	1	27
567.123	1	12
568.313	1	14
569.502	1	20
570.692	1	12
571.881	1	10
573.070	1	11
574.260	1	7
575.449	1	10
576.638	1	22
577.827	1	1
579.016	1	11
580.205	1	7
581.394	1	8
582.583	1	13
583.772	1	11
584.961	1	4
586.150	1	9
587.339	1	9
588.528	1	6
589.717	1	11
590.905	1	5
592.094	1	16
593.283	1	7
594.471	1	4
595.660	1	11
596.848	1	10
598.037	1	4
599.225	1	1
600.413	1	6
601.602	1	9
602.790	1	14
603.978	1	5
605.166	1	4
606.355	1	-11
607.543	1	14
608.731	1	-4
609.919	1	-3
611.107	1	16
612.295	1	6
613.483	1	6
614.671	1	3
615.858	1	0
617.046	1	0
618.234	1	6
619.422	1	15
620.609	1	3
621.797	1	8
622.985	1	4
624.172	1	1
625.360	1	4
626.547	1	5
627.735	1	11
628.922	1	7
630.109	1	-8
631.297	1	1
632.484	1	7
633.671	1	18
634.858	1	4
636.045	1	6
637.232	1	12
638.419	1	0
639.606	1	15
640.793	1	1
641.980	1	3
643.167	1	10
644.354	1	9
645.541	1	3
646.728	1	4
647.914	1	7
649.101	1	3
650.288	1	5
651.474	1	14
652.661	1	13
653.847	1	4
655.034	1	2
656.220	1	3
657.406	1	8
658.593	1	11
659.779	1	2
660.965	1	6
662.152	1	1
663.338	1	-4
664.524	1	13
665.710	1	8
666.896	1	10
668.082	1	9
669.268	1	-4
670.454	1	4
671.640	1	9
672.826	1	9
674.011	1	9
675.197	1	3
676.383	1	-1
677.569	1	17
678.754	1	8
679.940	1	-2
681.125	1	9
682.311	1	10
683.496	1	4
684.682	1	11
685.867	1	2
687.053	1	18
688.238	1	10
688.746	1	7

File: GaN_sample D_spot15_UVVIS_150 K_200um_450 ms 2x2mm1_105.txt
340.368	1	8
341.565	1	6
342.763	1	5
343.960	1	8
345.157	1	14
346.354	1	1
347.552	1	14
348.749	1	12
349.946	1	10
351.143	1	13
352.340	1	2
353.537	1	0
354.734	1	12
355.931	1	7
357.127	1	14
358.324	1	14
359.521	1	23
360.718	1	24
361.914	1	27
363.111	1	35
364.308	1	45
365.504	1	65
366.701	1	70
367.897	1	84
369.093	1	76
370.290	1	84
371.486	1	71
372.682	1	59
373.879	1	45
375.075	1	31
376.271	1	38
377.467	1	40
378.663	1	39
379.859	1	20
381.055	1	15
382.251	1	6
383.447	1	15
384.643	1	6
385.839	1	23
387.035	1	5
388.230	1	16
389.426	1	6
390.622	1	8
391.817	1	3
393.013	1	10
394.208	1	21
395.404	1	11
396.599	1	11
397.795	1	7
398.990	1	14
400.186	1	7
401.381	1	10
402.576	1	2
403.771	1	-4
404.967	1	18
406.162	1	2
407.357	1	14
408.552	1	7
409.747	1	5
410.942	1	18
412.137	1	8
413.332	1	22
414.526	1	6
415.721	1	15
416.916	1	10
418.111	1	15
419.305	1	21
420.500	1	14
421.695	1	15
422.889	1	18
424.084	1	10
425.278	1	15
426.472	1	23
427.667	1	14
428.861	1	20
430.055	1	17
431.250	1	19
432.444	1	13
433.638	1	16
434.832	1	9
436.026	1	10
437.220	1	14
438.414	1	17
439.608	1	7
440.802	1	13
441.996	1	8
443.190	1	18
444.384	1	9
445.578	1	2
446.771	1	5
447.965	1	4
449.159	1	6
450.352	1	-4
451.546	1	7
452.739	1	7
453.933	1	9
455.126	1	4
456.320	1	12
457.513	1	2
458.706	1	17
459.899	1	4
461.093	1	18
462.286	1	7
463.479	1	13
464.672	1	13
465.865	1	8
467.058	1	16
468.251	1	-1
469.444	1	10
470.637	1	6
471.830	1	8
473.023	1	3
474.215	1	16
475.408	1	7
476.601	1	0
477.793	1	7
478.986	1	17
480.179	1	10
481.371	1	-8
482.564	1	8
483.756	1	16
484.948	1	7
486.141	1	14
487.333	1	6
488.525	1	0
489.718	1	4
490.910	1	21
492.102	1	16
493.294	1	-5
494.486	1	6
495.678	1	10
496.870	1	16
498.062	1	5
499.254	1	9
500.446	1	0
501.638	1	21
502.829	1	7
504.021	1	20
505.213	1	6
506.404	1	10
507.596	1	18
508.788	1	14
509.979	1	17
511.171	1	17
512.362	1	21
513.553	1	20
514.745	1	10
515.936	1	14
517.127	1	26
518.319	1	18
519.510	1	3
520.701	1	23
521.892	1	27
523.083	1	17
524.274	1	21
525.465	1	39
526.656	1	19
527.847	1	21
529.038	1	23
530.229	1	27
531.419	1	18
532.610	1	31
533.801	1	22
534.991	1	22
536.182	1	14
537.373	1	14
538.563	1	14
539.754	1	21
540.944	1	28
542.134	1	20
543.325	1	24
544.515	1	23
545.705	1	21
546.896	1	17
548.086	1	22
549.276	1	16
550.466	1	16
551.656	1	21
552.846	1	24
554.036	1	27
555.226	1	16
556.416	1	24
557.606	1	7
558.796	1	16
559.986	1	13
561.175	1	3
562.365	1	8
563.555	1	25
564.744	1	11
565.934	1	20
567.123	1	7
568.313	1	15
569.502	1	11
570.692	1	19
571.881	1	11
573.070	1	13
574.260	1	10
575.449	1	6
576.638	1	10
577.827	1	7
579.016	1	7
580.205	1	1
581.394	1	11
582.583	1	17
583.772	1	17
584.961	1	4
586.150	1	16
587.339	1	6
588.528	1	2
589.717	1	11
590.905	1	8
592.094	1	9
593.283	1	12
594.471	1	7
595.660	1	13
596.848	1	10
598.037	1	6
599.225	1	10
600.413	1	12
601.602	1	12
602.790	1	7
603.978	1	9
605.166	1	7
606.355	1	-4
607.543	1	12
608.731	1	4
609.919	1	2
611.107	1	19
612.295	1	7
613.483	1	9
614.671	1	13
615.858	1	-5
617.046	1	3
618.234	1	-1
619.422	1	22
620.609	1	7
621.797	1	15
622.985	1	-3
624.172	1	4
625.360	1	6
626.547	1	0
627.735	1	9
628.922	1	24
630.109	1	-4
631.297	1	2
632.484	1	10
633.671	1	15
634.858	1	11
636.045	1	-9
637.232	1	10
638.419	1	3
639.606	1	8
640.793	1	2
641.980	1	17
643.167	1	11
644.354	1	10
645.541	1	9
646.728	1	8
647.914	1	4
649.101	1	6
650.288	1	8
651.474	1	13
652.661	1	15
653.847	1	13
655.034	1	-1
656.220	1	2
657.406	1	5
658.593	1	8
659.779	1	6
660.965	1	1
662.152	1	4
663.338	1	0
664.524	1	15
665.710	1	10
666.896	1	5
668.082	1	7
669.268	1	-2
670.454	1	15
671.640	1	6
672.826	1	6
674.011	1	7
675.197	1	-2
676.383	1	1
677.569	1	13
678.754	1	6
679.940	1	-3
681.125	1	-3
682.311	1	8
683.496	1	0
684.682	1	6
685.867	1	5
687.053	1	14
688.238	1	8
688.746	1	9

File: GaN_sample D_spot15_UVVIS_150 K_200um_450 ms 2x2mm1_106.txt
340.368	1	-7
341.565	1	16
342.763	1	13
343.960	1	9
345.157	1	12
346.354	1	-1
347.552	1	19
348.749	1	9
349.946	1	7
351.143	1	5
352.340	1	-1
353.537	1	-1
354.734	1	5
355.931	1	14
357.127	1	22
358.324	1	10
359.521	1	22
360.718	1	24
361.914	1	27
363.111	1	43
364.308	1	55
365.504	1	61
366.701	1	62
367.897	1	71
369.093	1	84
370.290	1	74
371.486	1	69
372.682	1	59
373.879	1	45
375.075	1	40
376.271	1	40
377.467	1	32
378.663	1	32
379.859	1	24
381.055	1	17
382.251	1	19
383.447	1	21
384.643	1	16
385.839	1	15
387.035	1	10
388.230	1	8
389.426	1	6
390.622	1	4
391.817	1	6
393.013	1	12
394.208	1	11
395.404	1	8
396.599	1	16
397.795	1	8
398.990	1	20
400.186	1	15
401.381	1	4
402.576	1	11
403.771	1	9
404.967	1	12
406.162	1	12
407.357	1	18
408.552	1	14
409.747	1	15
410.942	1	21
412.137	1	4
413.332	1	12
414.526	1	7
415.721	1	10
416.916	1	15
418.111	1	24
419.305	1	14
420.500	1	7
421.695	1	10
422.889	1	12
424.084	1	10
425.278	1	13
426.472	1	14
427.667	1	11
428.861	1	12
430.055	1	14
431.250	1	19
432.444	1	19
433.638	1	10
434.832	1	18
436.026	1	15
437.220	1	16
438.414	1	17
439.608	1	3
440.802	1	8
441.996	1	14
443.190	1	14
444.384	1	12
445.578	1	11
446.771	1	14
447.965	1	11
449.159	1	3
450.352	1	6
451.546	1	6
452.739	1	6
453.933	1	12
455.126	1	9
456.320	1	16
457.513	1	6
458.706	1	18
459.899	1	8
461.093	1	12
462.286	1	8
463.479	1	4
464.672	1	8
465.865	1	6
467.058	1	8
468.251	1	0
469.444	1	14
470.637	1	7
471.830	1	13
473.023	1	15
474.215	1	12
475.408	1	3
476.601	1	0
477.793	1	9
478.986	1	15
480.179	1	18
481.371	1	-2
482.564	1	10
483.756	1	13
484.948	1	15
486.141	1	5
487.333	1	0
488.525	1	5
489.718	1	2
490.910	1	22
492.102	1	12
493.294	1	6
494.486	1	11
495.678	1	9
496.870	1	8
498.062	1	14
499.254	1	11
500.446	1	3
501.638	1	18
502.829	1	5
504.021	1	18
505.213	1	13
506.404	1	16
507.596	1	19
508.788	1	11
509.979	1	22
511.171	1	11
512.362	1	22
513.553	1	28
514.745	1	21
515.936	1	13
517.127	1	32
518.319	1	14
519.510	1	11
520.701	1	18
521.892	1	16
523.083	1	28
524.274	1	14
525.465	1	34
526.656	1	20
527.847	1	22
529.038	1	19
530.229	1	23
531.419	1	19
532.610	1	27
533.801	1	27
534.991	1	22
536.182	1	13
537.373	1	14
538.563	1	22
539.754	1	19
540.944	1	21
542.134	1	22
543.325	1	24
544.515	1	19
545.705	1	24
546.896	1	19
548.086	1	26
549.276	1	28
550.466	1	9
551.656	1	18
552.846	1	25
554.036	1	29
555.226	1	18
556.416	1	26
557.606	1	2
558.796	1	12
559.986	1	18
561.175	1	13
562.365	1	14
563.555	1	17
564.744	1	14
565.934	1	20
567.123	1	17
568.313	1	8
569.502	1	10
570.692	1	12
571.881	1	6
573.070	1	13
574.260	1	11
575.449	1	12
576.638	1	16
577.827	1	1
579.016	1	7
580.205	1	6
581.394	1	4
582.583	1	14
583.772	1	13
584.961	1	4
586.150	1	16
587.339	1	7
588.528	1	5
589.717	1	10
590.905	1	0
592.094	1	17
593.283	1	10
594.471	1	2
595.660	1	7
596.848	1	11
598.037	1	7
599.225	1	10
600.413	1	7
601.602	1	11
602.790	1	12
603.978	1	6
605.166	1	11
606.355	1	-13
607.543	1	3
608.731	1	-4
609.919	1	1
611.107	1	16
612.295	1	2
613.483	1	7
614.671	1	10
615.858	1	-6
617.046	1	5
618.234	1	5
619.422	1	10
620.609	1	-2
621.797	1	10
622.985	1	6
624.172	1	8
625.360	1	11
626.547	1	12
627.735	1	4
628.922	1	13
630.109	1	-13
631.297	1	1
632.484	1	16
633.671	1	10
634.858	1	8
636.045	1	3
637.232	1	11
638.419	1	-5
639.606	1	6
640.793	1	1
641.980	1	12
643.167	1	9
644.354	1	13
645.541	1	5
646.728	1	16
647.914	1	5
649.101	1	2
650.288	1	14
651.474	1	10
652.661	1	6
653.847	1	10
655.034	1	3
656.220	1	7
657.406	1	-2
658.593	1	10
659.779	1	10
660.965	1	9
662.152	1	3
663.338	1	7
664.524	1	14
665.710	1	3
666.896	1	9
668.082	1	5
669.268	1	3
670.454	1	9
671.640	1	4
672.826	1	6
674.011	1	10
675.197	1	6
676.383	1	9
677.569	1	20
678.754	1	5
679.940	1	5
681.125	1	-7
682.311	1	13
683.496	1	5
684.682	1	15
685.867	1	7
687.053	1	15
688.238	1	13
688.746	1	4

File: GaN_sample D_spot15_UVVIS_150 K_200um_450 ms 2x2mm1_107.txt
340.368	1	4
341.565	1	10
342.763	1	5
343.960	1	7
345.157	1	18
346.354	1	3
347.552	1	19
348.749	1	19
349.946	1	1
351.143	1	6
352.340	1	7
353.537	1	10
354.734	1	5
355.931	1	5
357.127	1	18
358.324	1	17
359.521	1	35
360.718	1	15
361.914	1	25
363.111	1	37
364.308	1	49
365.504	1	58
366.701	1	68
367.897	1	87
369.093	1	83
370.290	1	64
371.486	1	68
372.682	1	52
373.879	1	41
375.075	1	28
376.271	1	35
377.467	1	33
378.663	1	36
379.859	1	18
381.055	1	21
382.251	1	12
383.447	1	14
384.643	1	11
385.839	1	12
387.035	1	17
388.230	1	17
389.426	1	9
390.622	1	8
391.817	1	3
393.013	1	23
394.208	1	10
395.404	1	8
396.599	1	11
397.795	1	6
398.990	1	29
400.186	1	6
401.381	1	12
402.576	1	7
403.771	1	7
404.967	1	5
406.162	1	5
407.357	1	14
408.552	1	-2
409.747	1	6
410.942	1	14
412.137	1	13
413.332	1	24
414.526	1	2
415.721	1	9
416.916	1	17
418.111	1	10
419.305	1	21
420.500	1	11
421.695	1	23
422.889	1	11
424.084	1	12
425.278	1	10
426.472	1	24
427.667	1	10
428.861	1	19
430.055	1	20
431.250	1	18
432.444	1	16
433.638	1	20
434.832	1	6
436.026	1	6
437.220	1	17
438.414	1	8
439.608	1	8
440.802	1	9
441.996	1	9
443.190	1	19
444.384	1	18
445.578	1	1
446.771	1	13
447.965	1	6
449.159	1	2
450.352	1	12
451.546	1	12
452.739	1	10
453.933	1	-1
455.126	1	4
456.320	1	17
457.513	1	10
458.706	1	18
459.899	1	10
461.093	1	6
462.286	1	4
463.479	1	14
464.672	1	1
465.865	1	6
467.058	1	9
468.251	1	2
469.444	1	9
470.637	1	4
471.830	1	7
473.023	1	8
474.215	1	12
475.408	1	2
476.601	1	-2
477.793	1	4
478.986	1	14
480.179	1	13
481.371	1	-4
482.564	1	8
483.756	1	10
484.948	1	11
486.141	1	4
487.333	1	3
488.525	1	1
489.718	1	0
490.910	1	14
492.102	1	11
493.294	1	-3
494.486	1	9
495.678	1	6
496.870	1	10
498.062	1	10
499.254	1	9
500.446	1	-4
501.638	1	18
502.829	1	5
504.021	1	18
505.213	1	10
506.404	1	15
507.596	1	20
508.788	1	11
509.979	1	13
511.171	1	16
512.362	1	27
513.553	1	18
514.745	1	14
515.936	1	13
517.127	1	23
518.319	1	20
519.510	1	13
520.701	1	18
521.892	1	24
523.083	1	19
524.274	1	24
525.465	1	27
526.656	1	36
527.847	1	13
529.038	1	20
530.229	1	31
531.419	1	31
532.610	1	35
533.801	1	25
534.991	1	21
536.182	1	17
537.373	1	25
538.563	1	23
539.754	1	15
540.944	1	15
542.134	1	23
543.325	1	18
544.515	1	26
545.705	1	19
546.896	1	17
548.086	1	26
549.276	1	26
550.466	1	18
551.656	1	19
552.846	1	21
554.036	1	27
555.226	1	9
556.416	1	16
557.606	1	7
558.796	1	21
559.986	1	14
561.175	1	20
562.365	1	15
563.555	1	14
564.744	1	13
565.934	1	18
567.123	1	5
568.313	1	14
569.502	1	11
570.692	1	14
571.881	1	8
573.070	1	12
574.260	1	9
575.449	1	6
576.638	1	10
577.827	1	-1
579.016	1	18
580.205	1	13
581.394	1	18
582.583	1	12
583.772	1	11
584.961	1	2
586.150	1	13
587.339	1	13
588.528	1	22
589.717	1	11
590.905	1	7
592.094	1	18
593.283	1	11
594.471	1	-1
595.660	1	7
596.848	1	10
598.037	1	4
599.225	1	8
600.413	1	4
601.602	1	17
602.790	1	14
603.978	1	6
605.166	1	8
606.355	1	-1
607.543	1	8
608.731	1	-7
609.919	1	1
611.107	1	10
612.295	1	10
613.483	1	8
614.671	1	12
615.858	1	-4
617.046	1	10
618.234	1	8
619.422	1	13
620.609	1	4
621.797	1	3
622.985	1	4
624.172	1	3
625.360	1	0
626.547	1	-9
627.735	1	8
628.922	1	10
630.109	1	-2
631.297	1	8
632.484	1	10
633.671	1	7
634.858	1	3
636.045	1	-3
637.232	1	8
638.419	1	-6
639.606	1	20
640.793	1	6
641.980	1	11
643.167	1	10
644.354	1	10
645.541	1	4
646.728	1	5
647.914	1	2
649.101	1	-6
650.288	1	21
651.474	1	11
652.661	1	2
653.847	1	9
655.034	1	-1
656.220	1	12
657.406	1	1
658.593	1	20
659.779	1	12
660.965	1	3
662.152	1	7
663.338	1	1
664.524	1	13
665.710	1	6
666.896	1	8
668.082	1	9
669.268	1	-1
670.454	1	9
671.640	1	8
672.826	1	11
674.011	1	11
675.197	1	3
676.383	1	-1
677.569	1	15
678.754	1	2
679.940	1	4
681.125	1	-1
682.311	1	9
683.496	1	4
684.682	1	11
685.867	1	7
687.053	1	27
688.238	1	10
688.746	1	2

File: GaN_sample D_spot15_UVVIS_150 K_200um_450 ms 2x2mm1_109.txt
340.368	1	1
341.565	1	-4
342.763	1	6
343.960	1	2
345.157	1	12
346.354	1	7
347.552	1	16
348.749	1	8
349.946	1	4
351.143	1	11
352.340	1	6
353.537	1	3
354.734	1	8
355.931	1	12
357.127	1	21
358.324	1	10
359.521	1	24
360.718	1	19
361.914	1	23
363.111	1	36
364.308	1	45
365.504	1	50
366.701	1	63
367.897	1	82
369.093	1	67
370.290	1	74
371.486	1	62
372.682	1	65
373.879	1	39
375.075	1	35
376.271	1	26
377.467	1	46
378.663	1	25
379.859	1	16
381.055	1	15
382.251	1	13
383.447	1	17
384.643	1	12
385.839	1	15
387.035	1	18
388.230	1	8
389.426	1	9
390.622	1	1
391.817	1	2
393.013	1	21
394.208	1	15
395.404	1	9
396.599	1	6
397.795	1	13
398.990	1	20
400.186	1	16
401.381	1	3
402.576	1	17
403.771	1	-2
404.967	1	7
406.162	1	7
407.357	1	8
408.552	1	0
409.747	1	18
410.942	1	20
412.137	1	3
413.332	1	14
414.526	1	4
415.721	1	11
416.916	1	11
418.111	1	1
419.305	1	19
420.500	1	16
421.695	1	18
422.889	1	13
424.084	1	4
425.278	1	14
426.472	1	16
427.667	1	5
428.861	1	22
430.055	1	19
431.250	1	24
432.444	1	18
433.638	1	21
434.832	1	16
436.026	1	13
437.220	1	14
438.414	1	11
439.608	1	4
440.802	1	8
441.996	1	6
443.190	1	5
444.384	1	13
445.578	1	11
446.771	1	7
447.965	1	11
449.159	1	8
450.352	1	4
451.546	1	11
452.739	1	11
453.933	1	-3
455.126	1	5
456.320	1	13
457.513	1	8
458.706	1	13
459.899	1	2
461.093	1	7
462.286	1	8
463.479	1	1
464.672	1	3
465.865	1	2
467.058	1	3
468.251	1	10
469.444	1	10
470.637	1	9
471.830	1	9
473.023	1	10
474.215	1	6
475.408	1	13
476.601	1	7
477.793	1	4
478.986	1	17
480.179	1	8
481.371	1	-3
482.564	1	8
483.756	1	9
484.948	1	10
486.141	1	13
487.333	1	0
488.525	1	-2
489.718	1	3
490.910	1	17
492.102	1	6
493.294	1	0
494.486	1	6
495.678	1	8
496.870	1	9
498.062	1	7
499.254	1	2
500.446	1	4
501.638	1	17
502.829	1	14
504.021	1	18
505.213	1	7
506.404	1	17
507.596	1	19
508.788	1	17
509.979	1	12
511.171	1	19
512.362	1	22
513.553	1	29
514.745	1	13
515.936	1	12
517.127	1	29
518.319	1	16
519.510	1	14
520.701	1	26
521.892	1	15
523.083	1	19
524.274	1	16
525.465	1	28
526.656	1	17
527.847	1	9
529.038	1	13
530.229	1	32
531.419	1	26
532.610	1	25
533.801	1	24
534.991	1	13
536.182	1	21
537.373	1	22
538.563	1	25
539.754	1	15
540.944	1	27
542.134	1	22
543.325	1	27
544.515	1	17
545.705	1	18
546.896	1	25
548.086	1	11
549.276	1	19
550.466	1	10
551.656	1	26
552.846	1	14
554.036	1	17
555.226	1	18
556.416	1	19
557.606	1	14
558.796	1	18
559.986	1	15
561.175	1	9
562.365	1	11
563.555	1	13
564.744	1	23
565.934	1	20
567.123	1	4
568.313	1	6
569.502	1	11
570.692	1	16
571.881	1	-2
573.070	1	11
574.260	1	12
575.449	1	0
576.638	1	19
577.827	1	5
579.016	1	8
580.205	1	9
581.394	1	1
582.583	1	15
583.772	1	12
584.961	1	0
586.150	1	10
587.339	1	10
588.528	1	4
589.717	1	13
590.905	1	14
592.094	1	15
593.283	1	11
594.471	1	0
595.660	1	7
596.848	1	8
598.037	1	8
599.225	1	8
600.413	1	6
601.602	1	17
602.790	1	3
603.978	1	10
605.166	1	3
606.355	1	-4
607.543	1	13
608.731	1	6
609.919	1	-5
611.107	1	9
612.295	1	11
613.483	1	5
614.671	1	3
615.858	1	0
617.046	1	6
618.234	1	1
619.422	1	17
620.609	1	6
621.797	1	9
622.985	1	-2
624.172	1	8
625.360	1	5
626.547	1	-2
627.735	1	0
628.922	1	9
630.109	1	-1
631.297	1	8
632.484	1	8
633.671	1	13
634.858	1	14
636.045	1	1
637.232	1	12
638.419	1	-9
639.606	1	14
640.793	1	3
641.980	1	15
643.167	1	3
644.354	1	13
645.541	1	5
646.728	1	8
647.914	1	1
649.101	1	0
650.288	1	4
651.474	1	1
652.661	1	6
653.847	1	14
655.034	1	-2
656.220	1	2
657.406	1	1
658.593	1	19
659.779	1	17
660.965	1	6
662.152	1	3
663.338	1	4
664.524	1	8
665.710	1	11
666.896	1	9
668.082	1	1
669.268	1	-1
670.454	1	1
671.640	1	12
672.826	1	-2
674.011	1	8
675.197	1	10
676.383	1	1
677.569	1	15
678.754	1	6
679.940	1	-3
681.125	1	0
682.311	1	14
683.496	1	-2
684.682	1	8
685.867	1	4
687.053	1	22
688.238	1	9
688.746	1	-4