Folder: cryo-il_analysis/Data/GaN_130K_350ms

File: GaN_sample F_spot6_UVVIS_130 K_200um_350 ms 2x2mm1_1.txt
340.368	1	3
341.565	1	6
342.763	1	3
343.960	1	-17
345.157	1	-7
346.354	1	-6
347.552	1	5
348.749	1	-3
349.946	1	3
351.143	1	-5
352.340	1	10
353.537	1	-2
354.734	1	0
355.931	1	5
357.127	1	-2
358.324	1	4
359.521	1	-5
360.718	1	2
361.914	1	10
363.111	1	9
364.308	1	5
365.504	1	-2
366.701	1	7
367.897	1	-4
369.093	1	3
370.290	1	3
371.486	1	3
372.682	1	0
373.879	1	5
375.075	1	7
376.271	1	-4
377.467	1	12
378.663	1	5
379.859	1	7
381.055	1	-3
382.251	1	3
383.447	1	5
384.643	1	-4
385.839	1	7
387.035	1	5
388.230	1	-6
389.426	1	0
390.622	1	4
391.817	1	3
393.013	1	-1
394.208	1	-14
395.404	1	-16
396.599	1	-3
397.795	1	-13
398.990	1	-2
400.186	1	1
401.381	1	1
402.576	1	-1
403.771	1	4
404.967	1	-2
406.162	1	2
407.357	1	-8
408.552	1	1
409.747	1	-2
410.942	1	-6
412.137	1	-5
413.332	1	-5
414.526	1	-4
415.721	1	0
416.916	1	-5
418.111	1	9
419.305	1	-2
420.500	1	-5
421.695	1	0
422.889	1	1
424.084	1	0
425.278	1	-12
426.472	1	0
427.667	1	11
428.861	1	0
430.055	1	-2
431.250	1	0
432.444	1	-2
433.638	1	2
434.832	1	4
436.026	1	-5
437.220	1	4
438.414	1	-2
439.608	1	7
440.802	1	-7
441.996	1	11
443.190	1	9
444.384	1	-3
445.578	1	-4
446.771	1	7
447.965	1	2
449.159	1	-2
450.352	1	4
451.546	1	4
452.739	1	2
453.933	1	0
455.126	1	-12
456.320	1	-5
457.513	1	-9
458.706	1	-5
459.899	1	-7
461.093	1	6
462.286	1	1
463.479	1	11
464.672	1	-2
465.865	1	-6
467.058	1	10
468.251	1	4
469.444	1	-5
470.637	1	3
471.830	1	0
473.023	1	1
474.215	1	-2
475.408	1	-1
476.601	1	-1
477.793	1	2
478.986	1	-9
480.179	1	2
481.371	1	13
482.564	1	-4
483.756	1	4
484.948	1	-6
486.141	1	3
487.333	1	-6
488.525	1	4
489.718	1	2
490.910	1	-2
492.102	1	7
493.294	1	9
494.486	1	3
495.678	1	-5
496.870	1	5
498.062	1	-1
499.254	1	3
500.446	1	1
501.638	1	-6
502.829	1	-1
504.021	1	-21
505.213	1	5
506.404	1	-8
507.596	1	0
508.788	1	9
509.979	1	-4
511.171	1	8
512.362	1	-7
513.553	1	-1
514.745	1	-4
515.936	1	3
517.127	1	-3
518.319	1	-3
519.510	1	-4
520.701	1	-4
521.892	1	4
523.083	1	-6
524.274	1	-15
525.465	1	4
526.656	1	-6
527.847	1	-7
529.038	1	-7
530.229	1	2
531.419	1	4
532.610	1	-2
533.801	1	5
534.991	1	-6
536.182	1	1
537.373	1	3
538.563	1	0
539.754	1	-3
540.944	1	-5
542.134	1	-6
543.325	1	-3
544.515	1	0
545.705	1	-5
546.896	1	0
548.086	1	-5
549.276	1	-11
550.466	1	3
551.656	1	2
552.846	1	0
554.036	1	5
555.226	1	19
556.416	1	7
557.606	1	-18
558.796	1	9
559.986	1	-3
561.175	1	-3
562.365	1	-2
563.555	1	8
564.744	1	3
565.934	1	-1
567.123	1	-9
568.313	1	-1
569.502	1	3
570.692	1	16
571.881	1	2
573.070	1	1
574.260	1	3
575.449	1	7
576.638	1	-5
577.827	1	-12
579.016	1	3
580.205	1	-5
581.394	1	6
582.583	1	8
583.772	1	-4
584.961	1	-10
586.150	1	-3
587.339	1	-7
588.528	1	4
589.717	1	0
590.905	1	8
592.094	1	-1
593.283	1	-17
594.471	1	-7
595.660	1	-5
596.848	1	3
598.037	1	1
599.225	1	-2
600.413	1	13
601.602	1	-1
602.790	1	-2
603.978	1	-2
605.166	1	8
606.355	1	9
607.543	1	3
608.731	1	-1
609.919	1	4
611.107	1	5
612.295	1	13
613.483	1	-2
614.671	1	4
615.858	1	-8
617.046	1	2
618.234	1	6
619.422	1	-2
620.609	1	-5
621.797	1	8
622.985	1	1
624.172	1	-1
625.360	1	-6
626.547	1	-3
627.735	1	6
628.922	1	-11
630.109	1	-1
631.297	1	-7
632.484	1	-10
633.671	1	-14
634.858	1	8
636.045	1	13
637.232	1	-13
638.419	1	6
639.606	1	-4
640.793	1	-12
641.980	1	-1
643.167	1	2
644.354	1	-6
645.541	1	1
646.728	1	7
647.914	1	-1
649.101	1	-1
650.288	1	-2
651.474	1	-3
652.661	1	-7
653.847	1	-2
655.034	1	2
656.220	1	-1
657.406	1	0
658.593	1	-2
659.779	1	-6
660.965	1	-2
662.152	1	0
663.338	1	-6
664.524	1	0
665.710	1	2
666.896	1	14
668.082	1	-6
669.268	1	-9
670.454	1	1
671.640	1	-4
672.826	1	0
674.011	1	3
675.197	1	-11
676.383	1	-1
677.569	1	-1
678.754	1	-2
679.940	1	3
681.125	1	9
682.311	1	-6
683.496	1	0
684.682	1	2
685.867	1	-4
687.053	1	-5
688.238	1	9
688.746	1	-4

File: GaN_sample F_spot6_UVVIS_130 K_200um_350 ms 2x2mm1_18.txt
340.368	1	2
341.565	1	3
342.763	1	1
343.960	1	-17
345.157	1	-14
346.354	1	-4
347.552	1	-3
348.749	1	-2
349.946	1	7
351.143	1	7
352.340	1	10
353.537	1	2
354.734	1	3
355.931	1	2
357.127	1	5
358.324	1	-1
359.521	1	-16
360.718	1	3
361.914	1	11
363.111	1	9
364.308	1	9
365.504	1	-3
366.701	1	-2
367.897	1	2
369.093	1	2
370.290	1	2
371.486	1	7
372.682	1	10
373.879	1	7
375.075	1	11
376.271	1	4
377.467	1	10
378.663	1	1
379.859	1	-6
381.055	1	2
382.251	1	-2
383.447	1	8
384.643	1	7
385.839	1	2
387.035	1	1
388.230	1	-2
389.426	1	4
390.622	1	7
391.817	1	8
393.013	1	4
394.208	1	-4
395.404	1	-9
396.599	1	2
397.795	1	-7
398.990	1	2
400.186	1	-6
401.381	1	-2
402.576	1	3
403.771	1	6
404.967	1	7
406.162	1	-2
407.357	1	1
408.552	1	-3
409.747	1	-5
410.942	1	-1
412.137	1	-7
413.332	1	-7
414.526	1	4
415.721	1	-3
416.916	1	-8
418.111	1	4
419.305	1	-6
420.500	1	2
421.695	1	4
422.889	1	5
424.084	1	0
425.278	1	-9
426.472	1	-1
427.667	1	5
428.861	1	-2
430.055	1	-4
431.250	1	2
432.444	1	-5
433.638	1	2
434.832	1	-1
436.026	1	10
437.220	1	-3
438.414	1	-7
439.608	1	14
440.802	1	-11
441.996	1	9
443.190	1	-2
444.384	1	-2
445.578	1	-8
446.771	1	7
447.965	1	2
449.159	1	-5
450.352	1	7
451.546	1	7
452.739	1	5
453.933	1	2
455.126	1	-15
456.320	1	1
457.513	1	-12
458.706	1	0
459.899	1	4
461.093	1	9
462.286	1	2
463.479	1	8
464.672	1	6
465.865	1	-5
467.058	1	1
468.251	1	7
469.444	1	0
470.637	1	-7
471.830	1	4
473.023	1	16
474.215	1	10
475.408	1	11
476.601	1	-8
477.793	1	-4
478.986	1	2
480.179	1	2
481.371	1	7
482.564	1	-2
483.756	1	2
484.948	1	8
486.141	1	-3
487.333	1	-3
488.525	1	5
489.718	1	3
490.910	1	-2
492.102	1	3
493.294	1	8
494.486	1	18
495.678	1	-7
496.870	1	-1
498.062	1	-9
499.254	1	10
500.446	1	5
501.638	1	5
502.829	1	-5
504.021	1	-7
505.213	1	2
506.404	1	3
507.596	1	-3
508.788	1	3
509.979	1	-2
511.171	1	8
512.362	1	-3
513.553	1	0
514.745	1	4
515.936	1	4
517.127	1	-1
518.319	1	0
519.510	1	-13
520.701	1	-1
521.892	1	2
523.083	1	-1
524.274	1	-8
525.465	1	9
526.656	1	6
527.847	1	8
529.038	1	-2
530.229	1	5
531.419	1	-1
532.610	1	5
533.801	1	12
534.991	1	-2
536.182	1	1
537.373	1	-1
538.563	1	5
539.754	1	-7
540.944	1	5
542.134	1	-2
543.325	1	0
544.515	1	0
545.705	1	-5
546.896	1	3
548.086	1	-12
549.276	1	-3
550.466	1	0
551.656	1	7
552.846	1	2
554.036	1	5
555.226	1	4
556.416	1	3
557.606	1	-4
558.796	1	7
559.986	1	6
561.175	1	6
562.365	1	1
563.555	1	2
564.744	1	3
565.934	1	-3
567.123	1	1
568.313	1	-6
569.502	1	-9
570.692	1	7
571.881	1	5
573.070	1	-2
574.260	1	8
575.449	1	12
576.638	1	-1
577.827	1	4
579.016	1	-2
580.205	1	0
581.394	1	5
582.583	1	7
583.772	1	-7
584.961	1	10
586.150	1	-3
587.339	1	4
588.528	1	9
589.717	1	-1
590.905	1	5
592.094	1	2
593.283	1	-3
594.471	1	-4
595.660	1	1
596.848	1	-6
598.037	1	3
599.225	1	-4
600.413	1	7
601.602	1	-5
602.790	1	-3
603.978	1	-6
605.166	1	3
606.355	1	9
607.543	1	5
608.731	1	2
609.919	1	2
611.107	1	1
612.295	1	0
613.483	1	-6
614.671	1	2
615.858	1	-9
617.046	1	15
618.234	1	0
619.422	1	-1
620.609	1	-8
621.797	1	-1
622.985	1	6
624.172	1	0
625.360	1	8
626.547	1	0
627.735	1	-2
628.922	1	-3
630.109	1	2
631.297	1	2
632.484	1	-13
633.671	1	-3
634.858	1	6
636.045	1	21
637.232	1	-9
638.419	1	2
639.606	1	9
640.793	1	-13
641.980	1	-3
643.167	1	-2
644.354	1	-7
645.541	1	-1
646.728	1	6
647.914	1	-8
649.101	1	0
650.288	1	5
651.474	1	2
652.661	1	-4
653.847	1	6
655.034	1	-4
656.220	1	3
657.406	1	9
658.593	1	2
659.779	1	0
660.965	1	-1
662.152	1	3
663.338	1	-5
664.524	1	0
665.710	1	-6
666.896	1	6
668.082	1	1
669.268	1	1
670.454	1	5
671.640	1	-1
672.826	1	0
674.011	1	-2
675.197	1	-7
676.383	1	3
677.569	1	-7
678.754	1	-3
679.940	1	1
681.125	1	10
682.311	1	-9
683.496	1	-3
684.682	1	2
685.867	1	-1
687.053	1	2
688.238	1	10
688.746	1	1

File: GaN_sample F_spot6_UVVIS_130 K_200um_350 ms 2x2mm1_19.txt
340.368	1	-2
341.565	1	6
342.763	1	-4
343.960	1	-11
345.157	1	-7
346.354	1	7
347.552	1	-2
348.749	1	1
349.946	1	6
351.143	1	4
352.340	1	11
353.537	1	-5
354.734	1	-8
355.931	1	-1
357.127	1	2
358.324	1	-5
359.521	1	-4
360.718	1	9
361.914	1	-5
363.111	1	6
364.308	1	-1
365.504	1	3
366.701	1	1
367.897	1	2
369.093	1	-4
370.290	1	5
371.486	1	-2
372.682	1	1
373.879	1	8
375.075	1	6
376.271	1	-6
377.467	1	13
378.663	1	5
379.859	1	-5
381.055	1	2
382.251	1	0
383.447	1	6
384.643	1	9
385.839	1	-1
387.035	1	7
388.230	1	-5
389.426	1	7
390.622	1	4
391.817	1	9
393.013	1	-4
394.208	1	-9
395.404	1	-3
396.599	1	-5
397.795	1	-9
398.990	1	2
400.186	1	-4
401.381	1	0
402.576	1	3
403.771	1	-2
404.967	1	4
406.162	1	-3
407.357	1	-9
408.552	1	-10
409.747	1	2
410.942	1	-2
412.137	1	-6
413.332	1	-4
414.526	1	9
415.721	1	-2
416.916	1	-2
418.111	1	0
419.305	1	-3
420.500	1	-2
421.695	1	-2
422.889	1	-4
424.084	1	2
425.278	1	-11
426.472	1	-2
427.667	1	-1
428.861	1	2
430.055	1	-4
431.250	1	2
432.444	1	9
433.638	1	4
434.832	1	-7
436.026	1	7
437.220	1	-3
438.414	1	-13
439.608	1	9
440.802	1	-9
441.996	1	7
443.190	1	0
444.384	1	-7
445.578	1	-7
446.771	1	0
447.965	1	8
449.159	1	2
450.352	1	7
451.546	1	6
452.739	1	4
453.933	1	7
455.126	1	-8
456.320	1	-2
457.513	1	-10
458.706	1	-5
459.899	1	4
461.093	1	7
462.286	1	-7
463.479	1	10
464.672	1	8
465.865	1	-11
467.058	1	-2
468.251	1	-3
469.444	1	-2
470.637	1	0
471.830	1	6
473.023	1	2
474.215	1	-3
475.408	1	10
476.601	1	-5
477.793	1	-9
478.986	1	1
480.179	1	4
481.371	1	6
482.564	1	-3
483.756	1	-2
484.948	1	-1
486.141	1	-1
487.333	1	-2
488.525	1	12
489.718	1	0
490.910	1	1
492.102	1	3
493.294	1	6
494.486	1	14
495.678	1	3
496.870	1	5
498.062	1	-2
499.254	1	4
500.446	1	-3
501.638	1	-3
502.829	1	-4
504.021	1	-5
505.213	1	-2
506.404	1	-4
507.596	1	-1
508.788	1	-6
509.979	1	-1
511.171	1	2
512.362	1	-10
513.553	1	4
514.745	1	6
515.936	1	14
517.127	1	-2
518.319	1	-7
519.510	1	3
520.701	1	-2
521.892	1	8
523.083	1	7
524.274	1	-1
525.465	1	6
526.656	1	8
527.847	1	4
529.038	1	-4
530.229	1	1
531.419	1	2
532.610	1	3
533.801	1	12
534.991	1	1
536.182	1	5
537.373	1	0
538.563	1	10
539.754	1	-8
540.944	1	4
542.134	1	1
543.325	1	7
544.515	1	7
545.705	1	-6
546.896	1	2
548.086	1	-3
549.276	1	-3
550.466	1	2
551.656	1	6
552.846	1	-3
554.036	1	-2
555.226	1	-1
556.416	1	9
557.606	1	-4
558.796	1	11
559.986	1	4
561.175	1	3
562.365	1	-2
563.555	1	6
564.744	1	8
565.934	1	-2
567.123	1	-2
568.313	1	-5
569.502	1	-2
570.692	1	5
571.881	1	-3
573.070	1	-3
574.260	1	2
575.449	1	10
576.638	1	0
577.827	1	-7
579.016	1	0
580.205	1	-4
581.394	1	7
582.583	1	9
583.772	1	4
584.961	1	0
586.150	1	12
587.339	1	0
588.528	1	2
589.717	1	-2
590.905	1	6
592.094	1	-4
593.283	1	-10
594.471	1	-5
595.660	1	-3
596.848	1	11
598.037	1	3
599.225	1	2
600.413	1	14
601.602	1	-3
602.790	1	1
603.978	1	3
605.166	1	7
606.355	1	4
607.543	1	-6
608.731	1	0
609.919	1	4
611.107	1	11
612.295	1	10
613.483	1	-3
614.671	1	5
615.858	1	-4
617.046	1	12
618.234	1	9
619.422	1	3
620.609	1	-8
621.797	1	9
622.985	1	10
624.172	1	-4
625.360	1	-3
626.547	1	6
627.735	1	-1
628.922	1	-6
630.109	1	1
631.297	1	-5
632.484	1	-6
633.671	1	-6
634.858	1	11
636.045	1	8
637.232	1	-6
638.419	1	4
639.606	1	3
640.793	1	-13
641.980	1	3
643.167	1	-3
644.354	1	-1
645.541	1	5
646.728	1	10
647.914	1	-8
649.101	1	-2
650.288	1	4
651.474	1	-6
652.661	1	-10
653.847	1	-2
655.034	1	-4
656.220	1	1
657.406	1	-4
658.593	1	5
659.779	1	4
660.965	1	4
662.152	1	3
663.338	1	0
664.524	1	-1
665.710	1	-2
666.896	1	0
668.082	1	3
669.268	1	-6
670.454	1	6
671.640	1	-3
672.826	1	-8
674.011	1	4
675.197	1	1
676.383	1	5
677.569	1	-4
678.754	1	8
679.940	1	-6
681.125	1	10
682.311	1	-1
683.496	1	-1
684.682	1	-3
685.867	1	-4
687.053	1	8
688.238	1	12
688.746	1	1

File: GaN_sample F_spot6_UVVIS_130 K_200um_350 ms 2x2mm1_20.txt
340.368	1	4
341.565	1	0
342.763	1	-2
343.960	1	-5
345.157	1	-6
346.354	1	13
347.552	1	-2
348.749	1	-7
349.946	1	7
351.143	1	-1
352.340	1	0
353.537	1	4
354.734	1	-6
355.931	1	-4
357.127	1	7
358.324	1	0
359.521	1	4
360.718	1	-1
361.914	1	3
363.111	1	4
364.308	1	9
365.504	1	2
366.701	1	1
367.897	1	2
369.093	1	4
370.290	1	6
371.486	1	6
372.682	1	2
373.879	1	8
375.075	1	4
376.271	1	11
377.467	1	15
378.663	1	-7
379.859	1	5
381.055	1	4
382.251	1	8
383.447	1	2
384.643	1	1
385.839	1	4
387.035	1	7
388.230	1	0
389.426	1	6
390.622	1	6
391.817	1	1
393.013	1	3
394.208	1	-4
395.404	1	-5
396.599	1	3
397.795	1	-4
398.990	1	-8
400.186	1	-4
401.381	1	-3
402.576	1	3
403.771	1	6
404.967	1	-2
406.162	1	-3
407.357	1	-10
408.552	1	1
409.747	1	-5
410.942	1	2
412.137	1	-5
413.332	1	-1
414.526	1	8
415.721	1	0
416.916	1	-3
418.111	1	1
419.305	1	1
420.500	1	-5
421.695	1	-1
422.889	1	-7
424.084	1	11
425.278	1	-6
426.472	1	-9
427.667	1	-3
428.861	1	3
430.055	1	-4
431.250	1	2
432.444	1	-2
433.638	1	4
434.832	1	-7
436.026	1	1
437.220	1	-6
438.414	1	-3
439.608	1	11
440.802	1	-16
441.996	1	1
443.190	1	0
444.384	1	-10
445.578	1	-4
446.771	1	4
447.965	1	-1
449.159	1	2
450.352	1	5
451.546	1	12
452.739	1	0
453.933	1	5
455.126	1	3
456.320	1	-4
457.513	1	-14
458.706	1	1
459.899	1	1
461.093	1	15
462.286	1	3
463.479	1	15
464.672	1	12
465.865	1	-18
467.058	1	-6
468.251	1	0
469.444	1	2
470.637	1	2
471.830	1	-1
473.023	1	1
474.215	1	0
475.408	1	5
476.601	1	2
477.793	1	-5
478.986	1	2
480.179	1	-7
481.371	1	10
482.564	1	5
483.756	1	0
484.948	1	0
486.141	1	-7
487.333	1	-1
488.525	1	3
489.718	1	5
490.910	1	-4
492.102	1	8
493.294	1	-2
494.486	1	9
495.678	1	-1
496.870	1	-3
498.062	1	-10
499.254	1	2
500.446	1	8
501.638	1	-3
502.829	1	-5
504.021	1	-7
505.213	1	3
506.404	1	0
507.596	1	-2
508.788	1	3
509.979	1	-7
511.171	1	7
512.362	1	-9
513.553	1	2
514.745	1	-3
515.936	1	16
517.127	1	-2
518.319	1	-2
519.510	1	-7
520.701	1	-3
521.892	1	-2
523.083	1	-3
524.274	1	-9
525.465	1	0
526.656	1	1
527.847	1	-8
529.038	1	-3
530.229	1	4
531.419	1	2
532.610	1	-2
533.801	1	8
534.991	1	1
536.182	1	0
537.373	1	5
538.563	1	13
539.754	1	-4
540.944	1	5
542.134	1	3
543.325	1	-3
544.515	1	3
545.705	1	-1
546.896	1	-3
548.086	1	-6
549.276	1	-6
550.466	1	3
551.656	1	-1
552.846	1	2
554.036	1	2
555.226	1	0
556.416	1	5
557.606	1	3
558.796	1	9
559.986	1	-4
561.175	1	3
562.365	1	1
563.555	1	4
564.744	1	-1
565.934	1	5
567.123	1	1
568.313	1	-3
569.502	1	1
570.692	1	9
571.881	1	-2
573.070	1	1
574.260	1	1
575.449	1	-3
576.638	1	-12
577.827	1	-1
579.016	1	0
580.205	1	3
581.394	1	2
582.583	1	6
583.772	1	6
584.961	1	-5
586.150	1	7
587.339	1	2
588.528	1	8
589.717	1	-7
590.905	1	1
592.094	1	3
593.283	1	-3
594.471	1	0
595.660	1	-2
596.848	1	10
598.037	1	2
599.225	1	9
600.413	1	2
601.602	1	-2
602.790	1	-9
603.978	1	5
605.166	1	8
606.355	1	5
607.543	1	3
608.731	1	0
609.919	1	4
611.107	1	7
612.295	1	12
613.483	1	0
614.671	1	4
615.858	1	-4
617.046	1	14
618.234	1	4
619.422	1	0
620.609	1	-11
621.797	1	0
622.985	1	8
624.172	1	3
625.360	1	2
626.547	1	10
627.735	1	7
628.922	1	-3
630.109	1	10
631.297	1	2
632.484	1	-5
633.671	1	-4
634.858	1	-3
636.045	1	10
637.232	1	2
638.419	1	5
639.606	1	6
640.793	1	-9
641.980	1	0
643.167	1	1
644.354	1	-11
645.541	1	-5
646.728	1	4
647.914	1	-3
649.101	1	-5
650.288	1	15
651.474	1	-12
652.661	1	-11
653.847	1	-8
655.034	1	-2
656.220	1	4
657.406	1	-3
658.593	1	6
659.779	1	-1
660.965	1	-2
662.152	1	-3
663.338	1	-5
664.524	1	-4
665.710	1	-4
666.896	1	4
668.082	1	2
669.268	1	2
670.454	1	1
671.640	1	-8
672.826	1	-1
674.011	1	-4
675.197	1	4
676.383	1	7
677.569	1	1
678.754	1	4
679.940	1	-2
681.125	1	8
682.311	1	-9
683.496	1	-1
684.682	1	1
685.867	1	-7
687.053	1	-1
688.238	1	9
688.746	1	5

File: GaN_sample F_spot6_UVVIS_130 K_200um_350 ms 2x2mm1_22.txt
340.368	1	4
341.565	1	6
342.763	1	2
343.960	1	-12
345.157	1	-9
346.354	1	-3
347.552	1	-1
348.749	1	3
349.946	1	4
351.143	1	3
352.340	1	6
353.537	1	0
354.734	1	0
355.931	1	4
357.127	1	9
358.324	1	2
359.521	1	7
360.718	1	11
361.914	1	-1
363.111	1	8
364.308	1	11
365.504	1	3
366.701	1	-2
367.897	1	-4
369.093	1	8
370.290	1	-2
371.486	1	-2
372.682	1	-6
373.879	1	7
375.075	1	14
376.271	1	3
377.467	1	7
378.663	1	7
379.859	1	-7
381.055	1	5
382.251	1	6
383.447	1	7
384.643	1	3
385.839	1	-3
387.035	1	5
388.230	1	-7
389.426	1	3
390.622	1	3
391.817	1	1
393.013	1	5
394.208	1	-9
395.404	1	-15
396.599	1	11
397.795	1	-11
398.990	1	7
400.186	1	-1
401.381	1	-2
402.576	1	2
403.771	1	10
404.967	1	-4
406.162	1	-1
407.357	1	1
408.552	1	-5
409.747	1	6
410.942	1	-6
412.137	1	-4
413.332	1	-6
414.526	1	-3
415.721	1	0
416.916	1	2
418.111	1	-2
419.305	1	-7
420.500	1	4
421.695	1	10
422.889	1	2
424.084	1	1
425.278	1	-4
426.472	1	-3
427.667	1	10
428.861	1	-3
430.055	1	5
431.250	1	-1
432.444	1	7
433.638	1	9
434.832	1	5
436.026	1	0
437.220	1	0
438.414	1	-4
439.608	1	4
440.802	1	-14
441.996	1	5
443.190	1	-2
444.384	1	-2
445.578	1	-8
446.771	1	6
447.965	1	-2
449.159	1	-1
450.352	1	4
451.546	1	7
452.739	1	5
453.933	1	-6
455.126	1	-6
456.320	1	-9
457.513	1	0
458.706	1	-1
459.899	1	6
461.093	1	7
462.286	1	7
463.479	1	7
464.672	1	9
465.865	1	-12
467.058	1	0
468.251	1	9
469.444	1	2
470.637	1	0
471.830	1	2
473.023	1	2
474.215	1	0
475.408	1	4
476.601	1	2
477.793	1	-6
478.986	1	1
480.179	1	-5
481.371	1	11
482.564	1	-1
483.756	1	5
484.948	1	5
486.141	1	7
487.333	1	-6
488.525	1	5
489.718	1	5
490.910	1	-8
492.102	1	2
493.294	1	7
494.486	1	8
495.678	1	-17
496.870	1	-5
498.062	1	-4
499.254	1	3
500.446	1	3
501.638	1	1
502.829	1	-1
504.021	1	-6
505.213	1	0
506.404	1	6
507.596	1	1
508.788	1	-1
509.979	1	-6
511.171	1	8
512.362	1	-9
513.553	1	0
514.745	1	2
515.936	1	9
517.127	1	-1
518.319	1	0
519.510	1	-4
520.701	1	-4
521.892	1	9
523.083	1	6
524.274	1	-9
525.465	1	-3
526.656	1	2
527.847	1	1
529.038	1	-9
530.229	1	10
531.419	1	-2
532.610	1	-7
533.801	1	3
534.991	1	1
536.182	1	4
537.373	1	0
538.563	1	4
539.754	1	-1
540.944	1	0
542.134	1	2
543.325	1	4
544.515	1	1
545.705	1	5
546.896	1	2
548.086	1	1
549.276	1	-10
550.466	1	4
551.656	1	9
552.846	1	0
554.036	1	-2
555.226	1	3
556.416	1	8
557.606	1	0
558.796	1	13
559.986	1	1
561.175	1	5
562.365	1	11
563.555	1	8
564.744	1	12
565.934	1	-2
567.123	1	6
568.313	1	-5
569.502	1	1
570.692	1	2
571.881	1	-1
573.070	1	1
574.260	1	-5
575.449	1	7
576.638	1	-4
577.827	1	-6
579.016	1	1
580.205	1	-7
581.394	1	3
582.583	1	13
583.772	1	4
584.961	1	3
586.150	1	10
587.339	1	1
588.528	1	3
589.717	1	0
590.905	1	6
592.094	1	-5
593.283	1	-11
594.471	1	2
595.660	1	2
596.848	1	7
598.037	1	-2
599.225	1	3
600.413	1	9
601.602	1	2
602.790	1	1
603.978	1	-1
605.166	1	7
606.355	1	2
607.543	1	3
608.731	1	7
609.919	1	0
611.107	1	5
612.295	1	0
613.483	1	-6
614.671	1	6
615.858	1	-5
617.046	1	12
618.234	1	-1
619.422	1	-1
620.609	1	-6
621.797	1	0
622.985	1	3
624.172	1	-3
625.360	1	6
626.547	1	4
627.735	1	4
628.922	1	1
630.109	1	12
631.297	1	2
632.484	1	-7
633.671	1	1
634.858	1	11
636.045	1	6
637.232	1	-4
638.419	1	3
639.606	1	4
640.793	1	-11
641.980	1	-5
643.167	1	-5
644.354	1	-4
645.541	1	8
646.728	1	2
647.914	1	-11
649.101	1	1
650.288	1	4
651.474	1	0
652.661	1	-8
653.847	1	-5
655.034	1	-3
656.220	1	1
657.406	1	-1
658.593	1	-4
659.779	1	14
660.965	1	7
662.152	1	-1
663.338	1	-2
664.524	1	0
665.710	1	-7
666.896	1	8
668.082	1	6
669.268	1	-5
670.454	1	3
671.640	1	-10
672.826	1	-3
674.011	1	4
675.197	1	-5
676.383	1	2
677.569	1	-3
678.754	1	2
679.940	1	-5
681.125	1	12
682.311	1	-4
683.496	1	-11
684.682	1	-3
685.867	1	8
687.053	1	-1
688.238	1	1
688.746	1	1

File: GaN_sample F_spot6_UVVIS_130 K_200um_350 ms 2x2mm1_23.txt
340.368	1	3
341.565	1	-1
342.763	1	6
343.960	1	-8
345.157	1	-15
346.354	1	-10
347.552	1	-3
348.749	1	-4
349.946	1	2
351.143	1	4
352.340	1	11
353.537	1	5
354.734	1	4
355.931	1	2
357.127	1	-3
358.324	1	-7
359.521	1	-11
360.718	1	10
361.914	1	-5
363.111	1	14
364.308	1	4
365.504	1	-3
366.701	1	-1
367.897	1	-6
369.093	1	3
370.290	1	12
371.486	1	0
372.682	1	5
373.879	1	6
375.075	1	4
376.271	1	1
377.467	1	5
378.663	1	2
379.859	1	9
381.055	1	5
382.251	1	2
383.447	1	-1
384.643	1	11
385.839	1	0
387.035	1	10
388.230	1	2
389.426	1	2
390.622	1	4
391.817	1	2
393.013	1	2
394.208	1	-10
395.404	1	-8
396.599	1	4
397.795	1	-10
398.990	1	-2
400.186	1	-7
401.381	1	0
402.576	1	-5
403.771	1	3
404.967	1	-2
406.162	1	-4
407.357	1	-10
408.552	1	-3
409.747	1	-5
410.942	1	1
412.137	1	-3
413.332	1	-4
414.526	1	1
415.721	1	5
416.916	1	3
418.111	1	6
419.305	1	-2
420.500	1	2
421.695	1	-4
422.889	1	-1
424.084	1	6
425.278	1	-6
426.472	1	-1
427.667	1	12
428.861	1	-4
430.055	1	-6
431.250	1	2
432.444	1	10
433.638	1	0
434.832	1	4
436.026	1	0
437.220	1	1
438.414	1	-13
439.608	1	4
440.802	1	1
441.996	1	5
443.190	1	2
444.384	1	-11
445.578	1	-5
446.771	1	0
447.965	1	-1
449.159	1	5
450.352	1	8
451.546	1	18
452.739	1	2
453.933	1	-6
455.126	1	-9
456.320	1	7
457.513	1	-9
458.706	1	4
459.899	1	9
461.093	1	10
462.286	1	12
463.479	1	10
464.672	1	8
465.865	1	-8
467.058	1	5
468.251	1	0
469.444	1	-3
470.637	1	0
471.830	1	8
473.023	1	10
474.215	1	7
475.408	1	4
476.601	1	0
477.793	1	-2
478.986	1	-1
480.179	1	-1
481.371	1	4
482.564	1	2
483.756	1	-5
484.948	1	1
486.141	1	-5
487.333	1	-6
488.525	1	3
489.718	1	4
490.910	1	0
492.102	1	9
493.294	1	7
494.486	1	8
495.678	1	-1
496.870	1	2
498.062	1	-3
499.254	1	9
500.446	1	-1
501.638	1	-6
502.829	1	-9
504.021	1	1
505.213	1	-9
506.404	1	2
507.596	1	2
508.788	1	-1
509.979	1	-6
511.171	1	1
512.362	1	3
513.553	1	5
514.745	1	-2
515.936	1	7
517.127	1	5
518.319	1	-13
519.510	1	0
520.701	1	-6
521.892	1	2
523.083	1	2
524.274	1	-2
525.465	1	7
526.656	1	6
527.847	1	-3
529.038	1	-1
530.229	1	2
531.419	1	-1
532.610	1	-2
533.801	1	7
534.991	1	-11
536.182	1	7
537.373	1	1
538.563	1	7
539.754	1	-12
540.944	1	-3
542.134	1	-2
543.325	1	4
544.515	1	1
545.705	1	-5
546.896	1	8
548.086	1	-12
549.276	1	-1
550.466	1	3
551.656	1	0
552.846	1	-2
554.036	1	3
555.226	1	3
556.416	1	7
557.606	1	6
558.796	1	8
559.986	1	1
561.175	1	7
562.365	1	7
563.555	1	3
564.744	1	0
565.934	1	7
567.123	1	0
568.313	1	-13
569.502	1	-1
570.692	1	9
571.881	1	3
573.070	1	-2
574.260	1	5
575.449	1	4
576.638	1	-5
577.827	1	-7
579.016	1	-3
580.205	1	-1
581.394	1	2
582.583	1	6
583.772	1	1
584.961	1	5
586.150	1	8
587.339	1	0
588.528	1	8
589.717	1	1
590.905	1	2
592.094	1	-2
593.283	1	-5
594.471	1	-2
595.660	1	7
596.848	1	-3
598.037	1	-1
599.225	1	7
600.413	1	10
601.602	1	-1
602.790	1	-5
603.978	1	2
605.166	1	6
606.355	1	11
607.543	1	8
608.731	1	6
609.919	1	2
611.107	1	6
612.295	1	8
613.483	1	-5
614.671	1	4
615.858	1	-6
617.046	1	11
618.234	1	-11
619.422	1	1
620.609	1	-9
621.797	1	-1
622.985	1	10
624.172	1	-5
625.360	1	5
626.547	1	7
627.735	1	16
628.922	1	-6
630.109	1	6
631.297	1	-1
632.484	1	-7
633.671	1	-4
634.858	1	6
636.045	1	11
637.232	1	-6
638.419	1	-3
639.606	1	4
640.793	1	-7
641.980	1	-1
643.167	1	2
644.354	1	-6
645.541	1	0
646.728	1	-2
647.914	1	-1
649.101	1	-7
650.288	1	10
651.474	1	-1
652.661	1	-13
653.847	1	3
655.034	1	6
656.220	1	-4
657.406	1	9
658.593	1	2
659.779	1	2
660.965	1	-8
662.152	1	8
663.338	1	2
664.524	1	-7
665.710	1	-8
666.896	1	4
668.082	1	4
669.268	1	0
670.454	1	-1
671.640	1	-13
672.826	1	3
674.011	1	-1
675.197	1	-9
676.383	1	-1
677.569	1	-3
678.754	1	5
679.940	1	6
681.125	1	5
682.311	1	-20
683.496	1	-4
684.682	1	1
685.867	1	-1
687.053	1	-3
688.238	1	7
688.746	1	0