Folder: cryo-il_analysis/Data/GaN_150K_450ms (part 29)

File: GaN_sample D_spot15_UVVIS_150 K_200um_450 ms 2x2mm1_273.txt
340.368	1	3
341.565	1	1
342.763	1	1
343.960	1	13
345.157	1	9
346.354	1	-1
347.552	1	15
348.749	1	6
349.946	1	-4
351.143	1	10
352.340	1	3
353.537	1	-4
354.734	1	2
355.931	1	6
357.127	1	8
358.324	1	0
359.521	1	10
360.718	1	-3
361.914	1	8
363.111	1	2
364.308	1	8
365.504	1	5
366.701	1	5
367.897	1	14
369.093	1	13
370.290	1	17
371.486	1	22
372.682	1	10
373.879	1	2
375.075	1	-5
376.271	1	8
377.467	1	8
378.663	1	8
379.859	1	8
381.055	1	1
382.251	1	-6
383.447	1	3
384.643	1	1
385.839	1	2
387.035	1	7
388.230	1	2
389.426	1	0
390.622	1	1
391.817	1	-5
393.013	1	9
394.208	1	6
395.404	1	2
396.599	1	6
397.795	1	2
398.990	1	16
400.186	1	4
401.381	1	6
402.576	1	1
403.771	1	-8
404.967	1	-1
406.162	1	-4
407.357	1	10
408.552	1	-1
409.747	1	1
410.942	1	15
412.137	1	1
413.332	1	5
414.526	1	0
415.721	1	6
416.916	1	-2
418.111	1	2
419.305	1	10
420.500	1	1
421.695	1	0
422.889	1	-1
424.084	1	1
425.278	1	2
426.472	1	4
427.667	1	0
428.861	1	5
430.055	1	8
431.250	1	7
432.444	1	7
433.638	1	-3
434.832	1	-6
436.026	1	3
437.220	1	7
438.414	1	12
439.608	1	0
440.802	1	8
441.996	1	-5
443.190	1	-2
444.384	1	6
445.578	1	-5
446.771	1	2
447.965	1	0
449.159	1	-5
450.352	1	-2
451.546	1	-1
452.739	1	8
453.933	1	-4
455.126	1	4
456.320	1	13
457.513	1	-4
458.706	1	15
459.899	1	1
461.093	1	2
462.286	1	5
463.479	1	0
464.672	1	6
465.865	1	-7
467.058	1	-3
468.251	1	-16
469.444	1	6
470.637	1	-3
471.830	1	6
473.023	1	3
474.215	1	5
475.408	1	5
476.601	1	4
477.793	1	1
478.986	1	5
480.179	1	13
481.371	1	0
482.564	1	-1
483.756	1	-3
484.948	1	1
486.141	1	3
487.333	1	0
488.525	1	2
489.718	1	-8
490.910	1	1
492.102	1	-5
493.294	1	-8
494.486	1	-8
495.678	1	4
496.870	1	-5
498.062	1	0
499.254	1	-4
500.446	1	-4
501.638	1	5
502.829	1	0
504.021	1	-3
505.213	1	-3
506.404	1	5
507.596	1	9
508.788	1	2
509.979	1	6
511.171	1	9
512.362	1	8
513.553	1	1
514.745	1	3
515.936	1	-5
517.127	1	6
518.319	1	0
519.510	1	0
520.701	1	-6
521.892	1	8
523.083	1	0
524.274	1	2
525.465	1	7
526.656	1	4
527.847	1	-10
529.038	1	-7
530.229	1	14
531.419	1	1
532.610	1	7
533.801	1	0
534.991	1	-1
536.182	1	-5
537.373	1	-7
538.563	1	-2
539.754	1	2
540.944	1	3
542.134	1	-2
543.325	1	6
544.515	1	-7
545.705	1	2
546.896	1	-1
548.086	1	2
549.276	1	5
550.466	1	6
551.656	1	2
552.846	1	3
554.036	1	10
555.226	1	0
556.416	1	6
557.606	1	-7
558.796	1	9
559.986	1	-1
561.175	1	-3
562.365	1	5
563.555	1	11
564.744	1	10
565.934	1	15
567.123	1	4
568.313	1	5
569.502	1	0
570.692	1	6
571.881	1	0
573.070	1	11
574.260	1	4
575.449	1	-6
576.638	1	14
577.827	1	-4
579.016	1	-1
580.205	1	2
581.394	1	5
582.583	1	-2
583.772	1	17
584.961	1	-2
586.150	1	-6
587.339	1	-3
588.528	1	-5
589.717	1	0
590.905	1	-2
592.094	1	19
593.283	1	4
594.471	1	-5
595.660	1	4
596.848	1	-2
598.037	1	-4
599.225	1	-5
600.413	1	0
601.602	1	4
602.790	1	10
603.978	1	2
605.166	1	5
606.355	1	-16
607.543	1	3
608.731	1	-4
609.919	1	-9
611.107	1	8
612.295	1	3
613.483	1	3
614.671	1	6
615.858	1	-11
617.046	1	-1
618.234	1	-5
619.422	1	7
620.609	1	2
621.797	1	1
622.985	1	3
624.172	1	5
625.360	1	6
626.547	1	-12
627.735	1	-1
628.922	1	15
630.109	1	-3
631.297	1	1
632.484	1	10
633.671	1	7
634.858	1	0
636.045	1	2
637.232	1	3
638.419	1	4
639.606	1	4
640.793	1	5
641.980	1	6
643.167	1	10
644.354	1	14
645.541	1	-10
646.728	1	8
647.914	1	1
649.101	1	-2
650.288	1	3
651.474	1	5
652.661	1	5
653.847	1	-1
655.034	1	-5
656.220	1	5
657.406	1	6
658.593	1	19
659.779	1	5
660.965	1	4
662.152	1	0
663.338	1	-2
664.524	1	11
665.710	1	10
666.896	1	-7
668.082	1	3
669.268	1	-9
670.454	1	8
671.640	1	8
672.826	1	-1
674.011	1	9
675.197	1	5
676.383	1	4
677.569	1	14
678.754	1	1
679.940	1	-4
681.125	1	-2
682.311	1	5
683.496	1	2
684.682	1	3
685.867	1	-1
687.053	1	10
688.238	1	13
688.746	1	3

File: GaN_sample D_spot15_UVVIS_150 K_200um_450 ms 2x2mm1_276.txt
340.368	1	4
341.565	1	-4
342.763	1	2
343.960	1	5
345.157	1	8
346.354	1	1
347.552	1	8
348.749	1	5
349.946	1	4
351.143	1	6
352.340	1	12
353.537	1	-4
354.734	1	9
355.931	1	8
357.127	1	5
358.324	1	7
359.521	1	-1
360.718	1	4
361.914	1	7
363.111	1	-3
364.308	1	12
365.504	1	5
366.701	1	10
367.897	1	9
369.093	1	7
370.290	1	15
371.486	1	6
372.682	1	8
373.879	1	5
375.075	1	4
376.271	1	9
377.467	1	12
378.663	1	0
379.859	1	1
381.055	1	6
382.251	1	-6
383.447	1	6
384.643	1	6
385.839	1	1
387.035	1	6
388.230	1	8
389.426	1	-3
390.622	1	-11
391.817	1	-5
393.013	1	8
394.208	1	4
395.404	1	10
396.599	1	-1
397.795	1	-8
398.990	1	9
400.186	1	8
401.381	1	-12
402.576	1	0
403.771	1	-2
404.967	1	0
406.162	1	-3
407.357	1	6
408.552	1	2
409.747	1	3
410.942	1	0
412.137	1	-5
413.332	1	6
414.526	1	-2
415.721	1	10
416.916	1	-9
418.111	1	3
419.305	1	2
420.500	1	2
421.695	1	7
422.889	1	2
424.084	1	-1
425.278	1	-1
426.472	1	7
427.667	1	3
428.861	1	17
430.055	1	14
431.250	1	3
432.444	1	0
433.638	1	13
434.832	1	-3
436.026	1	-3
437.220	1	8
438.414	1	10
439.608	1	-1
440.802	1	8
441.996	1	8
443.190	1	8
444.384	1	11
445.578	1	-6
446.771	1	6
447.965	1	-3
449.159	1	-1
450.352	1	-5
451.546	1	6
452.739	1	-4
453.933	1	-4
455.126	1	0
456.320	1	5
457.513	1	9
458.706	1	6
459.899	1	0
461.093	1	3
462.286	1	-3
463.479	1	-1
464.672	1	5
465.865	1	0
467.058	1	3
468.251	1	-2
469.444	1	-1
470.637	1	-3
471.830	1	-5
473.023	1	8
474.215	1	-4
475.408	1	3
476.601	1	-4
477.793	1	3
478.986	1	9
480.179	1	1
481.371	1	-6
482.564	1	3
483.756	1	-2
484.948	1	4
486.141	1	9
487.333	1	-6
488.525	1	-10
489.718	1	-11
490.910	1	-3
492.102	1	1
493.294	1	4
494.486	1	-4
495.678	1	4
496.870	1	1
498.062	1	1
499.254	1	0
500.446	1	4
501.638	1	1
502.829	1	0
504.021	1	1
505.213	1	2
506.404	1	-5
507.596	1	10
508.788	1	2
509.979	1	6
511.171	1	7
512.362	1	5
513.553	1	6
514.745	1	4
515.936	1	2
517.127	1	9
518.319	1	-4
519.510	1	-11
520.701	1	4
521.892	1	9
523.083	1	2
524.274	1	1
525.465	1	7
526.656	1	7
527.847	1	-2
529.038	1	3
530.229	1	7
531.419	1	6
532.610	1	6
533.801	1	12
534.991	1	0
536.182	1	-2
537.373	1	-12
538.563	1	2
539.754	1	6
540.944	1	-1
542.134	1	-6
543.325	1	16
544.515	1	9
545.705	1	5
546.896	1	3
548.086	1	2
549.276	1	1
550.466	1	1
551.656	1	9
552.846	1	0
554.036	1	7
555.226	1	3
556.416	1	1
557.606	1	-2
558.796	1	7
559.986	1	4
561.175	1	-4
562.365	1	-2
563.555	1	8
564.744	1	2
565.934	1	16
567.123	1	-3
568.313	1	2
569.502	1	5
570.692	1	2
571.881	1	-4
573.070	1	3
574.260	1	1
575.449	1	2
576.638	1	16
577.827	1	-2
579.016	1	0
580.205	1	6
581.394	1	7
582.583	1	-3
583.772	1	8
584.961	1	-8
586.150	1	8
587.339	1	2
588.528	1	-1
589.717	1	-1
590.905	1	-3
592.094	1	11
593.283	1	7
594.471	1	-5
595.660	1	5
596.848	1	-1
598.037	1	8
599.225	1	2
600.413	1	-4
601.602	1	15
602.790	1	3
603.978	1	1
605.166	1	-5
606.355	1	-16
607.543	1	0
608.731	1	-10
609.919	1	-12
611.107	1	5
612.295	1	9
613.483	1	3
614.671	1	8
615.858	1	-9
617.046	1	5
618.234	1	-6
619.422	1	8
620.609	1	1
621.797	1	7
622.985	1	-5
624.172	1	3
625.360	1	0
626.547	1	-4
627.735	1	-1
628.922	1	11
630.109	1	-6
631.297	1	3
632.484	1	5
633.671	1	12
634.858	1	3
636.045	1	-4
637.232	1	-4
638.419	1	0
639.606	1	3
640.793	1	4
641.980	1	5
643.167	1	5
644.354	1	5
645.541	1	7
646.728	1	2
647.914	1	3
649.101	1	0
650.288	1	1
651.474	1	4
652.661	1	8
653.847	1	3
655.034	1	3
656.220	1	2
657.406	1	6
658.593	1	7
659.779	1	11
660.965	1	8
662.152	1	-3
663.338	1	-2
664.524	1	7
665.710	1	0
666.896	1	4
668.082	1	-2
669.268	1	-2
670.454	1	0
671.640	1	5
672.826	1	3
674.011	1	9
675.197	1	-6
676.383	1	-4
677.569	1	13
678.754	1	4
679.940	1	-9
681.125	1	-1
682.311	1	0
683.496	1	8
684.682	1	5
685.867	1	-1
687.053	1	12
688.238	1	11
688.746	1	-2

File: GaN_sample D_spot15_UVVIS_150 K_200um_450 ms 2x2mm1_278.txt
340.368	1	5
341.565	1	4
342.763	1	2
343.960	1	10
345.157	1	10
346.354	1	6
347.552	1	16
348.749	1	12
349.946	1	2
351.143	1	15
352.340	1	1
353.537	1	-9
354.734	1	6
355.931	1	2
357.127	1	12
358.324	1	-1
359.521	1	17
360.718	1	8
361.914	1	10
363.111	1	7
364.308	1	7
365.504	1	-4
366.701	1	2
367.897	1	12
369.093	1	17
370.290	1	15
371.486	1	15
372.682	1	10
373.879	1	11
375.075	1	-5
376.271	1	4
377.467	1	7
378.663	1	5
379.859	1	7
381.055	1	3
382.251	1	-11
383.447	1	7
384.643	1	5
385.839	1	2
387.035	1	4
388.230	1	8
389.426	1	0
390.622	1	-3
391.817	1	-8
393.013	1	0
394.208	1	0
395.404	1	0
396.599	1	7
397.795	1	-3
398.990	1	5
400.186	1	9
401.381	1	-6
402.576	1	3
403.771	1	-5
404.967	1	1
406.162	1	-4
407.357	1	5
408.552	1	-5
409.747	1	-6
410.942	1	9
412.137	1	-7
413.332	1	3
414.526	1	-14
415.721	1	7
416.916	1	-1
418.111	1	-1
419.305	1	2
420.500	1	3
421.695	1	11
422.889	1	8
424.084	1	11
425.278	1	4
426.472	1	9
427.667	1	-10
428.861	1	17
430.055	1	6
431.250	1	5
432.444	1	-3
433.638	1	6
434.832	1	-3
436.026	1	-10
437.220	1	11
438.414	1	1
439.608	1	-5
440.802	1	5
441.996	1	-1
443.190	1	0
444.384	1	6
445.578	1	-6
446.771	1	6
447.965	1	-1
449.159	1	-5
450.352	1	-4
451.546	1	4
452.739	1	8
453.933	1	3
455.126	1	-3
456.320	1	8
457.513	1	1
458.706	1	5
459.899	1	2
461.093	1	-1
462.286	1	-2
463.479	1	-4
464.672	1	0
465.865	1	6
467.058	1	13
468.251	1	-4
469.444	1	13
470.637	1	-4
471.830	1	1
473.023	1	7
474.215	1	-1
475.408	1	1
476.601	1	8
477.793	1	5
478.986	1	15
480.179	1	6
481.371	1	3
482.564	1	1
483.756	1	10
484.948	1	9
486.141	1	17
487.333	1	1
488.525	1	-6
489.718	1	-11
490.910	1	10
492.102	1	10
493.294	1	-6
494.486	1	-4
495.678	1	0
496.870	1	4
498.062	1	-5
499.254	1	0
500.446	1	6
501.638	1	-1
502.829	1	2
504.021	1	-2
505.213	1	-1
506.404	1	-2
507.596	1	10
508.788	1	4
509.979	1	2
511.171	1	13
512.362	1	11
513.553	1	8
514.745	1	-4
515.936	1	-7
517.127	1	6
518.319	1	-5
519.510	1	-4
520.701	1	9
521.892	1	-3
523.083	1	2
524.274	1	7
525.465	1	7
526.656	1	11
527.847	1	-1
529.038	1	3
530.229	1	-2
531.419	1	8
532.610	1	3
533.801	1	4
534.991	1	-5
536.182	1	4
537.373	1	11
538.563	1	-5
539.754	1	3
540.944	1	2
542.134	1	5
543.325	1	10
544.515	1	1
545.705	1	7
546.896	1	4
548.086	1	3
549.276	1	6
550.466	1	-2
551.656	1	4
552.846	1	2
554.036	1	14
555.226	1	8
556.416	1	15
557.606	1	2
558.796	1	7
559.986	1	5
561.175	1	-2
562.365	1	0
563.555	1	8
564.744	1	13
565.934	1	8
567.123	1	-3
568.313	1	5
569.502	1	6
570.692	1	1
571.881	1	-5
573.070	1	7
574.260	1	9
575.449	1	-1
576.638	1	5
577.827	1	1
579.016	1	2
580.205	1	6
581.394	1	-6
582.583	1	4
583.772	1	7
584.961	1	-4
586.150	1	0
587.339	1	4
588.528	1	-2
589.717	1	4
590.905	1	-3
592.094	1	7
593.283	1	1
594.471	1	2
595.660	1	6
596.848	1	8
598.037	1	2
599.225	1	-8
600.413	1	-4
601.602	1	-2
602.790	1	5
603.978	1	5
605.166	1	3
606.355	1	-11
607.543	1	2
608.731	1	-6
609.919	1	10
611.107	1	11
612.295	1	5
613.483	1	7
614.671	1	4
615.858	1	-5
617.046	1	2
618.234	1	4
619.422	1	12
620.609	1	-5
621.797	1	-1
622.985	1	7
624.172	1	8
625.360	1	-2
626.547	1	-2
627.735	1	10
628.922	1	9
630.109	1	-2
631.297	1	4
632.484	1	14
633.671	1	7
634.858	1	3
636.045	1	-4
637.232	1	5
638.419	1	-7
639.606	1	14
640.793	1	-3
641.980	1	14
643.167	1	9
644.354	1	3
645.541	1	-3
646.728	1	-5
647.914	1	5
649.101	1	1
650.288	1	-2
651.474	1	9
652.661	1	4
653.847	1	2
655.034	1	-1
656.220	1	4
657.406	1	-3
658.593	1	3
659.779	1	9
660.965	1	4
662.152	1	0
663.338	1	-9
664.524	1	10
665.710	1	2
666.896	1	0
668.082	1	2
669.268	1	-1
670.454	1	10
671.640	1	6
672.826	1	-2
674.011	1	1
675.197	1	1
676.383	1	-1
677.569	1	13
678.754	1	4
679.940	1	-4
681.125	1	-6
682.311	1	11
683.496	1	0
684.682	1	-2
685.867	1	-6
687.053	1	17
688.238	1	8
688.746	1	4

File: GaN_sample D_spot15_UVVIS_150 K_200um_450 ms 2x2mm1_279.txt
340.368	1	2
341.565	1	11
342.763	1	4
343.960	1	5
345.157	1	9
346.354	1	-1
347.552	1	7
348.749	1	11
349.946	1	10
351.143	1	4
352.340	1	3
353.537	1	-10
354.734	1	4
355.931	1	8
357.127	1	7
358.324	1	13
359.521	1	6
360.718	1	4
361.914	1	11
363.111	1	0
364.308	1	14
365.504	1	4
366.701	1	13
367.897	1	8
369.093	1	15
370.290	1	16
371.486	1	7
372.682	1	13
373.879	1	1
375.075	1	-6
376.271	1	-2
377.467	1	11
378.663	1	9
379.859	1	0
381.055	1	-4
382.251	1	1
383.447	1	8
384.643	1	3
385.839	1	8
387.035	1	4
388.230	1	-2
389.426	1	4
390.622	1	1
391.817	1	-13
393.013	1	8
394.208	1	-1
395.404	1	14
396.599	1	1
397.795	1	6
398.990	1	6
400.186	1	-5
401.381	1	2
402.576	1	7
403.771	1	-9
404.967	1	-1
406.162	1	-8
407.357	1	12
408.552	1	-10
409.747	1	0
410.942	1	11
412.137	1	0
413.332	1	-1
414.526	1	-3
415.721	1	5
416.916	1	3
418.111	1	4
419.305	1	14
420.500	1	-3
421.695	1	10
422.889	1	5
424.084	1	5
425.278	1	4
426.472	1	8
427.667	1	4
428.861	1	10
430.055	1	5
431.250	1	-2
432.444	1	11
433.638	1	8
434.832	1	2
436.026	1	1
437.220	1	11
438.414	1	12
439.608	1	-5
440.802	1	3
441.996	1	4
443.190	1	-2
444.384	1	6
445.578	1	3
446.771	1	-1
447.965	1	1
449.159	1	5
450.352	1	11
451.546	1	0
452.739	1	-2
453.933	1	-1
455.126	1	2
456.320	1	0
457.513	1	-2
458.706	1	11
459.899	1	-6
461.093	1	9
462.286	1	-3
463.479	1	8
464.672	1	5
465.865	1	3
467.058	1	10
468.251	1	-2
469.444	1	-2
470.637	1	4
471.830	1	4
473.023	1	-1
474.215	1	5
475.408	1	5
476.601	1	-2
477.793	1	-1
478.986	1	5
480.179	1	11
481.371	1	-6
482.564	1	11
483.756	1	5
484.948	1	4
486.141	1	8
487.333	1	-8
488.525	1	-4
489.718	1	-11
490.910	1	-4
492.102	1	7
493.294	1	-7
494.486	1	4
495.678	1	-1
496.870	1	4
498.062	1	1
499.254	1	-4
500.446	1	-7
501.638	1	3
502.829	1	9
504.021	1	6
505.213	1	-4
506.404	1	1
507.596	1	4
508.788	1	4
509.979	1	-8
511.171	1	10
512.362	1	17
513.553	1	17
514.745	1	-1
515.936	1	-4
517.127	1	13
518.319	1	2
519.510	1	-1
520.701	1	9
521.892	1	9
523.083	1	0
524.274	1	8
525.465	1	9
526.656	1	-4
527.847	1	-6
529.038	1	8
530.229	1	7
531.419	1	-1
532.610	1	1
533.801	1	8
534.991	1	2
536.182	1	7
537.373	1	10
538.563	1	6
539.754	1	5
540.944	1	6
542.134	1	12
543.325	1	5
544.515	1	11
545.705	1	7
546.896	1	1
548.086	1	10
549.276	1	-5
550.466	1	1
551.656	1	-1
552.846	1	10
554.036	1	7
555.226	1	3
556.416	1	9
557.606	1	-1
558.796	1	7
559.986	1	3
561.175	1	-6
562.365	1	-1
563.555	1	9
564.744	1	13
565.934	1	9
567.123	1	-7
568.313	1	4
569.502	1	10
570.692	1	8
571.881	1	-5
573.070	1	6
574.260	1	1
575.449	1	-3
576.638	1	4
577.827	1	-6
579.016	1	-1
580.205	1	8
581.394	1	2
582.583	1	-2
583.772	1	9
584.961	1	0
586.150	1	9
587.339	1	-1
588.528	1	-9
589.717	1	4
590.905	1	-5
592.094	1	9
593.283	1	0
594.471	1	-7
595.660	1	10
596.848	1	3
598.037	1	-1
599.225	1	4
600.413	1	-2
601.602	1	13
602.790	1	9
603.978	1	5
605.166	1	2
606.355	1	-3
607.543	1	8
608.731	1	-13
609.919	1	-9
611.107	1	9
612.295	1	7
613.483	1	-4
614.671	1	9
615.858	1	-2
617.046	1	-1
618.234	1	-10
619.422	1	15
620.609	1	-6
621.797	1	4
622.985	1	-2
624.172	1	10
625.360	1	2
626.547	1	-7
627.735	1	6
628.922	1	9
630.109	1	-4
631.297	1	0
632.484	1	7
633.671	1	5
634.858	1	1
636.045	1	-6
637.232	1	1
638.419	1	-8
639.606	1	6
640.793	1	-1
641.980	1	8
643.167	1	6
644.354	1	5
645.541	1	-9
646.728	1	11
647.914	1	6
649.101	1	-10
650.288	1	7
651.474	1	3
652.661	1	1
653.847	1	5
655.034	1	0
656.220	1	1
657.406	1	-4
658.593	1	8
659.779	1	9
660.965	1	8
662.152	1	2
663.338	1	-5
664.524	1	13
665.710	1	8
666.896	1	0
668.082	1	-1
669.268	1	-12
670.454	1	2
671.640	1	4
672.826	1	3
674.011	1	7
675.197	1	5
676.383	1	5
677.569	1	13
678.754	1	-4
679.940	1	-7
681.125	1	0
682.311	1	1
683.496	1	0
684.682	1	22
685.867	1	4
687.053	1	20
688.238	1	10
688.746	1	-6

File: GaN_sample D_spot15_UVVIS_150 K_200um_450 ms 2x2mm1_280.txt
340.368	1	4
341.565	1	6
342.763	1	-1
343.960	1	4
345.157	1	14
346.354	1	6
347.552	1	17
348.749	1	10
349.946	1	2
351.143	1	-5
352.340	1	5
353.537	1	7
354.734	1	6
355.931	1	6
357.127	1	12
358.324	1	5
359.521	1	16
360.718	1	9
361.914	1	12
363.111	1	6
364.308	1	7
365.504	1	3
366.701	1	10
367.897	1	7
369.093	1	12
370.290	1	14
371.486	1	11
372.682	1	13
373.879	1	12
375.075	1	-6
376.271	1	-1
377.467	1	15
378.663	1	7
379.859	1	2
381.055	1	-6
382.251	1	-9
383.447	1	4
384.643	1	6
385.839	1	5
387.035	1	2
388.230	1	7
389.426	1	-5
390.622	1	1
391.817	1	-7
393.013	1	8
394.208	1	-10
395.404	1	4
396.599	1	6
397.795	1	2
398.990	1	12
400.186	1	7
401.381	1	0
402.576	1	0
403.771	1	-11
404.967	1	3
406.162	1	-6
407.357	1	3
408.552	1	-1
409.747	1	-4
410.942	1	8
412.137	1	-4
413.332	1	5
414.526	1	-4
415.721	1	-2
416.916	1	2
418.111	1	6
419.305	1	6
420.500	1	5
421.695	1	11
422.889	1	0
424.084	1	3
425.278	1	7
426.472	1	5
427.667	1	4
428.861	1	1
430.055	1	6
431.250	1	-1
432.444	1	11
433.638	1	11
434.832	1	0
436.026	1	-7
437.220	1	9
438.414	1	10
439.608	1	-9
440.802	1	4
441.996	1	1
443.190	1	7
444.384	1	5
445.578	1	-10
446.771	1	0
447.965	1	2
449.159	1	-3
450.352	1	-5
451.546	1	9
452.739	1	8
453.933	1	-5
455.126	1	2
456.320	1	9
457.513	1	-5
458.706	1	16
459.899	1	4
461.093	1	-1
462.286	1	2
463.479	1	1
464.672	1	1
465.865	1	0
467.058	1	5
468.251	1	-10
469.444	1	1
470.637	1	3
471.830	1	1
473.023	1	9
474.215	1	1
475.408	1	6
476.601	1	5
477.793	1	-4
478.986	1	7
480.179	1	4
481.371	1	-7
482.564	1	4
483.756	1	10
484.948	1	4
486.141	1	8
487.333	1	0
488.525	1	0
489.718	1	-2
490.910	1	4
492.102	1	2
493.294	1	-6
494.486	1	-3
495.678	1	-5
496.870	1	10
498.062	1	0
499.254	1	-7
500.446	1	-3
501.638	1	-3
502.829	1	-5
504.021	1	0
505.213	1	-7
506.404	1	1
507.596	1	10
508.788	1	4
509.979	1	-14
511.171	1	5
512.362	1	3
513.553	1	-2
514.745	1	-1
515.936	1	6
517.127	1	9
518.319	1	6
519.510	1	-4
520.701	1	9
521.892	1	8
523.083	1	8
524.274	1	-2
525.465	1	12
526.656	1	9
527.847	1	-11
529.038	1	5
530.229	1	9
531.419	1	6
532.610	1	8
533.801	1	1
534.991	1	6
536.182	1	6
537.373	1	3
538.563	1	-1
539.754	1	2
540.944	1	2
542.134	1	1
543.325	1	2
544.515	1	0
545.705	1	4
546.896	1	9
548.086	1	4
549.276	1	3
550.466	1	0
551.656	1	-1
552.846	1	6
554.036	1	1
555.226	1	6
556.416	1	6
557.606	1	-9
558.796	1	6
559.986	1	13
561.175	1	-7
562.365	1	-2
563.555	1	9
564.744	1	2
565.934	1	14
567.123	1	1
568.313	1	-8
569.502	1	7
570.692	1	2
571.881	1	-4
573.070	1	3
574.260	1	-1
575.449	1	4
576.638	1	14
577.827	1	-1
579.016	1	-3
580.205	1	7
581.394	1	2
582.583	1	1
583.772	1	16
584.961	1	-2
586.150	1	-1
587.339	1	4
588.528	1	-2
589.717	1	5
590.905	1	-4
592.094	1	5
593.283	1	6
594.471	1	-17
595.660	1	3
596.848	1	13
598.037	1	4
599.225	1	2
600.413	1	4
601.602	1	5
602.790	1	7
603.978	1	2
605.166	1	-3
606.355	1	-9
607.543	1	9
608.731	1	-7
609.919	1	0
611.107	1	13
612.295	1	10
613.483	1	5
614.671	1	-2
615.858	1	-1
617.046	1	-11
618.234	1	-3
619.422	1	17
620.609	1	-5
621.797	1	6
622.985	1	9
624.172	1	7
625.360	1	5
626.547	1	-1
627.735	1	3
628.922	1	16
630.109	1	-7
631.297	1	10
632.484	1	8
633.671	1	8
634.858	1	3
636.045	1	0
637.232	1	4
638.419	1	-6
639.606	1	8
640.793	1	-5
641.980	1	10
643.167	1	-4
644.354	1	3
645.541	1	4
646.728	1	3
647.914	1	3
649.101	1	-4
650.288	1	17
651.474	1	3
652.661	1	4
653.847	1	4
655.034	1	-4
656.220	1	12
657.406	1	-4
658.593	1	7
659.779	1	6
660.965	1	0
662.152	1	-4
663.338	1	-5
664.524	1	5
665.710	1	13
666.896	1	11
668.082	1	4
669.268	1	-3
670.454	1	3
671.640	1	1
672.826	1	-1
674.011	1	2
675.197	1	10
676.383	1	-1
677.569	1	8
678.754	1	-1
679.940	1	-5
681.125	1	3
682.311	1	5
683.496	1	-11
684.682	1	5
685.867	1	2
687.053	1	16
688.238	1	8
688.746	1	1

File: GaN_sample D_spot15_UVVIS_150 K_200um_450 ms 2x2mm1_282.txt
340.368	1	2
341.565	1	4
342.763	1	4
343.960	1	10
345.157	1	15
346.354	1	2
347.552	1	11
348.749	1	12
349.946	1	-1
351.143	1	5
352.340	1	12
353.537	1	-5
354.734	1	4
355.931	1	2
357.127	1	-1
358.324	1	13
359.521	1	12
360.718	1	4
361.914	1	8
363.111	1	1
364.308	1	1
365.504	1	2
366.701	1	4
367.897	1	17
369.093	1	12
370.290	1	10
371.486	1	12
372.682	1	12
373.879	1	4
375.075	1	-3
376.271	1	5
377.467	1	16
378.663	1	13
379.859	1	5
381.055	1	-3
382.251	1	-6
383.447	1	0
384.643	1	10
385.839	1	8
387.035	1	8
388.230	1	4
389.426	1	2
390.622	1	-11
391.817	1	-6
393.013	1	14
394.208	1	-1
395.404	1	0
396.599	1	7
397.795	1	2
398.990	1	15
400.186	1	2
401.381	1	-2
402.576	1	-6
403.771	1	-13
404.967	1	5
406.162	1	-6
407.357	1	1
408.552	1	-6
409.747	1	5
410.942	1	4
412.137	1	-2
413.332	1	11
414.526	1	-3
415.721	1	11
416.916	1	0
418.111	1	5
419.305	1	4
420.500	1	-2
421.695	1	6
422.889	1	12
424.084	1	2
425.278	1	10
426.472	1	14
427.667	1	-2
428.861	1	12
430.055	1	6
431.250	1	5
432.444	1	8
433.638	1	11
434.832	1	-2
436.026	1	-1
437.220	1	11
438.414	1	10
439.608	1	-6
440.802	1	-4
441.996	1	-8
443.190	1	2
444.384	1	-1
445.578	1	-8
446.771	1	7
447.965	1	7
449.159	1	-5
450.352	1	2
451.546	1	-7
452.739	1	-1
453.933	1	5
455.126	1	3
456.320	1	13
457.513	1	-3
458.706	1	7
459.899	1	2
461.093	1	6
462.286	1	-6
463.479	1	-8
464.672	1	6
465.865	1	3
467.058	1	7
468.251	1	1
469.444	1	1
470.637	1	5
471.830	1	-5
473.023	1	11
474.215	1	0
475.408	1	4
476.601	1	2
477.793	1	6
478.986	1	5
480.179	1	10
481.371	1	-11
482.564	1	8
483.756	1	-4
484.948	1	6
486.141	1	7
487.333	1	-3
488.525	1	-3
489.718	1	-1
490.910	1	8
492.102	1	-2
493.294	1	-11
494.486	1	-3
495.678	1	-1
496.870	1	4
498.062	1	2
499.254	1	-9
500.446	1	-4
501.638	1	3
502.829	1	4
504.021	1	-4
505.213	1	-6
506.404	1	4
507.596	1	15
508.788	1	7
509.979	1	4
511.171	1	4
512.362	1	8
513.553	1	-3
514.745	1	1
515.936	1	8
517.127	1	6
518.319	1	0
519.510	1	-6
520.701	1	0
521.892	1	0
523.083	1	-1
524.274	1	6
525.465	1	11
526.656	1	1
527.847	1	-7
529.038	1	2
530.229	1	1
531.419	1	4
532.610	1	3
533.801	1	-2
534.991	1	-4
536.182	1	-2
537.373	1	4
538.563	1	0
539.754	1	5
540.944	1	5
542.134	1	4
543.325	1	10
544.515	1	0
545.705	1	9
546.896	1	9
548.086	1	2
549.276	1	11
550.466	1	0
551.656	1	-4
552.846	1	4
554.036	1	9
555.226	1	-5
556.416	1	8
557.606	1	-3
558.796	1	2
559.986	1	4
561.175	1	2
562.365	1	-7
563.555	1	5
564.744	1	5
565.934	1	12
567.123	1	0
568.313	1	7
569.502	1	-5
570.692	1	-2
571.881	1	4
573.070	1	11
574.260	1	-2
575.449	1	-10
576.638	1	7
577.827	1	0
579.016	1	3
580.205	1	-3
581.394	1	10
582.583	1	-1
583.772	1	4
584.961	1	-1
586.150	1	7
587.339	1	3
588.528	1	-12
589.717	1	3
590.905	1	-3
592.094	1	4
593.283	1	6
594.471	1	-4
595.660	1	2
596.848	1	2
598.037	1	-4
599.225	1	9
600.413	1	-1
601.602	1	5
602.790	1	8
603.978	1	-2
605.166	1	3
606.355	1	-12
607.543	1	3
608.731	1	0
609.919	1	-6
611.107	1	9
612.295	1	3
613.483	1	1
614.671	1	-5
615.858	1	-3
617.046	1	2
618.234	1	-11
619.422	1	12
620.609	1	-3
621.797	1	-6
622.985	1	-7
624.172	1	3
625.360	1	4
626.547	1	4
627.735	1	-1
628.922	1	5
630.109	1	-16
631.297	1	3
632.484	1	-2
633.671	1	12
634.858	1	5
636.045	1	-14
637.232	1	7
638.419	1	-5
639.606	1	10
640.793	1	-1
641.980	1	3
643.167	1	5
644.354	1	1
645.541	1	7
646.728	1	2
647.914	1	4
649.101	1	2
650.288	1	4
651.474	1	3
652.661	1	0
653.847	1	6
655.034	1	6
656.220	1	2
657.406	1	-10
658.593	1	4
659.779	1	2
660.965	1	-1
662.152	1	4
663.338	1	-2
664.524	1	1
665.710	1	-2
666.896	1	6
668.082	1	-6
669.268	1	-2
670.454	1	10
671.640	1	8
672.826	1	1
674.011	1	1
675.197	1	12
676.383	1	-4
677.569	1	7
678.754	1	-11
679.940	1	-13
681.125	1	0
682.311	1	-6
683.496	1	3
684.682	1	6
685.867	1	8
687.053	1	11
688.238	1	3
688.746	1	-4