Folder: cryo-il_analysis/Data/GaN_200K_800ms (part 13)

File: GaN_sample F_spot 12_UVVIS_200 K_200um_800 ms 2x2mm1_91.txt
340.368	1	3
341.565	1	-12
342.763	1	2
343.960	1	2
345.157	1	-3
346.354	1	-6
347.552	1	0
348.749	1	-11
349.946	1	1
351.143	1	5
352.340	1	8
353.537	1	4
354.734	1	10
355.931	1	10
357.127	1	14
358.324	1	8
359.521	1	22
360.718	1	32
361.914	1	30
363.111	1	44
364.308	1	54
365.504	1	64
366.701	1	93
367.897	1	107
369.093	1	100
370.290	1	124
371.486	1	115
372.682	1	92
373.879	1	78
375.075	1	68
376.271	1	70
377.467	1	57
378.663	1	46
379.859	1	43
381.055	1	39
382.251	1	19
383.447	1	31
384.643	1	30
385.839	1	20
387.035	1	21
388.230	1	22
389.426	1	8
390.622	1	4
391.817	1	7
393.013	1	16
394.208	1	3
395.404	1	6
396.599	1	7
397.795	1	2
398.990	1	8
400.186	1	12
401.381	1	0
402.576	1	5
403.771	1	6
404.967	1	5
406.162	1	11
407.357	1	-3
408.552	1	0
409.747	1	9
410.942	1	11
412.137	1	13
413.332	1	9
414.526	1	2
415.721	1	7
416.916	1	0
418.111	1	0
419.305	1	6
420.500	1	-9
421.695	1	4
422.889	1	-7
424.084	1	0
425.278	1	18
426.472	1	-3
427.667	1	10
428.861	1	-7
430.055	1	5
431.250	1	4
432.444	1	11
433.638	1	-4
434.832	1	7
436.026	1	7
437.220	1	7
438.414	1	0
439.608	1	-12
440.802	1	4
441.996	1	3
443.190	1	4
444.384	1	0
445.578	1	-6
446.771	1	18
447.965	1	-2
449.159	1	2
450.352	1	5
451.546	1	-1
452.739	1	2
453.933	1	3
455.126	1	-4
456.320	1	0
457.513	1	14
458.706	1	9
459.899	1	6
461.093	1	2
462.286	1	5
463.479	1	-5
464.672	1	-5
465.865	1	5
467.058	1	6
468.251	1	-3
469.444	1	1
470.637	1	-2
471.830	1	0
473.023	1	2
474.215	1	17
475.408	1	6
476.601	1	-1
477.793	1	0
478.986	1	-3
480.179	1	3
481.371	1	5
482.564	1	1
483.756	1	9
484.948	1	-9
486.141	1	-3
487.333	1	4
488.525	1	1
489.718	1	9
490.910	1	5
492.102	1	6
493.294	1	0
494.486	1	12
495.678	1	12
496.870	1	3
498.062	1	4
499.254	1	10
500.446	1	-7
501.638	1	6
502.829	1	8
504.021	1	7
505.213	1	17
506.404	1	-1
507.596	1	11
508.788	1	17
509.979	1	-2
511.171	1	-3
512.362	1	5
513.553	1	-3
514.745	1	6
515.936	1	7
517.127	1	9
518.319	1	11
519.510	1	10
520.701	1	7
521.892	1	11
523.083	1	8
524.274	1	12
525.465	1	18
526.656	1	12
527.847	1	9
529.038	1	12
530.229	1	16
531.419	1	5
532.610	1	10
533.801	1	27
534.991	1	14
536.182	1	3
537.373	1	17
538.563	1	16
539.754	1	14
540.944	1	7
542.134	1	20
543.325	1	13
544.515	1	8
545.705	1	9
546.896	1	9
548.086	1	6
549.276	1	9
550.466	1	22
551.656	1	15
552.846	1	12
554.036	1	17
555.226	1	8
556.416	1	11
557.606	1	16
558.796	1	23
559.986	1	13
561.175	1	11
562.365	1	14
563.555	1	9
564.744	1	9
565.934	1	20
567.123	1	12
568.313	1	26
569.502	1	8
570.692	1	23
571.881	1	20
573.070	1	9
574.260	1	15
575.449	1	5
576.638	1	5
577.827	1	10
579.016	1	19
580.205	1	0
581.394	1	11
582.583	1	22
583.772	1	16
584.961	1	11
586.150	1	5
587.339	1	13
588.528	1	18
589.717	1	11
590.905	1	8
592.094	1	16
593.283	1	13
594.471	1	19
595.660	1	-1
596.848	1	8
598.037	1	10
599.225	1	5
600.413	1	17
601.602	1	24
602.790	1	12
603.978	1	8
605.166	1	26
606.355	1	13
607.543	1	3
608.731	1	8
609.919	1	20
611.107	1	9
612.295	1	7
613.483	1	12
614.671	1	16
615.858	1	-1
617.046	1	13
618.234	1	9
619.422	1	-2
620.609	1	11
621.797	1	7
622.985	1	8
624.172	1	9
625.360	1	4
626.547	1	16
627.735	1	4
628.922	1	1
630.109	1	-3
631.297	1	13
632.484	1	5
633.671	1	1
634.858	1	2
636.045	1	16
637.232	1	-2
638.419	1	3
639.606	1	18
640.793	1	12
641.980	1	16
643.167	1	4
644.354	1	12
645.541	1	4
646.728	1	11
647.914	1	3
649.101	1	2
650.288	1	6
651.474	1	-1
652.661	1	0
653.847	1	10
655.034	1	9
656.220	1	1
657.406	1	10
658.593	1	11
659.779	1	10
660.965	1	4
662.152	1	1
663.338	1	1
664.524	1	8
665.710	1	1
666.896	1	-6
668.082	1	6
669.268	1	6
670.454	1	10
671.640	1	9
672.826	1	1
674.011	1	-2
675.197	1	5
676.383	1	17
677.569	1	8
678.754	1	10
679.940	1	4
681.125	1	5
682.311	1	12
683.496	1	1
684.682	1	-2
685.867	1	1
687.053	1	2
688.238	1	4
688.746	1	3

File: GaN_sample F_spot 12_UVVIS_200 K_200um_800 ms 2x2mm1_92.txt
340.368	1	4
341.565	1	-2
342.763	1	2
343.960	1	5
345.157	1	-3
346.354	1	5
347.552	1	1
348.749	1	-8
349.946	1	0
351.143	1	10
352.340	1	4
353.537	1	5
354.734	1	9
355.931	1	4
357.127	1	10
358.324	1	17
359.521	1	14
360.718	1	23
361.914	1	41
363.111	1	31
364.308	1	55
365.504	1	72
366.701	1	79
367.897	1	91
369.093	1	107
370.290	1	112
371.486	1	106
372.682	1	103
373.879	1	67
375.075	1	69
376.271	1	70
377.467	1	50
378.663	1	37
379.859	1	32
381.055	1	37
382.251	1	28
383.447	1	26
384.643	1	26
385.839	1	13
387.035	1	15
388.230	1	26
389.426	1	7
390.622	1	7
391.817	1	15
393.013	1	-4
394.208	1	11
395.404	1	7
396.599	1	3
397.795	1	5
398.990	1	9
400.186	1	6
401.381	1	-2
402.576	1	0
403.771	1	10
404.967	1	9
406.162	1	3
407.357	1	2
408.552	1	-1
409.747	1	-2
410.942	1	13
412.137	1	5
413.332	1	1
414.526	1	8
415.721	1	7
416.916	1	-3
418.111	1	12
419.305	1	8
420.500	1	0
421.695	1	-3
422.889	1	-3
424.084	1	7
425.278	1	6
426.472	1	5
427.667	1	7
428.861	1	2
430.055	1	8
431.250	1	-3
432.444	1	14
433.638	1	6
434.832	1	11
436.026	1	11
437.220	1	5
438.414	1	-4
439.608	1	-5
440.802	1	0
441.996	1	8
443.190	1	3
444.384	1	-8
445.578	1	-2
446.771	1	4
447.965	1	2
449.159	1	4
450.352	1	2
451.546	1	-2
452.739	1	3
453.933	1	1
455.126	1	-2
456.320	1	2
457.513	1	12
458.706	1	2
459.899	1	0
461.093	1	7
462.286	1	0
463.479	1	-3
464.672	1	-4
465.865	1	-2
467.058	1	1
468.251	1	5
469.444	1	-3
470.637	1	-3
471.830	1	6
473.023	1	1
474.215	1	17
475.408	1	4
476.601	1	6
477.793	1	-4
478.986	1	1
480.179	1	7
481.371	1	4
482.564	1	3
483.756	1	11
484.948	1	-7
486.141	1	5
487.333	1	-1
488.525	1	5
489.718	1	-4
490.910	1	1
492.102	1	-7
493.294	1	2
494.486	1	9
495.678	1	-1
496.870	1	6
498.062	1	2
499.254	1	9
500.446	1	1
501.638	1	1
502.829	1	0
504.021	1	8
505.213	1	5
506.404	1	14
507.596	1	11
508.788	1	19
509.979	1	8
511.171	1	-2
512.362	1	6
513.553	1	-1
514.745	1	3
515.936	1	2
517.127	1	0
518.319	1	5
519.510	1	12
520.701	1	13
521.892	1	9
523.083	1	6
524.274	1	8
525.465	1	13
526.656	1	9
527.847	1	15
529.038	1	10
530.229	1	9
531.419	1	19
532.610	1	-4
533.801	1	21
534.991	1	14
536.182	1	10
537.373	1	19
538.563	1	10
539.754	1	16
540.944	1	6
542.134	1	9
543.325	1	13
544.515	1	5
545.705	1	11
546.896	1	11
548.086	1	9
549.276	1	10
550.466	1	25
551.656	1	15
552.846	1	15
554.036	1	12
555.226	1	9
556.416	1	6
557.606	1	25
558.796	1	8
559.986	1	12
561.175	1	17
562.365	1	17
563.555	1	5
564.744	1	20
565.934	1	17
567.123	1	14
568.313	1	18
569.502	1	8
570.692	1	17
571.881	1	26
573.070	1	7
574.260	1	20
575.449	1	9
576.638	1	4
577.827	1	10
579.016	1	27
580.205	1	12
581.394	1	6
582.583	1	14
583.772	1	21
584.961	1	19
586.150	1	15
587.339	1	11
588.528	1	17
589.717	1	14
590.905	1	20
592.094	1	14
593.283	1	9
594.471	1	21
595.660	1	8
596.848	1	7
598.037	1	7
599.225	1	2
600.413	1	20
601.602	1	14
602.790	1	16
603.978	1	12
605.166	1	21
606.355	1	8
607.543	1	9
608.731	1	7
609.919	1	14
611.107	1	0
612.295	1	5
613.483	1	10
614.671	1	10
615.858	1	18
617.046	1	10
618.234	1	3
619.422	1	5
620.609	1	6
621.797	1	12
622.985	1	8
624.172	1	11
625.360	1	2
626.547	1	10
627.735	1	15
628.922	1	16
630.109	1	-4
631.297	1	3
632.484	1	0
633.671	1	7
634.858	1	3
636.045	1	16
637.232	1	-2
638.419	1	2
639.606	1	11
640.793	1	21
641.980	1	9
643.167	1	4
644.354	1	7
645.541	1	-1
646.728	1	4
647.914	1	5
649.101	1	4
650.288	1	12
651.474	1	-5
652.661	1	2
653.847	1	13
655.034	1	7
656.220	1	5
657.406	1	1
658.593	1	14
659.779	1	1
660.965	1	10
662.152	1	12
663.338	1	6
664.524	1	5
665.710	1	8
666.896	1	4
668.082	1	10
669.268	1	5
670.454	1	0
671.640	1	4
672.826	1	16
674.011	1	1
675.197	1	-4
676.383	1	8
677.569	1	-2
678.754	1	2
679.940	1	-2
681.125	1	12
682.311	1	9
683.496	1	6
684.682	1	-2
685.867	1	8
687.053	1	10
688.238	1	10
688.746	1	0

File: GaN_sample F_spot 12_UVVIS_200 K_200um_800 ms 2x2mm1_93.txt
340.368	1	6
341.565	1	-5
342.763	1	6
343.960	1	-3
345.157	1	-2
346.354	1	7
347.552	1	-2
348.749	1	-6
349.946	1	-1
351.143	1	-8
352.340	1	20
353.537	1	10
354.734	1	8
355.931	1	14
357.127	1	9
358.324	1	13
359.521	1	22
360.718	1	21
361.914	1	34
363.111	1	36
364.308	1	51
365.504	1	73
366.701	1	88
367.897	1	98
369.093	1	108
370.290	1	100
371.486	1	104
372.682	1	100
373.879	1	82
375.075	1	67
376.271	1	71
377.467	1	39
378.663	1	42
379.859	1	37
381.055	1	40
382.251	1	33
383.447	1	23
384.643	1	37
385.839	1	15
387.035	1	17
388.230	1	22
389.426	1	8
390.622	1	16
391.817	1	12
393.013	1	13
394.208	1	12
395.404	1	2
396.599	1	2
397.795	1	13
398.990	1	11
400.186	1	0
401.381	1	7
402.576	1	0
403.771	1	16
404.967	1	-6
406.162	1	12
407.357	1	5
408.552	1	4
409.747	1	1
410.942	1	8
412.137	1	13
413.332	1	5
414.526	1	6
415.721	1	4
416.916	1	-7
418.111	1	1
419.305	1	12
420.500	1	-7
421.695	1	3
422.889	1	0
424.084	1	5
425.278	1	9
426.472	1	3
427.667	1	10
428.861	1	4
430.055	1	6
431.250	1	3
432.444	1	9
433.638	1	-6
434.832	1	8
436.026	1	7
437.220	1	0
438.414	1	-2
439.608	1	-1
440.802	1	5
441.996	1	7
443.190	1	4
444.384	1	0
445.578	1	-1
446.771	1	13
447.965	1	7
449.159	1	-7
450.352	1	1
451.546	1	2
452.739	1	2
453.933	1	2
455.126	1	-9
456.320	1	2
457.513	1	9
458.706	1	7
459.899	1	9
461.093	1	8
462.286	1	1
463.479	1	3
464.672	1	0
465.865	1	-5
467.058	1	3
468.251	1	-4
469.444	1	-5
470.637	1	3
471.830	1	1
473.023	1	-2
474.215	1	4
475.408	1	4
476.601	1	4
477.793	1	-7
478.986	1	4
480.179	1	2
481.371	1	-2
482.564	1	10
483.756	1	14
484.948	1	-7
486.141	1	2
487.333	1	18
488.525	1	-3
489.718	1	-1
490.910	1	12
492.102	1	-5
493.294	1	-2
494.486	1	8
495.678	1	6
496.870	1	6
498.062	1	9
499.254	1	11
500.446	1	0
501.638	1	3
502.829	1	6
504.021	1	10
505.213	1	15
506.404	1	4
507.596	1	6
508.788	1	16
509.979	1	5
511.171	1	3
512.362	1	5
513.553	1	5
514.745	1	6
515.936	1	7
517.127	1	12
518.319	1	5
519.510	1	0
520.701	1	7
521.892	1	4
523.083	1	9
524.274	1	15
525.465	1	22
526.656	1	9
527.847	1	-3
529.038	1	6
530.229	1	10
531.419	1	16
532.610	1	6
533.801	1	22
534.991	1	9
536.182	1	7
537.373	1	17
538.563	1	8
539.754	1	11
540.944	1	14
542.134	1	16
543.325	1	18
544.515	1	16
545.705	1	6
546.896	1	12
548.086	1	13
549.276	1	4
550.466	1	10
551.656	1	12
552.846	1	15
554.036	1	4
555.226	1	9
556.416	1	9
557.606	1	10
558.796	1	21
559.986	1	7
561.175	1	9
562.365	1	9
563.555	1	6
564.744	1	12
565.934	1	19
567.123	1	7
568.313	1	19
569.502	1	6
570.692	1	15
571.881	1	25
573.070	1	17
574.260	1	19
575.449	1	20
576.638	1	10
577.827	1	11
579.016	1	23
580.205	1	9
581.394	1	18
582.583	1	23
583.772	1	15
584.961	1	14
586.150	1	9
587.339	1	18
588.528	1	17
589.717	1	12
590.905	1	12
592.094	1	8
593.283	1	14
594.471	1	26
595.660	1	9
596.848	1	0
598.037	1	0
599.225	1	8
600.413	1	23
601.602	1	19
602.790	1	11
603.978	1	11
605.166	1	20
606.355	1	14
607.543	1	7
608.731	1	16
609.919	1	23
611.107	1	14
612.295	1	10
613.483	1	14
614.671	1	15
615.858	1	7
617.046	1	14
618.234	1	11
619.422	1	-1
620.609	1	22
621.797	1	0
622.985	1	8
624.172	1	6
625.360	1	15
626.547	1	13
627.735	1	16
628.922	1	9
630.109	1	5
631.297	1	12
632.484	1	6
633.671	1	3
634.858	1	4
636.045	1	16
637.232	1	3
638.419	1	6
639.606	1	15
640.793	1	12
641.980	1	13
643.167	1	6
644.354	1	12
645.541	1	10
646.728	1	3
647.914	1	6
649.101	1	11
650.288	1	12
651.474	1	-7
652.661	1	-1
653.847	1	16
655.034	1	11
656.220	1	1
657.406	1	14
658.593	1	5
659.779	1	9
660.965	1	17
662.152	1	6
663.338	1	12
664.524	1	-1
665.710	1	2
666.896	1	-4
668.082	1	4
669.268	1	2
670.454	1	9
671.640	1	15
672.826	1	-3
674.011	1	-5
675.197	1	0
676.383	1	14
677.569	1	3
678.754	1	-3
679.940	1	6
681.125	1	17
682.311	1	13
683.496	1	11
684.682	1	-2
685.867	1	10
687.053	1	5
688.238	1	7
688.746	1	6

File: GaN_sample F_spot 12_UVVIS_200 K_200um_800 ms 2x2mm1_94.txt
340.368	1	1
341.565	1	-6
342.763	1	8
343.960	1	8
345.157	1	-1
346.354	1	5
347.552	1	2
348.749	1	-3
349.946	1	-6
351.143	1	7
352.340	1	15
353.537	1	0
354.734	1	11
355.931	1	7
357.127	1	7
358.324	1	12
359.521	1	24
360.718	1	18
361.914	1	34
363.111	1	29
364.308	1	48
365.504	1	77
366.701	1	79
367.897	1	94
369.093	1	103
370.290	1	111
371.486	1	110
372.682	1	90
373.879	1	76
375.075	1	47
376.271	1	71
377.467	1	44
378.663	1	42
379.859	1	37
381.055	1	44
382.251	1	26
383.447	1	19
384.643	1	26
385.839	1	20
387.035	1	13
388.230	1	15
389.426	1	9
390.622	1	14
391.817	1	11
393.013	1	1
394.208	1	5
395.404	1	1
396.599	1	11
397.795	1	15
398.990	1	6
400.186	1	9
401.381	1	-6
402.576	1	2
403.771	1	2
404.967	1	5
406.162	1	11
407.357	1	-3
408.552	1	3
409.747	1	-2
410.942	1	18
412.137	1	12
413.332	1	9
414.526	1	6
415.721	1	8
416.916	1	-1
418.111	1	1
419.305	1	12
420.500	1	2
421.695	1	-2
422.889	1	0
424.084	1	5
425.278	1	12
426.472	1	2
427.667	1	4
428.861	1	0
430.055	1	5
431.250	1	2
432.444	1	11
433.638	1	4
434.832	1	0
436.026	1	11
437.220	1	16
438.414	1	-10
439.608	1	-2
440.802	1	1
441.996	1	6
443.190	1	5
444.384	1	-9
445.578	1	-3
446.771	1	13
447.965	1	2
449.159	1	-5
450.352	1	-8
451.546	1	1
452.739	1	4
453.933	1	-3
455.126	1	-6
456.320	1	-7
457.513	1	6
458.706	1	3
459.899	1	3
461.093	1	0
462.286	1	6
463.479	1	-3
464.672	1	-1
465.865	1	-1
467.058	1	2
468.251	1	-3
469.444	1	-9
470.637	1	8
471.830	1	-4
473.023	1	-2
474.215	1	9
475.408	1	0
476.601	1	3
477.793	1	6
478.986	1	0
480.179	1	7
481.371	1	11
482.564	1	1
483.756	1	10
484.948	1	-4
486.141	1	-5
487.333	1	10
488.525	1	0
489.718	1	1
490.910	1	3
492.102	1	5
493.294	1	-2
494.486	1	20
495.678	1	11
496.870	1	17
498.062	1	11
499.254	1	4
500.446	1	0
501.638	1	-2
502.829	1	8
504.021	1	8
505.213	1	20
506.404	1	6
507.596	1	4
508.788	1	26
509.979	1	5
511.171	1	2
512.362	1	6
513.553	1	3
514.745	1	6
515.936	1	12
517.127	1	3
518.319	1	12
519.510	1	7
520.701	1	8
521.892	1	8
523.083	1	0
524.274	1	8
525.465	1	17
526.656	1	4
527.847	1	19
529.038	1	15
530.229	1	5
531.419	1	17
532.610	1	5
533.801	1	26
534.991	1	12
536.182	1	6
537.373	1	6
538.563	1	22
539.754	1	17
540.944	1	2
542.134	1	16
543.325	1	19
544.515	1	4
545.705	1	16
546.896	1	18
548.086	1	12
549.276	1	10
550.466	1	24
551.656	1	17
552.846	1	25
554.036	1	13
555.226	1	5
556.416	1	13
557.606	1	7
558.796	1	10
559.986	1	6
561.175	1	21
562.365	1	12
563.555	1	9
564.744	1	16
565.934	1	15
567.123	1	18
568.313	1	28
569.502	1	11
570.692	1	16
571.881	1	24
573.070	1	11
574.260	1	16
575.449	1	6
576.638	1	7
577.827	1	15
579.016	1	30
580.205	1	9
581.394	1	13
582.583	1	23
583.772	1	21
584.961	1	14
586.150	1	10
587.339	1	15
588.528	1	12
589.717	1	14
590.905	1	7
592.094	1	-3
593.283	1	13
594.471	1	22
595.660	1	2
596.848	1	18
598.037	1	12
599.225	1	5
600.413	1	24
601.602	1	14
602.790	1	9
603.978	1	10
605.166	1	9
606.355	1	17
607.543	1	5
608.731	1	10
609.919	1	13
611.107	1	4
612.295	1	6
613.483	1	-1
614.671	1	2
615.858	1	4
617.046	1	14
618.234	1	11
619.422	1	3
620.609	1	16
621.797	1	12
622.985	1	12
624.172	1	10
625.360	1	9
626.547	1	16
627.735	1	18
628.922	1	17
630.109	1	-5
631.297	1	8
632.484	1	9
633.671	1	5
634.858	1	3
636.045	1	22
637.232	1	4
638.419	1	3
639.606	1	8
640.793	1	14
641.980	1	17
643.167	1	7
644.354	1	3
645.541	1	17
646.728	1	8
647.914	1	-2
649.101	1	0
650.288	1	11
651.474	1	4
652.661	1	1
653.847	1	13
655.034	1	6
656.220	1	3
657.406	1	4
658.593	1	6
659.779	1	1
660.965	1	18
662.152	1	7
663.338	1	11
664.524	1	3
665.710	1	8
666.896	1	-5
668.082	1	8
669.268	1	7
670.454	1	5
671.640	1	9
672.826	1	4
674.011	1	2
675.197	1	-12
676.383	1	2
677.569	1	5
678.754	1	4
679.940	1	2
681.125	1	3
682.311	1	5
683.496	1	7
684.682	1	0
685.867	1	0
687.053	1	1
688.238	1	11
688.746	1	16

File: GaN_sample F_spot 12_UVVIS_200 K_200um_800 ms 2x2mm1_95.txt
340.368	1	9
341.565	1	-13
342.763	1	10
343.960	1	7
345.157	1	-7
346.354	1	-2
347.552	1	7
348.749	1	5
349.946	1	0
351.143	1	3
352.340	1	16
353.537	1	-1
354.734	1	7
355.931	1	8
357.127	1	6
358.324	1	8
359.521	1	23
360.718	1	24
361.914	1	29
363.111	1	31
364.308	1	41
365.504	1	75
366.701	1	76
367.897	1	102
369.093	1	95
370.290	1	116
371.486	1	108
372.682	1	88
373.879	1	64
375.075	1	60
376.271	1	68
377.467	1	44
378.663	1	44
379.859	1	37
381.055	1	45
382.251	1	27
383.447	1	18
384.643	1	33
385.839	1	8
387.035	1	17
388.230	1	15
389.426	1	6
390.622	1	4
391.817	1	5
393.013	1	13
394.208	1	7
395.404	1	3
396.599	1	-2
397.795	1	6
398.990	1	4
400.186	1	1
401.381	1	-3
402.576	1	13
403.771	1	2
404.967	1	10
406.162	1	6
407.357	1	-2
408.552	1	5
409.747	1	3
410.942	1	6
412.137	1	6
413.332	1	9
414.526	1	1
415.721	1	11
416.916	1	1
418.111	1	-2
419.305	1	2
420.500	1	9
421.695	1	-3
422.889	1	-12
424.084	1	-2
425.278	1	16
426.472	1	-6
427.667	1	5
428.861	1	3
430.055	1	6
431.250	1	-2
432.444	1	5
433.638	1	7
434.832	1	2
436.026	1	9
437.220	1	1
438.414	1	-8
439.608	1	-4
440.802	1	-2
441.996	1	5
443.190	1	7
444.384	1	-9
445.578	1	-10
446.771	1	17
447.965	1	-4
449.159	1	4
450.352	1	-1
451.546	1	4
452.739	1	1
453.933	1	-3
455.126	1	-4
456.320	1	0
457.513	1	-1
458.706	1	4
459.899	1	4
461.093	1	9
462.286	1	5
463.479	1	3
464.672	1	4
465.865	1	2
467.058	1	-1
468.251	1	4
469.444	1	-1
470.637	1	4
471.830	1	8
473.023	1	8
474.215	1	20
475.408	1	8
476.601	1	-4
477.793	1	-1
478.986	1	-4
480.179	1	2
481.371	1	-4
482.564	1	1
483.756	1	14
484.948	1	-9
486.141	1	-13
487.333	1	9
488.525	1	-1
489.718	1	2
490.910	1	5
492.102	1	2
493.294	1	-4
494.486	1	9
495.678	1	4
496.870	1	6
498.062	1	-5
499.254	1	11
500.446	1	6
501.638	1	1
502.829	1	11
504.021	1	1
505.213	1	13
506.404	1	17
507.596	1	14
508.788	1	23
509.979	1	-5
511.171	1	8
512.362	1	1
513.553	1	-8
514.745	1	13
515.936	1	5
517.127	1	9
518.319	1	6
519.510	1	9
520.701	1	2
521.892	1	9
523.083	1	8
524.274	1	18
525.465	1	11
526.656	1	6
527.847	1	22
529.038	1	14
530.229	1	6
531.419	1	15
532.610	1	7
533.801	1	23
534.991	1	15
536.182	1	11
537.373	1	11
538.563	1	14
539.754	1	25
540.944	1	7
542.134	1	19
543.325	1	3
544.515	1	15
545.705	1	14
546.896	1	17
548.086	1	11
549.276	1	9
550.466	1	17
551.656	1	20
552.846	1	18
554.036	1	9
555.226	1	5
556.416	1	5
557.606	1	24
558.796	1	12
559.986	1	2
561.175	1	13
562.365	1	12
563.555	1	5
564.744	1	25
565.934	1	6
567.123	1	12
568.313	1	19
569.502	1	14
570.692	1	25
571.881	1	28
573.070	1	20
574.260	1	21
575.449	1	12
576.638	1	5
577.827	1	18
579.016	1	17
580.205	1	17
581.394	1	11
582.583	1	23
583.772	1	19
584.961	1	18
586.150	1	0
587.339	1	11
588.528	1	17
589.717	1	10
590.905	1	14
592.094	1	0
593.283	1	10
594.471	1	23
595.660	1	9
596.848	1	21
598.037	1	9
599.225	1	-3
600.413	1	19
601.602	1	17
602.790	1	6
603.978	1	9
605.166	1	11
606.355	1	12
607.543	1	9
608.731	1	9
609.919	1	21
611.107	1	7
612.295	1	-3
613.483	1	19
614.671	1	20
615.858	1	7
617.046	1	16
618.234	1	12
619.422	1	3
620.609	1	11
621.797	1	3
622.985	1	6
624.172	1	9
625.360	1	18
626.547	1	11
627.735	1	6
628.922	1	15
630.109	1	4
631.297	1	0
632.484	1	1
633.671	1	-1
634.858	1	16
636.045	1	20
637.232	1	6
638.419	1	6
639.606	1	13
640.793	1	29
641.980	1	15
643.167	1	7
644.354	1	8
645.541	1	5
646.728	1	4
647.914	1	6
649.101	1	0
650.288	1	6
651.474	1	-1
652.661	1	2
653.847	1	3
655.034	1	8
656.220	1	6
657.406	1	8
658.593	1	11
659.779	1	0
660.965	1	10
662.152	1	1
663.338	1	17
664.524	1	7
665.710	1	-2
666.896	1	6
668.082	1	3
669.268	1	-4
670.454	1	2
671.640	1	6
672.826	1	4
674.011	1	6
675.197	1	1
676.383	1	10
677.569	1	0
678.754	1	11
679.940	1	-2
681.125	1	8
682.311	1	15
683.496	1	8
684.682	1	3
685.867	1	5
687.053	1	4
688.238	1	8
688.746	1	5

File: GaN_sample F_spot 12_UVVIS_200 K_200um_800 ms 2x2mm1_96.txt
340.368	1	4
341.565	1	-11
342.763	1	4
343.960	1	2
345.157	1	-1
346.354	1	-7
347.552	1	0
348.749	1	-3
349.946	1	-4
351.143	1	3
352.340	1	5
353.537	1	-4
354.734	1	14
355.931	1	3
357.127	1	12
358.324	1	7
359.521	1	23
360.718	1	22
361.914	1	39
363.111	1	40
364.308	1	45
365.504	1	67
366.701	1	81
367.897	1	89
369.093	1	99
370.290	1	109
371.486	1	100
372.682	1	92
373.879	1	71
375.075	1	55
376.271	1	61
377.467	1	37
378.663	1	46
379.859	1	32
381.055	1	40
382.251	1	19
383.447	1	17
384.643	1	36
385.839	1	19
387.035	1	25
388.230	1	19
389.426	1	7
390.622	1	13
391.817	1	15
393.013	1	6
394.208	1	10
395.404	1	0
396.599	1	-1
397.795	1	7
398.990	1	6
400.186	1	9
401.381	1	2
402.576	1	-4
403.771	1	8
404.967	1	7
406.162	1	4
407.357	1	6
408.552	1	5
409.747	1	3
410.942	1	19
412.137	1	8
413.332	1	4
414.526	1	8
415.721	1	-3
416.916	1	-2
418.111	1	6
419.305	1	5
420.500	1	-4
421.695	1	-2
422.889	1	-11
424.084	1	-1
425.278	1	13
426.472	1	4
427.667	1	8
428.861	1	0
430.055	1	8
431.250	1	-4
432.444	1	6
433.638	1	5
434.832	1	11
436.026	1	10
437.220	1	3
438.414	1	-2
439.608	1	-12
440.802	1	-8
441.996	1	8
443.190	1	5
444.384	1	-7
445.578	1	-12
446.771	1	7
447.965	1	2
449.159	1	2
450.352	1	-4
451.546	1	0
452.739	1	4
453.933	1	3
455.126	1	-6
456.320	1	3
457.513	1	3
458.706	1	-6
459.899	1	5
461.093	1	4
462.286	1	7
463.479	1	7
464.672	1	4
465.865	1	7
467.058	1	-2
468.251	1	1
469.444	1	-11
470.637	1	-1
471.830	1	7
473.023	1	4
474.215	1	13
475.408	1	4
476.601	1	5
477.793	1	4
478.986	1	0
480.179	1	-6
481.371	1	11
482.564	1	-3
483.756	1	5
484.948	1	-4
486.141	1	-5
487.333	1	7
488.525	1	2
489.718	1	5
490.910	1	3
492.102	1	-2
493.294	1	7
494.486	1	8
495.678	1	0
496.870	1	4
498.062	1	2
499.254	1	2
500.446	1	-8
501.638	1	-2
502.829	1	3
504.021	1	-3
505.213	1	12
506.404	1	7
507.596	1	5
508.788	1	29
509.979	1	7
511.171	1	1
512.362	1	1
513.553	1	-1
514.745	1	5
515.936	1	-3
517.127	1	6
518.319	1	10
519.510	1	2
520.701	1	3
521.892	1	7
523.083	1	8
524.274	1	8
525.465	1	11
526.656	1	0
527.847	1	13
529.038	1	11
530.229	1	10
531.419	1	14
532.610	1	4
533.801	1	39
534.991	1	13
536.182	1	3
537.373	1	9
538.563	1	18
539.754	1	21
540.944	1	8
542.134	1	11
543.325	1	24
544.515	1	17
545.705	1	13
546.896	1	20
548.086	1	15
549.276	1	5
550.466	1	20
551.656	1	16
552.846	1	7
554.036	1	6
555.226	1	10
556.416	1	5
557.606	1	15
558.796	1	18
559.986	1	13
561.175	1	14
562.365	1	15
563.555	1	13
564.744	1	14
565.934	1	13
567.123	1	8
568.313	1	15
569.502	1	11
570.692	1	13
571.881	1	24
573.070	1	15
574.260	1	25
575.449	1	15
576.638	1	6
577.827	1	13
579.016	1	23
580.205	1	15
581.394	1	16
582.583	1	19
583.772	1	17
584.961	1	12
586.150	1	6
587.339	1	13
588.528	1	21
589.717	1	12
590.905	1	14
592.094	1	15
593.283	1	9
594.471	1	20
595.660	1	15
596.848	1	4
598.037	1	7
599.225	1	1
600.413	1	13
601.602	1	26
602.790	1	22
603.978	1	17
605.166	1	14
606.355	1	21
607.543	1	6
608.731	1	7
609.919	1	26
611.107	1	1
612.295	1	4
613.483	1	10
614.671	1	16
615.858	1	9
617.046	1	11
618.234	1	3
619.422	1	0
620.609	1	8
621.797	1	11
622.985	1	13
624.172	1	6
625.360	1	6
626.547	1	16
627.735	1	22
628.922	1	11
630.109	1	-1
631.297	1	10
632.484	1	4
633.671	1	0
634.858	1	0
636.045	1	18
637.232	1	3
638.419	1	1
639.606	1	18
640.793	1	7
641.980	1	9
643.167	1	4
644.354	1	4
645.541	1	4
646.728	1	9
647.914	1	10
649.101	1	6
650.288	1	6
651.474	1	1
652.661	1	2
653.847	1	7
655.034	1	6
656.220	1	5
657.406	1	8
658.593	1	11
659.779	1	10
660.965	1	9
662.152	1	3
663.338	1	4
664.524	1	5
665.710	1	1
666.896	1	8
668.082	1	5
669.268	1	6
670.454	1	12
671.640	1	14
672.826	1	-4
674.011	1	7
675.197	1	-4
676.383	1	-4
677.569	1	9
678.754	1	2
679.940	1	-2
681.125	1	4
682.311	1	11
683.496	1	14
684.682	1	-11
685.867	1	6
687.053	1	13
688.238	1	11
688.746	1	7