Folder: cryo-il_analysis/Data/GaN_150K_450ms (part 28)

File: GaN_sample D_spot15_UVVIS_150 K_200um_450 ms 2x2mm1_258.txt
340.368	1	3
341.565	1	2
342.763	1	-2
343.960	1	5
345.157	1	11
346.354	1	2
347.552	1	9
348.749	1	17
349.946	1	4
351.143	1	-3
352.340	1	3
353.537	1	-3
354.734	1	2
355.931	1	10
357.127	1	5
358.324	1	8
359.521	1	16
360.718	1	6
361.914	1	5
363.111	1	2
364.308	1	7
365.504	1	8
366.701	1	8
367.897	1	11
369.093	1	15
370.290	1	12
371.486	1	18
372.682	1	13
373.879	1	12
375.075	1	-2
376.271	1	6
377.467	1	8
378.663	1	4
379.859	1	8
381.055	1	-1
382.251	1	-11
383.447	1	6
384.643	1	1
385.839	1	0
387.035	1	5
388.230	1	4
389.426	1	-2
390.622	1	-4
391.817	1	-5
393.013	1	7
394.208	1	0
395.404	1	1
396.599	1	8
397.795	1	-3
398.990	1	9
400.186	1	7
401.381	1	5
402.576	1	9
403.771	1	-5
404.967	1	1
406.162	1	5
407.357	1	8
408.552	1	-6
409.747	1	8
410.942	1	13
412.137	1	-1
413.332	1	0
414.526	1	-13
415.721	1	9
416.916	1	0
418.111	1	2
419.305	1	1
420.500	1	1
421.695	1	10
422.889	1	2
424.084	1	3
425.278	1	8
426.472	1	11
427.667	1	5
428.861	1	1
430.055	1	11
431.250	1	-2
432.444	1	7
433.638	1	9
434.832	1	2
436.026	1	-1
437.220	1	12
438.414	1	13
439.608	1	7
440.802	1	-7
441.996	1	4
443.190	1	-1
444.384	1	5
445.578	1	-15
446.771	1	2
447.965	1	5
449.159	1	-5
450.352	1	-3
451.546	1	0
452.739	1	7
453.933	1	-2
455.126	1	2
456.320	1	5
457.513	1	3
458.706	1	8
459.899	1	-1
461.093	1	-5
462.286	1	-3
463.479	1	0
464.672	1	7
465.865	1	7
467.058	1	5
468.251	1	0
469.444	1	11
470.637	1	7
471.830	1	14
473.023	1	1
474.215	1	0
475.408	1	1
476.601	1	3
477.793	1	10
478.986	1	7
480.179	1	-1
481.371	1	-13
482.564	1	1
483.756	1	3
484.948	1	-2
486.141	1	10
487.333	1	-6
488.525	1	0
489.718	1	-2
490.910	1	5
492.102	1	6
493.294	1	-5
494.486	1	-2
495.678	1	-4
496.870	1	6
498.062	1	3
499.254	1	7
500.446	1	-5
501.638	1	1
502.829	1	-7
504.021	1	1
505.213	1	3
506.404	1	4
507.596	1	8
508.788	1	4
509.979	1	2
511.171	1	8
512.362	1	7
513.553	1	-4
514.745	1	-3
515.936	1	0
517.127	1	17
518.319	1	-5
519.510	1	-4
520.701	1	8
521.892	1	0
523.083	1	-1
524.274	1	7
525.465	1	17
526.656	1	6
527.847	1	-14
529.038	1	4
530.229	1	11
531.419	1	1
532.610	1	6
533.801	1	9
534.991	1	2
536.182	1	-5
537.373	1	7
538.563	1	-4
539.754	1	-3
540.944	1	7
542.134	1	4
543.325	1	5
544.515	1	0
545.705	1	6
546.896	1	6
548.086	1	4
549.276	1	6
550.466	1	5
551.656	1	-4
552.846	1	7
554.036	1	6
555.226	1	4
556.416	1	11
557.606	1	-9
558.796	1	9
559.986	1	9
561.175	1	0
562.365	1	-2
563.555	1	13
564.744	1	9
565.934	1	22
567.123	1	-4
568.313	1	1
569.502	1	7
570.692	1	6
571.881	1	0
573.070	1	5
574.260	1	6
575.449	1	2
576.638	1	8
577.827	1	0
579.016	1	2
580.205	1	4
581.394	1	5
582.583	1	6
583.772	1	10
584.961	1	-9
586.150	1	4
587.339	1	1
588.528	1	2
589.717	1	-1
590.905	1	0
592.094	1	19
593.283	1	12
594.471	1	-9
595.660	1	5
596.848	1	2
598.037	1	-2
599.225	1	-2
600.413	1	10
601.602	1	4
602.790	1	2
603.978	1	2
605.166	1	7
606.355	1	-14
607.543	1	4
608.731	1	-15
609.919	1	-3
611.107	1	4
612.295	1	6
613.483	1	-2
614.671	1	-1
615.858	1	-7
617.046	1	-4
618.234	1	-4
619.422	1	15
620.609	1	-2
621.797	1	2
622.985	1	2
624.172	1	7
625.360	1	-1
626.547	1	-9
627.735	1	6
628.922	1	-7
630.109	1	0
631.297	1	8
632.484	1	7
633.671	1	9
634.858	1	3
636.045	1	-2
637.232	1	1
638.419	1	0
639.606	1	7
640.793	1	2
641.980	1	6
643.167	1	5
644.354	1	-1
645.541	1	-7
646.728	1	4
647.914	1	-4
649.101	1	1
650.288	1	6
651.474	1	8
652.661	1	5
653.847	1	-1
655.034	1	-4
656.220	1	9
657.406	1	3
658.593	1	13
659.779	1	-1
660.965	1	9
662.152	1	5
663.338	1	-3
664.524	1	10
665.710	1	5
666.896	1	7
668.082	1	3
669.268	1	1
670.454	1	9
671.640	1	5
672.826	1	5
674.011	1	4
675.197	1	11
676.383	1	10
677.569	1	8
678.754	1	1
679.940	1	-5
681.125	1	-3
682.311	1	7
683.496	1	0
684.682	1	12
685.867	1	-4
687.053	1	21
688.238	1	1
688.746	1	10

File: GaN_sample D_spot15_UVVIS_150 K_200um_450 ms 2x2mm1_259.txt
340.368	1	3
341.565	1	-6
342.763	1	-7
343.960	1	14
345.157	1	17
346.354	1	1
347.552	1	15
348.749	1	12
349.946	1	-3
351.143	1	9
352.340	1	11
353.537	1	-2
354.734	1	-8
355.931	1	12
357.127	1	8
358.324	1	9
359.521	1	12
360.718	1	1
361.914	1	7
363.111	1	-1
364.308	1	13
365.504	1	-2
366.701	1	14
367.897	1	15
369.093	1	21
370.290	1	8
371.486	1	23
372.682	1	9
373.879	1	6
375.075	1	1
376.271	1	8
377.467	1	15
378.663	1	1
379.859	1	5
381.055	1	3
382.251	1	-11
383.447	1	-2
384.643	1	5
385.839	1	6
387.035	1	8
388.230	1	0
389.426	1	-6
390.622	1	8
391.817	1	-7
393.013	1	-4
394.208	1	-6
395.404	1	15
396.599	1	11
397.795	1	2
398.990	1	12
400.186	1	2
401.381	1	-2
402.576	1	1
403.771	1	-5
404.967	1	3
406.162	1	-6
407.357	1	8
408.552	1	3
409.747	1	5
410.942	1	12
412.137	1	-6
413.332	1	4
414.526	1	-7
415.721	1	8
416.916	1	1
418.111	1	2
419.305	1	4
420.500	1	2
421.695	1	6
422.889	1	7
424.084	1	2
425.278	1	13
426.472	1	7
427.667	1	3
428.861	1	6
430.055	1	7
431.250	1	3
432.444	1	1
433.638	1	12
434.832	1	5
436.026	1	2
437.220	1	14
438.414	1	5
439.608	1	7
440.802	1	3
441.996	1	5
443.190	1	3
444.384	1	4
445.578	1	-7
446.771	1	3
447.965	1	7
449.159	1	2
450.352	1	-4
451.546	1	0
452.739	1	3
453.933	1	-3
455.126	1	5
456.320	1	14
457.513	1	1
458.706	1	10
459.899	1	5
461.093	1	13
462.286	1	1
463.479	1	-6
464.672	1	1
465.865	1	5
467.058	1	7
468.251	1	-10
469.444	1	2
470.637	1	0
471.830	1	0
473.023	1	-1
474.215	1	9
475.408	1	6
476.601	1	5
477.793	1	-10
478.986	1	7
480.179	1	7
481.371	1	-5
482.564	1	7
483.756	1	9
484.948	1	10
486.141	1	0
487.333	1	0
488.525	1	-1
489.718	1	-1
490.910	1	-2
492.102	1	6
493.294	1	-2
494.486	1	5
495.678	1	3
496.870	1	-2
498.062	1	1
499.254	1	-6
500.446	1	-4
501.638	1	6
502.829	1	-1
504.021	1	1
505.213	1	3
506.404	1	12
507.596	1	15
508.788	1	1
509.979	1	-4
511.171	1	3
512.362	1	12
513.553	1	0
514.745	1	-4
515.936	1	-4
517.127	1	7
518.319	1	-1
519.510	1	3
520.701	1	8
521.892	1	5
523.083	1	-5
524.274	1	-2
525.465	1	13
526.656	1	3
527.847	1	-10
529.038	1	2
530.229	1	5
531.419	1	12
532.610	1	12
533.801	1	-1
534.991	1	8
536.182	1	-2
537.373	1	5
538.563	1	-7
539.754	1	-1
540.944	1	11
542.134	1	8
543.325	1	4
544.515	1	6
545.705	1	6
546.896	1	2
548.086	1	3
549.276	1	6
550.466	1	9
551.656	1	6
552.846	1	7
554.036	1	10
555.226	1	14
556.416	1	10
557.606	1	-5
558.796	1	9
559.986	1	5
561.175	1	-4
562.365	1	-6
563.555	1	2
564.744	1	8
565.934	1	9
567.123	1	4
568.313	1	0
569.502	1	7
570.692	1	6
571.881	1	-2
573.070	1	8
574.260	1	5
575.449	1	4
576.638	1	2
577.827	1	-2
579.016	1	3
580.205	1	4
581.394	1	3
582.583	1	2
583.772	1	3
584.961	1	-7
586.150	1	0
587.339	1	0
588.528	1	-3
589.717	1	3
590.905	1	10
592.094	1	10
593.283	1	3
594.471	1	-3
595.660	1	8
596.848	1	8
598.037	1	-1
599.225	1	7
600.413	1	-4
601.602	1	2
602.790	1	10
603.978	1	-1
605.166	1	2
606.355	1	-13
607.543	1	12
608.731	1	-10
609.919	1	-11
611.107	1	7
612.295	1	10
613.483	1	-1
614.671	1	-3
615.858	1	-6
617.046	1	-1
618.234	1	-1
619.422	1	17
620.609	1	3
621.797	1	-4
622.985	1	-6
624.172	1	12
625.360	1	-1
626.547	1	1
627.735	1	-3
628.922	1	5
630.109	1	-12
631.297	1	-3
632.484	1	8
633.671	1	-3
634.858	1	8
636.045	1	-4
637.232	1	-3
638.419	1	1
639.606	1	5
640.793	1	9
641.980	1	19
643.167	1	7
644.354	1	3
645.541	1	4
646.728	1	10
647.914	1	1
649.101	1	-3
650.288	1	0
651.474	1	7
652.661	1	2
653.847	1	1
655.034	1	-2
656.220	1	5
657.406	1	-3
658.593	1	15
659.779	1	-3
660.965	1	-2
662.152	1	4
663.338	1	7
664.524	1	12
665.710	1	2
666.896	1	9
668.082	1	-2
669.268	1	-1
670.454	1	-5
671.640	1	5
672.826	1	6
674.011	1	6
675.197	1	2
676.383	1	0
677.569	1	7
678.754	1	-3
679.940	1	2
681.125	1	-9
682.311	1	3
683.496	1	-3
684.682	1	9
685.867	1	-3
687.053	1	14
688.238	1	10
688.746	1	1

File: GaN_sample D_spot15_UVVIS_150 K_200um_450 ms 2x2mm1_265.txt
340.368	1	0
341.565	1	5
342.763	1	2
343.960	1	5
345.157	1	11
346.354	1	2
347.552	1	19
348.749	1	10
349.946	1	6
351.143	1	0
352.340	1	3
353.537	1	-3
354.734	1	10
355.931	1	13
357.127	1	11
358.324	1	2
359.521	1	5
360.718	1	5
361.914	1	2
363.111	1	9
364.308	1	17
365.504	1	-2
366.701	1	7
367.897	1	16
369.093	1	19
370.290	1	15
371.486	1	16
372.682	1	13
373.879	1	12
375.075	1	-5
376.271	1	7
377.467	1	10
378.663	1	11
379.859	1	4
381.055	1	9
382.251	1	-6
383.447	1	2
384.643	1	3
385.839	1	-1
387.035	1	3
388.230	1	4
389.426	1	-5
390.622	1	-5
391.817	1	1
393.013	1	3
394.208	1	6
395.404	1	3
396.599	1	14
397.795	1	-6
398.990	1	5
400.186	1	6
401.381	1	1
402.576	1	3
403.771	1	2
404.967	1	2
406.162	1	3
407.357	1	10
408.552	1	-13
409.747	1	-5
410.942	1	5
412.137	1	0
413.332	1	9
414.526	1	1
415.721	1	10
416.916	1	1
418.111	1	1
419.305	1	9
420.500	1	3
421.695	1	3
422.889	1	6
424.084	1	6
425.278	1	-3
426.472	1	16
427.667	1	4
428.861	1	9
430.055	1	13
431.250	1	7
432.444	1	2
433.638	1	5
434.832	1	-1
436.026	1	-7
437.220	1	9
438.414	1	8
439.608	1	-1
440.802	1	5
441.996	1	5
443.190	1	3
444.384	1	7
445.578	1	1
446.771	1	-6
447.965	1	4
449.159	1	1
450.352	1	1
451.546	1	11
452.739	1	5
453.933	1	-5
455.126	1	0
456.320	1	5
457.513	1	2
458.706	1	17
459.899	1	6
461.093	1	-3
462.286	1	-4
463.479	1	-2
464.672	1	0
465.865	1	6
467.058	1	5
468.251	1	-5
469.444	1	5
470.637	1	2
471.830	1	3
473.023	1	1
474.215	1	-5
475.408	1	-5
476.601	1	-3
477.793	1	1
478.986	1	13
480.179	1	9
481.371	1	-12
482.564	1	14
483.756	1	6
484.948	1	5
486.141	1	9
487.333	1	-2
488.525	1	-2
489.718	1	-10
490.910	1	8
492.102	1	1
493.294	1	-10
494.486	1	3
495.678	1	1
496.870	1	5
498.062	1	-5
499.254	1	-7
500.446	1	0
501.638	1	2
502.829	1	-7
504.021	1	2
505.213	1	-3
506.404	1	7
507.596	1	5
508.788	1	-6
509.979	1	1
511.171	1	5
512.362	1	6
513.553	1	8
514.745	1	-6
515.936	1	1
517.127	1	10
518.319	1	-1
519.510	1	-5
520.701	1	-1
521.892	1	1
523.083	1	-3
524.274	1	1
525.465	1	11
526.656	1	4
527.847	1	-9
529.038	1	2
530.229	1	3
531.419	1	12
532.610	1	7
533.801	1	2
534.991	1	0
536.182	1	12
537.373	1	10
538.563	1	-1
539.754	1	-3
540.944	1	13
542.134	1	12
543.325	1	10
544.515	1	5
545.705	1	3
546.896	1	1
548.086	1	-1
549.276	1	3
550.466	1	3
551.656	1	-2
552.846	1	-1
554.036	1	7
555.226	1	6
556.416	1	7
557.606	1	0
558.796	1	20
559.986	1	10
561.175	1	1
562.365	1	11
563.555	1	3
564.744	1	8
565.934	1	10
567.123	1	-3
568.313	1	6
569.502	1	14
570.692	1	5
571.881	1	3
573.070	1	-2
574.260	1	9
575.449	1	-3
576.638	1	5
577.827	1	5
579.016	1	3
580.205	1	-1
581.394	1	1
582.583	1	3
583.772	1	9
584.961	1	-5
586.150	1	6
587.339	1	2
588.528	1	-2
589.717	1	0
590.905	1	-1
592.094	1	2
593.283	1	4
594.471	1	-8
595.660	1	4
596.848	1	4
598.037	1	1
599.225	1	1
600.413	1	1
601.602	1	6
602.790	1	4
603.978	1	3
605.166	1	2
606.355	1	-16
607.543	1	10
608.731	1	-10
609.919	1	-10
611.107	1	18
612.295	1	16
613.483	1	8
614.671	1	1
615.858	1	-2
617.046	1	-1
618.234	1	-5
619.422	1	16
620.609	1	2
621.797	1	1
622.985	1	1
624.172	1	3
625.360	1	-3
626.547	1	-2
627.735	1	-1
628.922	1	2
630.109	1	-12
631.297	1	11
632.484	1	7
633.671	1	2
634.858	1	2
636.045	1	-4
637.232	1	3
638.419	1	6
639.606	1	11
640.793	1	-7
641.980	1	9
643.167	1	13
644.354	1	10
645.541	1	0
646.728	1	10
647.914	1	4
649.101	1	-3
650.288	1	8
651.474	1	6
652.661	1	5
653.847	1	8
655.034	1	-6
656.220	1	3
657.406	1	-7
658.593	1	-1
659.779	1	6
660.965	1	2
662.152	1	4
663.338	1	-4
664.524	1	11
665.710	1	3
666.896	1	-1
668.082	1	5
669.268	1	8
670.454	1	5
671.640	1	4
672.826	1	-6
674.011	1	12
675.197	1	9
676.383	1	5
677.569	1	10
678.754	1	-4
679.940	1	-2
681.125	1	-9
682.311	1	5
683.496	1	-9
684.682	1	7
685.867	1	1
687.053	1	19
688.238	1	6
688.746	1	-6

File: GaN_sample D_spot15_UVVIS_150 K_200um_450 ms 2x2mm1_269.txt
340.368	1	1
341.565	1	5
342.763	1	2
343.960	1	0
345.157	1	9
346.354	1	1
347.552	1	23
348.749	1	5
349.946	1	-4
351.143	1	8
352.340	1	1
353.537	1	-4
354.734	1	5
355.931	1	8
357.127	1	-4
358.324	1	12
359.521	1	11
360.718	1	-3
361.914	1	5
363.111	1	-4
364.308	1	13
365.504	1	10
366.701	1	15
367.897	1	10
369.093	1	25
370.290	1	18
371.486	1	19
372.682	1	0
373.879	1	-1
375.075	1	7
376.271	1	6
377.467	1	12
378.663	1	5
379.859	1	3
381.055	1	3
382.251	1	-3
383.447	1	2
384.643	1	0
385.839	1	2
387.035	1	4
388.230	1	7
389.426	1	-5
390.622	1	-3
391.817	1	0
393.013	1	1
394.208	1	5
395.404	1	8
396.599	1	-1
397.795	1	-2
398.990	1	12
400.186	1	-1
401.381	1	4
402.576	1	3
403.771	1	-7
404.967	1	-2
406.162	1	-4
407.357	1	0
408.552	1	-6
409.747	1	0
410.942	1	8
412.137	1	-5
413.332	1	8
414.526	1	-6
415.721	1	6
416.916	1	0
418.111	1	2
419.305	1	12
420.500	1	5
421.695	1	9
422.889	1	17
424.084	1	3
425.278	1	5
426.472	1	10
427.667	1	2
428.861	1	10
430.055	1	2
431.250	1	11
432.444	1	16
433.638	1	6
434.832	1	3
436.026	1	1
437.220	1	13
438.414	1	4
439.608	1	-1
440.802	1	4
441.996	1	-2
443.190	1	2
444.384	1	1
445.578	1	-2
446.771	1	0
447.965	1	3
449.159	1	-2
450.352	1	-3
451.546	1	12
452.739	1	-2
453.933	1	-8
455.126	1	5
456.320	1	6
457.513	1	1
458.706	1	10
459.899	1	4
461.093	1	3
462.286	1	-5
463.479	1	1
464.672	1	9
465.865	1	-2
467.058	1	1
468.251	1	-9
469.444	1	2
470.637	1	-4
471.830	1	3
473.023	1	10
474.215	1	4
475.408	1	5
476.601	1	10
477.793	1	-2
478.986	1	1
480.179	1	10
481.371	1	-5
482.564	1	6
483.756	1	4
484.948	1	12
486.141	1	13
487.333	1	-6
488.525	1	-5
489.718	1	-4
490.910	1	5
492.102	1	3
493.294	1	-8
494.486	1	-2
495.678	1	2
496.870	1	-2
498.062	1	-3
499.254	1	-3
500.446	1	-5
501.638	1	3
502.829	1	-8
504.021	1	-3
505.213	1	1
506.404	1	6
507.596	1	-2
508.788	1	2
509.979	1	5
511.171	1	2
512.362	1	1
513.553	1	9
514.745	1	3
515.936	1	-1
517.127	1	17
518.319	1	14
519.510	1	-5
520.701	1	3
521.892	1	7
523.083	1	-2
524.274	1	7
525.465	1	9
526.656	1	6
527.847	1	-11
529.038	1	-2
530.229	1	5
531.419	1	-2
532.610	1	1
533.801	1	9
534.991	1	1
536.182	1	-7
537.373	1	5
538.563	1	4
539.754	1	-5
540.944	1	7
542.134	1	-1
543.325	1	15
544.515	1	3
545.705	1	7
546.896	1	2
548.086	1	4
549.276	1	9
550.466	1	-3
551.656	1	-2
552.846	1	10
554.036	1	10
555.226	1	8
556.416	1	10
557.606	1	0
558.796	1	5
559.986	1	2
561.175	1	-1
562.365	1	6
563.555	1	7
564.744	1	16
565.934	1	8
567.123	1	7
568.313	1	-2
569.502	1	12
570.692	1	7
571.881	1	-2
573.070	1	4
574.260	1	0
575.449	1	-1
576.638	1	7
577.827	1	1
579.016	1	7
580.205	1	5
581.394	1	1
582.583	1	5
583.772	1	7
584.961	1	-10
586.150	1	0
587.339	1	-3
588.528	1	2
589.717	1	4
590.905	1	-1
592.094	1	7
593.283	1	-1
594.471	1	-3
595.660	1	3
596.848	1	2
598.037	1	-7
599.225	1	1
600.413	1	8
601.602	1	5
602.790	1	7
603.978	1	3
605.166	1	2
606.355	1	-12
607.543	1	1
608.731	1	-11
609.919	1	-14
611.107	1	7
612.295	1	-3
613.483	1	2
614.671	1	8
615.858	1	1
617.046	1	-7
618.234	1	-3
619.422	1	11
620.609	1	-7
621.797	1	0
622.985	1	5
624.172	1	0
625.360	1	8
626.547	1	-3
627.735	1	-11
628.922	1	8
630.109	1	-10
631.297	1	2
632.484	1	16
633.671	1	5
634.858	1	5
636.045	1	-12
637.232	1	-1
638.419	1	-7
639.606	1	12
640.793	1	3
641.980	1	10
643.167	1	2
644.354	1	4
645.541	1	6
646.728	1	8
647.914	1	2
649.101	1	5
650.288	1	-3
651.474	1	12
652.661	1	0
653.847	1	4
655.034	1	-5
656.220	1	-1
657.406	1	2
658.593	1	3
659.779	1	5
660.965	1	1
662.152	1	0
663.338	1	-10
664.524	1	5
665.710	1	4
666.896	1	2
668.082	1	5
669.268	1	2
670.454	1	9
671.640	1	7
672.826	1	1
674.011	1	-2
675.197	1	3
676.383	1	-1
677.569	1	7
678.754	1	-4
679.940	1	-6
681.125	1	-2
682.311	1	2
683.496	1	-1
684.682	1	4
685.867	1	4
687.053	1	21
688.238	1	9
688.746	1	-7

File: GaN_sample D_spot15_UVVIS_150 K_200um_450 ms 2x2mm1_270.txt
340.368	1	1
341.565	1	11
342.763	1	-1
343.960	1	-5
345.157	1	5
346.354	1	4
347.552	1	15
348.749	1	5
349.946	1	-2
351.143	1	4
352.340	1	7
353.537	1	-6
354.734	1	12
355.931	1	9
357.127	1	6
358.324	1	11
359.521	1	6
360.718	1	-2
361.914	1	8
363.111	1	3
364.308	1	4
365.504	1	4
366.701	1	2
367.897	1	6
369.093	1	14
370.290	1	14
371.486	1	19
372.682	1	13
373.879	1	11
375.075	1	0
376.271	1	7
377.467	1	16
378.663	1	14
379.859	1	3
381.055	1	-2
382.251	1	-7
383.447	1	6
384.643	1	-2
385.839	1	6
387.035	1	7
388.230	1	3
389.426	1	-15
390.622	1	-7
391.817	1	-13
393.013	1	14
394.208	1	-1
395.404	1	1
396.599	1	-1
397.795	1	6
398.990	1	14
400.186	1	6
401.381	1	2
402.576	1	0
403.771	1	-4
404.967	1	10
406.162	1	0
407.357	1	9
408.552	1	2
409.747	1	4
410.942	1	15
412.137	1	5
413.332	1	3
414.526	1	-3
415.721	1	5
416.916	1	-2
418.111	1	2
419.305	1	12
420.500	1	5
421.695	1	8
422.889	1	-3
424.084	1	0
425.278	1	1
426.472	1	14
427.667	1	3
428.861	1	9
430.055	1	2
431.250	1	11
432.444	1	14
433.638	1	6
434.832	1	1
436.026	1	-4
437.220	1	8
438.414	1	16
439.608	1	4
440.802	1	-3
441.996	1	-3
443.190	1	3
444.384	1	6
445.578	1	-10
446.771	1	-5
447.965	1	1
449.159	1	-7
450.352	1	3
451.546	1	8
452.739	1	-2
453.933	1	-5
455.126	1	0
456.320	1	15
457.513	1	1
458.706	1	9
459.899	1	1
461.093	1	7
462.286	1	4
463.479	1	-1
464.672	1	7
465.865	1	-1
467.058	1	-4
468.251	1	-8
469.444	1	3
470.637	1	-6
471.830	1	0
473.023	1	0
474.215	1	-4
475.408	1	1
476.601	1	-2
477.793	1	-7
478.986	1	5
480.179	1	2
481.371	1	-13
482.564	1	14
483.756	1	5
484.948	1	7
486.141	1	4
487.333	1	0
488.525	1	-4
489.718	1	-2
490.910	1	3
492.102	1	5
493.294	1	-1
494.486	1	-10
495.678	1	-15
496.870	1	-5
498.062	1	-2
499.254	1	-1
500.446	1	5
501.638	1	2
502.829	1	-1
504.021	1	5
505.213	1	10
506.404	1	9
507.596	1	11
508.788	1	-4
509.979	1	4
511.171	1	-1
512.362	1	5
513.553	1	4
514.745	1	0
515.936	1	3
517.127	1	5
518.319	1	12
519.510	1	-7
520.701	1	1
521.892	1	-3
523.083	1	-1
524.274	1	4
525.465	1	6
526.656	1	2
527.847	1	-4
529.038	1	-2
530.229	1	9
531.419	1	12
532.610	1	7
533.801	1	-1
534.991	1	-6
536.182	1	3
537.373	1	3
538.563	1	-3
539.754	1	7
540.944	1	10
542.134	1	11
543.325	1	3
544.515	1	6
545.705	1	3
546.896	1	2
548.086	1	10
549.276	1	4
550.466	1	-2
551.656	1	6
552.846	1	4
554.036	1	6
555.226	1	1
556.416	1	10
557.606	1	-6
558.796	1	11
559.986	1	10
561.175	1	-8
562.365	1	-3
563.555	1	5
564.744	1	11
565.934	1	11
567.123	1	0
568.313	1	-1
569.502	1	3
570.692	1	7
571.881	1	3
573.070	1	6
574.260	1	0
575.449	1	2
576.638	1	1
577.827	1	-4
579.016	1	7
580.205	1	-10
581.394	1	2
582.583	1	8
583.772	1	3
584.961	1	2
586.150	1	2
587.339	1	-1
588.528	1	-2
589.717	1	-2
590.905	1	0
592.094	1	5
593.283	1	1
594.471	1	-5
595.660	1	10
596.848	1	9
598.037	1	3
599.225	1	8
600.413	1	2
601.602	1	2
602.790	1	-1
603.978	1	6
605.166	1	0
606.355	1	-18
607.543	1	3
608.731	1	-1
609.919	1	-2
611.107	1	14
612.295	1	4
613.483	1	8
614.671	1	1
615.858	1	-6
617.046	1	-12
618.234	1	-3
619.422	1	10
620.609	1	-2
621.797	1	8
622.985	1	7
624.172	1	4
625.360	1	-3
626.547	1	-9
627.735	1	4
628.922	1	2
630.109	1	2
631.297	1	4
632.484	1	11
633.671	1	9
634.858	1	7
636.045	1	0
637.232	1	3
638.419	1	8
639.606	1	13
640.793	1	2
641.980	1	7
643.167	1	11
644.354	1	5
645.541	1	-7
646.728	1	2
647.914	1	6
649.101	1	-3
650.288	1	5
651.474	1	8
652.661	1	3
653.847	1	7
655.034	1	5
656.220	1	10
657.406	1	-5
658.593	1	10
659.779	1	6
660.965	1	-5
662.152	1	12
663.338	1	-8
664.524	1	6
665.710	1	2
666.896	1	5
668.082	1	10
669.268	1	-13
670.454	1	13
671.640	1	6
672.826	1	-2
674.011	1	10
675.197	1	6
676.383	1	1
677.569	1	8
678.754	1	6
679.940	1	-9
681.125	1	-4
682.311	1	4
683.496	1	3
684.682	1	13
685.867	1	5
687.053	1	9
688.238	1	1
688.746	1	1

File: GaN_sample D_spot15_UVVIS_150 K_200um_450 ms 2x2mm1_271.txt
340.368	1	3
341.565	1	6
342.763	1	-4
343.960	1	3
345.157	1	8
346.354	1	-5
347.552	1	16
348.749	1	10
349.946	1	-4
351.143	1	6
352.340	1	7
353.537	1	0
354.734	1	0
355.931	1	7
357.127	1	11
358.324	1	6
359.521	1	8
360.718	1	6
361.914	1	9
363.111	1	2
364.308	1	19
365.504	1	3
366.701	1	-3
367.897	1	15
369.093	1	13
370.290	1	22
371.486	1	11
372.682	1	18
373.879	1	2
375.075	1	3
376.271	1	2
377.467	1	11
378.663	1	7
379.859	1	5
381.055	1	-10
382.251	1	4
383.447	1	-2
384.643	1	0
385.839	1	10
387.035	1	4
388.230	1	9
389.426	1	4
390.622	1	4
391.817	1	-2
393.013	1	5
394.208	1	-4
395.404	1	5
396.599	1	8
397.795	1	-9
398.990	1	13
400.186	1	9
401.381	1	1
402.576	1	-2
403.771	1	-11
404.967	1	-1
406.162	1	4
407.357	1	8
408.552	1	-8
409.747	1	-1
410.942	1	10
412.137	1	2
413.332	1	9
414.526	1	-4
415.721	1	-1
416.916	1	8
418.111	1	7
419.305	1	-1
420.500	1	4
421.695	1	4
422.889	1	3
424.084	1	8
425.278	1	4
426.472	1	7
427.667	1	-6
428.861	1	9
430.055	1	6
431.250	1	8
432.444	1	9
433.638	1	8
434.832	1	-4
436.026	1	1
437.220	1	15
438.414	1	8
439.608	1	-2
440.802	1	6
441.996	1	7
443.190	1	14
444.384	1	3
445.578	1	-9
446.771	1	5
447.965	1	8
449.159	1	-4
450.352	1	-10
451.546	1	5
452.739	1	-5
453.933	1	2
455.126	1	10
456.320	1	13
457.513	1	0
458.706	1	19
459.899	1	-3
461.093	1	3
462.286	1	-5
463.479	1	-1
464.672	1	7
465.865	1	0
467.058	1	3
468.251	1	0
469.444	1	8
470.637	1	-1
471.830	1	8
473.023	1	7
474.215	1	-7
475.408	1	-5
476.601	1	1
477.793	1	-2
478.986	1	5
480.179	1	6
481.371	1	1
482.564	1	7
483.756	1	3
484.948	1	8
486.141	1	6
487.333	1	-4
488.525	1	-2
489.718	1	-4
490.910	1	8
492.102	1	5
493.294	1	-2
494.486	1	7
495.678	1	6
496.870	1	4
498.062	1	-2
499.254	1	-5
500.446	1	3
501.638	1	3
502.829	1	-11
504.021	1	-5
505.213	1	0
506.404	1	8
507.596	1	15
508.788	1	3
509.979	1	-6
511.171	1	4
512.362	1	-3
513.553	1	8
514.745	1	-2
515.936	1	3
517.127	1	6
518.319	1	-8
519.510	1	-3
520.701	1	7
521.892	1	4
523.083	1	-5
524.274	1	7
525.465	1	11
526.656	1	5
527.847	1	-6
529.038	1	0
530.229	1	7
531.419	1	-1
532.610	1	4
533.801	1	13
534.991	1	0
536.182	1	4
537.373	1	3
538.563	1	7
539.754	1	4
540.944	1	5
542.134	1	0
543.325	1	4
544.515	1	5
545.705	1	3
546.896	1	5
548.086	1	7
549.276	1	4
550.466	1	1
551.656	1	-3
552.846	1	9
554.036	1	5
555.226	1	9
556.416	1	8
557.606	1	-1
558.796	1	11
559.986	1	9
561.175	1	0
562.365	1	2
563.555	1	6
564.744	1	12
565.934	1	14
567.123	1	8
568.313	1	4
569.502	1	3
570.692	1	8
571.881	1	0
573.070	1	-4
574.260	1	7
575.449	1	-7
576.638	1	1
577.827	1	-2
579.016	1	-4
580.205	1	-1
581.394	1	4
582.583	1	1
583.772	1	6
584.961	1	-3
586.150	1	5
587.339	1	0
588.528	1	6
589.717	1	13
590.905	1	-5
592.094	1	7
593.283	1	10
594.471	1	-5
595.660	1	4
596.848	1	14
598.037	1	5
599.225	1	10
600.413	1	-4
601.602	1	2
602.790	1	-2
603.978	1	3
605.166	1	5
606.355	1	-9
607.543	1	13
608.731	1	-9
609.919	1	-3
611.107	1	3
612.295	1	6
613.483	1	-3
614.671	1	7
615.858	1	-14
617.046	1	-2
618.234	1	-7
619.422	1	15
620.609	1	-2
621.797	1	-3
622.985	1	-6
624.172	1	-3
625.360	1	10
626.547	1	-7
627.735	1	4
628.922	1	-1
630.109	1	-2
631.297	1	-5
632.484	1	13
633.671	1	5
634.858	1	3
636.045	1	-2
637.232	1	-1
638.419	1	-1
639.606	1	-2
640.793	1	0
641.980	1	5
643.167	1	0
644.354	1	2
645.541	1	5
646.728	1	1
647.914	1	0
649.101	1	1
650.288	1	-2
651.474	1	11
652.661	1	15
653.847	1	-1
655.034	1	0
656.220	1	4
657.406	1	1
658.593	1	7
659.779	1	10
660.965	1	1
662.152	1	2
663.338	1	-2
664.524	1	7
665.710	1	6
666.896	1	8
668.082	1	8
669.268	1	3
670.454	1	9
671.640	1	10
672.826	1	2
674.011	1	6
675.197	1	6
676.383	1	5
677.569	1	16
678.754	1	2
679.940	1	3
681.125	1	-2
682.311	1	6
683.496	1	-6
684.682	1	9
685.867	1	3
687.053	1	15
688.238	1	8
688.746	1	-1