Folder: cryo-il_analysis/Data/GaN_170K_550ms (part 20)

File: GaN_sample D_spot 18_UVVIS_170 K_200um_550 ms 2x2mm1_226.txt
340.368	1	4
341.565	1	3
342.763	1	6
343.960	1	-9
345.157	1	6
346.354	1	-4
347.552	1	12
348.749	1	10
349.946	1	10
351.143	1	2
352.340	1	1
353.537	1	2
354.734	1	5
355.931	1	-3
357.127	1	7
358.324	1	13
359.521	1	3
360.718	1	6
361.914	1	5
363.111	1	12
364.308	1	16
365.504	1	10
366.701	1	12
367.897	1	20
369.093	1	10
370.290	1	12
371.486	1	5
372.682	1	22
373.879	1	10
375.075	1	8
376.271	1	13
377.467	1	8
378.663	1	6
379.859	1	8
381.055	1	6
382.251	1	5
383.447	1	11
384.643	1	2
385.839	1	-4
387.035	1	-2
388.230	1	0
389.426	1	12
390.622	1	2
391.817	1	7
393.013	1	3
394.208	1	5
395.404	1	1
396.599	1	0
397.795	1	4
398.990	1	-14
400.186	1	-11
401.381	1	12
402.576	1	-2
403.771	1	1
404.967	1	3
406.162	1	5
407.357	1	1
408.552	1	-3
409.747	1	1
410.942	1	4
412.137	1	-7
413.332	1	1
414.526	1	13
415.721	1	1
416.916	1	-7
418.111	1	14
419.305	1	8
420.500	1	8
421.695	1	-9
422.889	1	-9
424.084	1	10
425.278	1	-7
426.472	1	-3
427.667	1	0
428.861	1	5
430.055	1	-4
431.250	1	10
432.444	1	0
433.638	1	7
434.832	1	5
436.026	1	-2
437.220	1	-4
438.414	1	-7
439.608	1	-1
440.802	1	-2
441.996	1	1
443.190	1	0
444.384	1	8
445.578	1	5
446.771	1	-8
447.965	1	1
449.159	1	-2
450.352	1	1
451.546	1	-16
452.739	1	7
453.933	1	3
455.126	1	9
456.320	1	-9
457.513	1	8
458.706	1	7
459.899	1	1
461.093	1	6
462.286	1	-3
463.479	1	-1
464.672	1	-10
465.865	1	-1
467.058	1	9
468.251	1	0
469.444	1	3
470.637	1	-3
471.830	1	1
473.023	1	-1
474.215	1	2
475.408	1	-5
476.601	1	1
477.793	1	9
478.986	1	0
480.179	1	-4
481.371	1	-2
482.564	1	0
483.756	1	16
484.948	1	-8
486.141	1	5
487.333	1	-3
488.525	1	2
489.718	1	9
490.910	1	4
492.102	1	-1
493.294	1	1
494.486	1	8
495.678	1	4
496.870	1	3
498.062	1	3
499.254	1	10
500.446	1	-2
501.638	1	-15
502.829	1	0
504.021	1	3
505.213	1	-5
506.404	1	4
507.596	1	13
508.788	1	-6
509.979	1	7
511.171	1	3
512.362	1	3
513.553	1	-1
514.745	1	-1
515.936	1	3
517.127	1	11
518.319	1	4
519.510	1	3
520.701	1	9
521.892	1	10
523.083	1	1
524.274	1	-3
525.465	1	2
526.656	1	1
527.847	1	3
529.038	1	-1
530.229	1	16
531.419	1	9
532.610	1	2
533.801	1	-2
534.991	1	4
536.182	1	3
537.373	1	-1
538.563	1	3
539.754	1	7
540.944	1	-1
542.134	1	-2
543.325	1	3
544.515	1	2
545.705	1	-3
546.896	1	-1
548.086	1	2
549.276	1	3
550.466	1	4
551.656	1	3
552.846	1	-1
554.036	1	3
555.226	1	4
556.416	1	3
557.606	1	-2
558.796	1	6
559.986	1	-2
561.175	1	-11
562.365	1	11
563.555	1	0
564.744	1	4
565.934	1	-7
567.123	1	7
568.313	1	0
569.502	1	6
570.692	1	8
571.881	1	-5
573.070	1	3
574.260	1	11
575.449	1	4
576.638	1	-3
577.827	1	3
579.016	1	2
580.205	1	-8
581.394	1	0
582.583	1	-8
583.772	1	1
584.961	1	2
586.150	1	-1
587.339	1	-2
588.528	1	1
589.717	1	10
590.905	1	2
592.094	1	11
593.283	1	7
594.471	1	19
595.660	1	1
596.848	1	3
598.037	1	0
599.225	1	0
600.413	1	-7
601.602	1	9
602.790	1	9
603.978	1	3
605.166	1	4
606.355	1	7
607.543	1	10
608.731	1	0
609.919	1	-1
611.107	1	2
612.295	1	5
613.483	1	-2
614.671	1	16
615.858	1	-7
617.046	1	-6
618.234	1	5
619.422	1	-4
620.609	1	-3
621.797	1	0
622.985	1	-1
624.172	1	9
625.360	1	1
626.547	1	4
627.735	1	-10
628.922	1	2
630.109	1	3
631.297	1	7
632.484	1	-4
633.671	1	6
634.858	1	-3
636.045	1	4
637.232	1	9
638.419	1	-11
639.606	1	-4
640.793	1	-11
641.980	1	-1
643.167	1	-6
644.354	1	-5
645.541	1	-3
646.728	1	7
647.914	1	8
649.101	1	-4
650.288	1	8
651.474	1	16
652.661	1	4
653.847	1	7
655.034	1	-1
656.220	1	-2
657.406	1	-1
658.593	1	-1
659.779	1	8
660.965	1	14
662.152	1	-4
663.338	1	3
664.524	1	0
665.710	1	2
666.896	1	-6
668.082	1	8
669.268	1	-7
670.454	1	-4
671.640	1	7
672.826	1	-1
674.011	1	2
675.197	1	-4
676.383	1	-4
677.569	1	-6
678.754	1	10
679.940	1	6
681.125	1	10
682.311	1	-4
683.496	1	7
684.682	1	3
685.867	1	8
687.053	1	-10
688.238	1	-2
688.746	1	-11

File: GaN_sample D_spot 18_UVVIS_170 K_200um_550 ms 2x2mm1_227.txt
340.368	1	5
341.565	1	-2
342.763	1	2
343.960	1	-4
345.157	1	12
346.354	1	-4
347.552	1	8
348.749	1	4
349.946	1	10
351.143	1	4
352.340	1	-1
353.537	1	2
354.734	1	5
355.931	1	-1
357.127	1	-5
358.324	1	4
359.521	1	7
360.718	1	11
361.914	1	0
363.111	1	10
364.308	1	9
365.504	1	8
366.701	1	17
367.897	1	5
369.093	1	5
370.290	1	8
371.486	1	5
372.682	1	15
373.879	1	18
375.075	1	10
376.271	1	10
377.467	1	3
378.663	1	10
379.859	1	8
381.055	1	8
382.251	1	10
383.447	1	10
384.643	1	7
385.839	1	3
387.035	1	9
388.230	1	3
389.426	1	4
390.622	1	-5
391.817	1	4
393.013	1	2
394.208	1	9
395.404	1	10
396.599	1	-15
397.795	1	6
398.990	1	-12
400.186	1	-6
401.381	1	6
402.576	1	-1
403.771	1	-2
404.967	1	8
406.162	1	4
407.357	1	-3
408.552	1	-4
409.747	1	2
410.942	1	1
412.137	1	-5
413.332	1	3
414.526	1	10
415.721	1	-7
416.916	1	-12
418.111	1	4
419.305	1	-4
420.500	1	-1
421.695	1	2
422.889	1	-3
424.084	1	17
425.278	1	-4
426.472	1	1
427.667	1	-1
428.861	1	-4
430.055	1	-7
431.250	1	7
432.444	1	6
433.638	1	10
434.832	1	2
436.026	1	3
437.220	1	0
438.414	1	-2
439.608	1	-8
440.802	1	11
441.996	1	3
443.190	1	-6
444.384	1	3
445.578	1	7
446.771	1	-4
447.965	1	5
449.159	1	5
450.352	1	-7
451.546	1	-10
452.739	1	3
453.933	1	7
455.126	1	11
456.320	1	9
457.513	1	18
458.706	1	7
459.899	1	6
461.093	1	9
462.286	1	-6
463.479	1	1
464.672	1	-10
465.865	1	-1
467.058	1	11
468.251	1	3
469.444	1	0
470.637	1	-4
471.830	1	7
473.023	1	0
474.215	1	2
475.408	1	-2
476.601	1	5
477.793	1	7
478.986	1	6
480.179	1	0
481.371	1	1
482.564	1	-7
483.756	1	13
484.948	1	5
486.141	1	9
487.333	1	1
488.525	1	5
489.718	1	7
490.910	1	-2
492.102	1	8
493.294	1	-5
494.486	1	9
495.678	1	-1
496.870	1	-1
498.062	1	0
499.254	1	10
500.446	1	-2
501.638	1	2
502.829	1	6
504.021	1	8
505.213	1	2
506.404	1	7
507.596	1	8
508.788	1	-10
509.979	1	8
511.171	1	-3
512.362	1	1
513.553	1	2
514.745	1	-3
515.936	1	3
517.127	1	6
518.319	1	-4
519.510	1	9
520.701	1	7
521.892	1	-1
523.083	1	2
524.274	1	6
525.465	1	1
526.656	1	10
527.847	1	2
529.038	1	2
530.229	1	8
531.419	1	16
532.610	1	14
533.801	1	10
534.991	1	-3
536.182	1	1
537.373	1	-2
538.563	1	4
539.754	1	0
540.944	1	1
542.134	1	-4
543.325	1	5
544.515	1	-2
545.705	1	4
546.896	1	7
548.086	1	7
549.276	1	4
550.466	1	-3
551.656	1	6
552.846	1	-10
554.036	1	-1
555.226	1	-2
556.416	1	-3
557.606	1	2
558.796	1	7
559.986	1	7
561.175	1	-14
562.365	1	-5
563.555	1	2
564.744	1	6
565.934	1	8
567.123	1	7
568.313	1	0
569.502	1	4
570.692	1	11
571.881	1	3
573.070	1	0
574.260	1	4
575.449	1	7
576.638	1	8
577.827	1	-3
579.016	1	-2
580.205	1	2
581.394	1	0
582.583	1	5
583.772	1	-5
584.961	1	9
586.150	1	-8
587.339	1	-5
588.528	1	-3
589.717	1	12
590.905	1	8
592.094	1	10
593.283	1	5
594.471	1	10
595.660	1	3
596.848	1	4
598.037	1	4
599.225	1	3
600.413	1	-3
601.602	1	6
602.790	1	13
603.978	1	-1
605.166	1	6
606.355	1	9
607.543	1	12
608.731	1	13
609.919	1	-2
611.107	1	0
612.295	1	-2
613.483	1	1
614.671	1	5
615.858	1	6
617.046	1	-13
618.234	1	2
619.422	1	-3
620.609	1	1
621.797	1	4
622.985	1	4
624.172	1	3
625.360	1	3
626.547	1	-3
627.735	1	-6
628.922	1	-4
630.109	1	2
631.297	1	-3
632.484	1	4
633.671	1	2
634.858	1	7
636.045	1	4
637.232	1	8
638.419	1	-9
639.606	1	-1
640.793	1	-7
641.980	1	-9
643.167	1	-1
644.354	1	3
645.541	1	7
646.728	1	-5
647.914	1	1
649.101	1	2
650.288	1	2
651.474	1	9
652.661	1	-2
653.847	1	13
655.034	1	-6
656.220	1	9
657.406	1	4
658.593	1	-3
659.779	1	2
660.965	1	5
662.152	1	-7
663.338	1	3
664.524	1	6
665.710	1	-2
666.896	1	-1
668.082	1	9
669.268	1	-8
670.454	1	-5
671.640	1	9
672.826	1	1
674.011	1	0
675.197	1	9
676.383	1	7
677.569	1	0
678.754	1	-3
679.940	1	12
681.125	1	2
682.311	1	-7
683.496	1	9
684.682	1	0
685.867	1	8
687.053	1	-9
688.238	1	0
688.746	1	-4

File: GaN_sample D_spot 18_UVVIS_170 K_200um_550 ms 2x2mm1_231.txt
340.368	1	-2
341.565	1	-3
342.763	1	13
343.960	1	-8
345.157	1	-4
346.354	1	-4
347.552	1	16
348.749	1	7
349.946	1	10
351.143	1	-7
352.340	1	4
353.537	1	2
354.734	1	7
355.931	1	-5
357.127	1	3
358.324	1	6
359.521	1	9
360.718	1	2
361.914	1	3
363.111	1	12
364.308	1	8
365.504	1	11
366.701	1	13
367.897	1	11
369.093	1	-1
370.290	1	10
371.486	1	7
372.682	1	13
373.879	1	8
375.075	1	3
376.271	1	11
377.467	1	14
378.663	1	2
379.859	1	6
381.055	1	11
382.251	1	0
383.447	1	15
384.643	1	-5
385.839	1	3
387.035	1	2
388.230	1	-5
389.426	1	5
390.622	1	2
391.817	1	13
393.013	1	9
394.208	1	14
395.404	1	8
396.599	1	1
397.795	1	3
398.990	1	-6
400.186	1	-5
401.381	1	9
402.576	1	8
403.771	1	2
404.967	1	4
406.162	1	3
407.357	1	-3
408.552	1	-3
409.747	1	0
410.942	1	4
412.137	1	-5
413.332	1	-3
414.526	1	-1
415.721	1	-4
416.916	1	-8
418.111	1	13
419.305	1	-1
420.500	1	5
421.695	1	5
422.889	1	-4
424.084	1	15
425.278	1	-5
426.472	1	0
427.667	1	4
428.861	1	-4
430.055	1	1
431.250	1	16
432.444	1	-1
433.638	1	6
434.832	1	9
436.026	1	4
437.220	1	-9
438.414	1	-7
439.608	1	-5
440.802	1	8
441.996	1	6
443.190	1	-3
444.384	1	-2
445.578	1	8
446.771	1	-6
447.965	1	2
449.159	1	1
450.352	1	-3
451.546	1	-10
452.739	1	-8
453.933	1	0
455.126	1	17
456.320	1	0
457.513	1	9
458.706	1	11
459.899	1	2
461.093	1	3
462.286	1	-4
463.479	1	-4
464.672	1	-5
465.865	1	5
467.058	1	7
468.251	1	-1
469.444	1	1
470.637	1	2
471.830	1	5
473.023	1	7
474.215	1	-2
475.408	1	-6
476.601	1	4
477.793	1	7
478.986	1	-9
480.179	1	-5
481.371	1	0
482.564	1	-5
483.756	1	5
484.948	1	-1
486.141	1	6
487.333	1	-5
488.525	1	12
489.718	1	17
490.910	1	-3
492.102	1	-1
493.294	1	-1
494.486	1	4
495.678	1	-1
496.870	1	-2
498.062	1	-5
499.254	1	3
500.446	1	-2
501.638	1	-4
502.829	1	5
504.021	1	0
505.213	1	0
506.404	1	2
507.596	1	3
508.788	1	-5
509.979	1	6
511.171	1	-1
512.362	1	-6
513.553	1	-3
514.745	1	-7
515.936	1	1
517.127	1	9
518.319	1	3
519.510	1	9
520.701	1	-1
521.892	1	1
523.083	1	1
524.274	1	1
525.465	1	2
526.656	1	5
527.847	1	-3
529.038	1	2
530.229	1	14
531.419	1	9
532.610	1	-2
533.801	1	11
534.991	1	2
536.182	1	-3
537.373	1	3
538.563	1	10
539.754	1	6
540.944	1	-8
542.134	1	-3
543.325	1	4
544.515	1	0
545.705	1	7
546.896	1	11
548.086	1	5
549.276	1	2
550.466	1	-3
551.656	1	-1
552.846	1	-3
554.036	1	2
555.226	1	-5
556.416	1	-4
557.606	1	2
558.796	1	7
559.986	1	8
561.175	1	-11
562.365	1	-2
563.555	1	0
564.744	1	5
565.934	1	11
567.123	1	1
568.313	1	-1
569.502	1	-2
570.692	1	9
571.881	1	-4
573.070	1	0
574.260	1	-7
575.449	1	2
576.638	1	1
577.827	1	-7
579.016	1	5
580.205	1	0
581.394	1	2
582.583	1	0
583.772	1	2
584.961	1	-2
586.150	1	2
587.339	1	2
588.528	1	-3
589.717	1	5
590.905	1	4
592.094	1	14
593.283	1	2
594.471	1	8
595.660	1	5
596.848	1	1
598.037	1	3
599.225	1	6
600.413	1	-6
601.602	1	0
602.790	1	15
603.978	1	5
605.166	1	8
606.355	1	5
607.543	1	9
608.731	1	3
609.919	1	3
611.107	1	2
612.295	1	-1
613.483	1	2
614.671	1	0
615.858	1	-9
617.046	1	-11
618.234	1	-5
619.422	1	-9
620.609	1	9
621.797	1	6
622.985	1	4
624.172	1	-4
625.360	1	0
626.547	1	-8
627.735	1	-14
628.922	1	0
630.109	1	2
631.297	1	-5
632.484	1	-1
633.671	1	7
634.858	1	5
636.045	1	0
637.232	1	-10
638.419	1	-7
639.606	1	2
640.793	1	-6
641.980	1	-5
643.167	1	-5
644.354	1	5
645.541	1	-8
646.728	1	8
647.914	1	2
649.101	1	-1
650.288	1	2
651.474	1	6
652.661	1	-1
653.847	1	8
655.034	1	-2
656.220	1	-2
657.406	1	1
658.593	1	1
659.779	1	4
660.965	1	6
662.152	1	4
663.338	1	9
664.524	1	5
665.710	1	10
666.896	1	6
668.082	1	9
669.268	1	-9
670.454	1	-6
671.640	1	4
672.826	1	-6
674.011	1	10
675.197	1	11
676.383	1	-3
677.569	1	-8
678.754	1	10
679.940	1	2
681.125	1	9
682.311	1	-7
683.496	1	11
684.682	1	11
685.867	1	10
687.053	1	-4
688.238	1	-2
688.746	1	-13

File: GaN_sample D_spot 18_UVVIS_170 K_200um_550 ms 2x2mm1_232.txt
340.368	1	1
341.565	1	12
342.763	1	7
343.960	1	1
345.157	1	-3
346.354	1	-11
347.552	1	4
348.749	1	6
349.946	1	7
351.143	1	-3
352.340	1	4
353.537	1	11
354.734	1	3
355.931	1	0
357.127	1	-4
358.324	1	13
359.521	1	3
360.718	1	5
361.914	1	-3
363.111	1	15
364.308	1	15
365.504	1	0
366.701	1	15
367.897	1	10
369.093	1	2
370.290	1	10
371.486	1	0
372.682	1	18
373.879	1	12
375.075	1	0
376.271	1	12
377.467	1	9
378.663	1	13
379.859	1	13
381.055	1	0
382.251	1	6
383.447	1	10
384.643	1	-5
385.839	1	-7
387.035	1	-1
388.230	1	4
389.426	1	10
390.622	1	0
391.817	1	2
393.013	1	3
394.208	1	7
395.404	1	10
396.599	1	-12
397.795	1	-3
398.990	1	-4
400.186	1	-5
401.381	1	2
402.576	1	-3
403.771	1	5
404.967	1	8
406.162	1	6
407.357	1	-6
408.552	1	1
409.747	1	-3
410.942	1	3
412.137	1	-14
413.332	1	-1
414.526	1	0
415.721	1	1
416.916	1	1
418.111	1	9
419.305	1	1
420.500	1	3
421.695	1	-2
422.889	1	0
424.084	1	16
425.278	1	2
426.472	1	-4
427.667	1	9
428.861	1	3
430.055	1	-4
431.250	1	2
432.444	1	12
433.638	1	11
434.832	1	1
436.026	1	0
437.220	1	7
438.414	1	-5
439.608	1	4
440.802	1	0
441.996	1	-10
443.190	1	-4
444.384	1	-1
445.578	1	9
446.771	1	-7
447.965	1	3
449.159	1	6
450.352	1	-6
451.546	1	-9
452.739	1	3
453.933	1	1
455.126	1	10
456.320	1	4
457.513	1	12
458.706	1	14
459.899	1	0
461.093	1	8
462.286	1	-1
463.479	1	-6
464.672	1	1
465.865	1	7
467.058	1	7
468.251	1	-4
469.444	1	-1
470.637	1	-2
471.830	1	-2
473.023	1	-3
474.215	1	-6
475.408	1	-6
476.601	1	1
477.793	1	8
478.986	1	-7
480.179	1	-1
481.371	1	6
482.564	1	-6
483.756	1	-4
484.948	1	2
486.141	1	2
487.333	1	0
488.525	1	11
489.718	1	6
490.910	1	-6
492.102	1	10
493.294	1	-6
494.486	1	6
495.678	1	0
496.870	1	3
498.062	1	1
499.254	1	0
500.446	1	7
501.638	1	-5
502.829	1	5
504.021	1	-4
505.213	1	0
506.404	1	9
507.596	1	4
508.788	1	-1
509.979	1	4
511.171	1	2
512.362	1	7
513.553	1	6
514.745	1	0
515.936	1	-4
517.127	1	11
518.319	1	5
519.510	1	8
520.701	1	6
521.892	1	5
523.083	1	5
524.274	1	3
525.465	1	6
526.656	1	5
527.847	1	0
529.038	1	3
530.229	1	6
531.419	1	4
532.610	1	2
533.801	1	12
534.991	1	2
536.182	1	1
537.373	1	-5
538.563	1	5
539.754	1	0
540.944	1	6
542.134	1	11
543.325	1	0
544.515	1	2
545.705	1	11
546.896	1	3
548.086	1	-2
549.276	1	2
550.466	1	-5
551.656	1	3
552.846	1	-5
554.036	1	-2
555.226	1	-1
556.416	1	0
557.606	1	2
558.796	1	-2
559.986	1	-3
561.175	1	-1
562.365	1	-1
563.555	1	10
564.744	1	-2
565.934	1	4
567.123	1	3
568.313	1	5
569.502	1	-1
570.692	1	9
571.881	1	-8
573.070	1	6
574.260	1	6
575.449	1	1
576.638	1	4
577.827	1	3
579.016	1	11
580.205	1	-5
581.394	1	3
582.583	1	-8
583.772	1	2
584.961	1	-1
586.150	1	-6
587.339	1	-3
588.528	1	-2
589.717	1	-1
590.905	1	-2
592.094	1	6
593.283	1	7
594.471	1	11
595.660	1	6
596.848	1	-5
598.037	1	-3
599.225	1	0
600.413	1	-2
601.602	1	2
602.790	1	8
603.978	1	6
605.166	1	6
606.355	1	9
607.543	1	8
608.731	1	1
609.919	1	-3
611.107	1	-6
612.295	1	3
613.483	1	4
614.671	1	5
615.858	1	1
617.046	1	0
618.234	1	4
619.422	1	1
620.609	1	3
621.797	1	7
622.985	1	3
624.172	1	2
625.360	1	2
626.547	1	-3
627.735	1	-5
628.922	1	-5
630.109	1	-2
631.297	1	3
632.484	1	1
633.671	1	-3
634.858	1	0
636.045	1	7
637.232	1	8
638.419	1	-8
639.606	1	3
640.793	1	-2
641.980	1	-7
643.167	1	-2
644.354	1	7
645.541	1	2
646.728	1	4
647.914	1	-5
649.101	1	8
650.288	1	-3
651.474	1	5
652.661	1	8
653.847	1	3
655.034	1	-5
656.220	1	8
657.406	1	6
658.593	1	2
659.779	1	-2
660.965	1	13
662.152	1	0
663.338	1	4
664.524	1	6
665.710	1	3
666.896	1	2
668.082	1	11
669.268	1	-4
670.454	1	5
671.640	1	2
672.826	1	-3
674.011	1	7
675.197	1	2
676.383	1	5
677.569	1	-6
678.754	1	1
679.940	1	9
681.125	1	3
682.311	1	-6
683.496	1	2
684.682	1	3
685.867	1	9
687.053	1	-2
688.238	1	0
688.746	1	-2

File: GaN_sample D_spot 18_UVVIS_170 K_200um_550 ms 2x2mm1_236.txt
340.368	1	-4
341.565	1	-1
342.763	1	6
343.960	1	1
345.157	1	-8
346.354	1	-3
347.552	1	4
348.749	1	13
349.946	1	4
351.143	1	-2
352.340	1	2
353.537	1	-1
354.734	1	11
355.931	1	-4
357.127	1	3
358.324	1	7
359.521	1	9
360.718	1	1
361.914	1	0
363.111	1	10
364.308	1	11
365.504	1	6
366.701	1	11
367.897	1	10
369.093	1	-2
370.290	1	23
371.486	1	7
372.682	1	8
373.879	1	23
375.075	1	1
376.271	1	19
377.467	1	10
378.663	1	4
379.859	1	10
381.055	1	3
382.251	1	1
383.447	1	13
384.643	1	5
385.839	1	-5
387.035	1	3
388.230	1	1
389.426	1	7
390.622	1	0
391.817	1	9
393.013	1	7
394.208	1	4
395.404	1	8
396.599	1	-5
397.795	1	1
398.990	1	-7
400.186	1	-1
401.381	1	11
402.576	1	8
403.771	1	4
404.967	1	11
406.162	1	8
407.357	1	5
408.552	1	5
409.747	1	-5
410.942	1	4
412.137	1	-15
413.332	1	-4
414.526	1	-1
415.721	1	-1
416.916	1	-7
418.111	1	11
419.305	1	-4
420.500	1	1
421.695	1	-9
422.889	1	3
424.084	1	15
425.278	1	1
426.472	1	2
427.667	1	3
428.861	1	-3
430.055	1	-1
431.250	1	10
432.444	1	13
433.638	1	9
434.832	1	5
436.026	1	2
437.220	1	1
438.414	1	-6
439.608	1	5
440.802	1	7
441.996	1	0
443.190	1	-8
444.384	1	7
445.578	1	-3
446.771	1	-9
447.965	1	-5
449.159	1	-1
450.352	1	0
451.546	1	-11
452.739	1	-4
453.933	1	1
455.126	1	3
456.320	1	5
457.513	1	1
458.706	1	9
459.899	1	0
461.093	1	2
462.286	1	5
463.479	1	-2
464.672	1	0
465.865	1	5
467.058	1	2
468.251	1	2
469.444	1	0
470.637	1	3
471.830	1	6
473.023	1	3
474.215	1	-1
475.408	1	-4
476.601	1	3
477.793	1	20
478.986	1	-3
480.179	1	-3
481.371	1	6
482.564	1	2
483.756	1	-5
484.948	1	-13
486.141	1	17
487.333	1	-1
488.525	1	4
489.718	1	4
490.910	1	1
492.102	1	3
493.294	1	6
494.486	1	3
495.678	1	4
496.870	1	4
498.062	1	-6
499.254	1	12
500.446	1	3
501.638	1	-9
502.829	1	5
504.021	1	4
505.213	1	-6
506.404	1	6
507.596	1	4
508.788	1	-2
509.979	1	2
511.171	1	1
512.362	1	5
513.553	1	4
514.745	1	4
515.936	1	4
517.127	1	10
518.319	1	-1
519.510	1	6
520.701	1	9
521.892	1	6
523.083	1	3
524.274	1	-1
525.465	1	4
526.656	1	4
527.847	1	-1
529.038	1	-5
530.229	1	16
531.419	1	13
532.610	1	2
533.801	1	7
534.991	1	4
536.182	1	8
537.373	1	3
538.563	1	1
539.754	1	4
540.944	1	-3
542.134	1	-4
543.325	1	11
544.515	1	3
545.705	1	3
546.896	1	8
548.086	1	-1
549.276	1	3
550.466	1	2
551.656	1	9
552.846	1	3
554.036	1	2
555.226	1	-14
556.416	1	-4
557.606	1	6
558.796	1	9
559.986	1	6
561.175	1	-3
562.365	1	7
563.555	1	-1
564.744	1	4
565.934	1	8
567.123	1	4
568.313	1	-6
569.502	1	5
570.692	1	9
571.881	1	-2
573.070	1	5
574.260	1	6
575.449	1	-2
576.638	1	4
577.827	1	2
579.016	1	5
580.205	1	-5
581.394	1	9
582.583	1	4
583.772	1	2
584.961	1	0
586.150	1	-8
587.339	1	-2
588.528	1	-4
589.717	1	0
590.905	1	5
592.094	1	5
593.283	1	4
594.471	1	9
595.660	1	-1
596.848	1	4
598.037	1	6
599.225	1	-1
600.413	1	-8
601.602	1	4
602.790	1	9
603.978	1	-1
605.166	1	10
606.355	1	2
607.543	1	10
608.731	1	8
609.919	1	4
611.107	1	1
612.295	1	-1
613.483	1	-7
614.671	1	4
615.858	1	7
617.046	1	-1
618.234	1	2
619.422	1	-10
620.609	1	0
621.797	1	1
622.985	1	-2
624.172	1	2
625.360	1	9
626.547	1	-12
627.735	1	-19
628.922	1	-2
630.109	1	-4
631.297	1	2
632.484	1	-6
633.671	1	0
634.858	1	2
636.045	1	7
637.232	1	0
638.419	1	-6
639.606	1	9
640.793	1	-8
641.980	1	-6
643.167	1	-11
644.354	1	0
645.541	1	8
646.728	1	1
647.914	1	-1
649.101	1	2
650.288	1	-8
651.474	1	2
652.661	1	5
653.847	1	-5
655.034	1	1
656.220	1	-8
657.406	1	-4
658.593	1	9
659.779	1	10
660.965	1	6
662.152	1	7
663.338	1	-5
664.524	1	9
665.710	1	8
666.896	1	13
668.082	1	10
669.268	1	-6
670.454	1	-7
671.640	1	8
672.826	1	3
674.011	1	4
675.197	1	9
676.383	1	-4
677.569	1	0
678.754	1	-2
679.940	1	7
681.125	1	-4
682.311	1	7
683.496	1	5
684.682	1	5
685.867	1	5
687.053	1	-5
688.238	1	-2
688.746	1	732

File: GaN_sample D_spot 18_UVVIS_170 K_200um_550 ms 2x2mm1_244.txt
340.368	1	5
341.565	1	3
342.763	1	7
343.960	1	3
345.157	1	-1
346.354	1	-10
347.552	1	9
348.749	1	9
349.946	1	5
351.143	1	0
352.340	1	5
353.537	1	-4
354.734	1	4
355.931	1	5
357.127	1	-4
358.324	1	20
359.521	1	-1
360.718	1	7
361.914	1	2
363.111	1	19
364.308	1	2
365.504	1	8
366.701	1	15
367.897	1	10
369.093	1	9
370.290	1	5
371.486	1	4
372.682	1	12
373.879	1	2
375.075	1	5
376.271	1	9
377.467	1	7
378.663	1	3
379.859	1	5
381.055	1	8
382.251	1	9
383.447	1	6
384.643	1	-2
385.839	1	-5
387.035	1	8
388.230	1	0
389.426	1	7
390.622	1	0
391.817	1	-1
393.013	1	-5
394.208	1	-1
395.404	1	7
396.599	1	3
397.795	1	1
398.990	1	-8
400.186	1	-4
401.381	1	9
402.576	1	-3
403.771	1	2
404.967	1	6
406.162	1	-1
407.357	1	2
408.552	1	-2
409.747	1	4
410.942	1	2
412.137	1	-12
413.332	1	-2
414.526	1	2
415.721	1	-2
416.916	1	-13
418.111	1	9
419.305	1	7
420.500	1	-2
421.695	1	-7
422.889	1	-1
424.084	1	8
425.278	1	-4
426.472	1	-2
427.667	1	5
428.861	1	-4
430.055	1	-7
431.250	1	9
432.444	1	-4
433.638	1	3
434.832	1	5
436.026	1	4
437.220	1	1
438.414	1	-9
439.608	1	7
440.802	1	5
441.996	1	-5
443.190	1	-6
444.384	1	-7
445.578	1	7
446.771	1	-3
447.965	1	-1
449.159	1	-3
450.352	1	3
451.546	1	-10
452.739	1	1
453.933	1	-5
455.126	1	10
456.320	1	-1
457.513	1	12
458.706	1	14
459.899	1	9
461.093	1	4
462.286	1	-5
463.479	1	0
464.672	1	-1
465.865	1	5
467.058	1	-2
468.251	1	-8
469.444	1	-5
470.637	1	2
471.830	1	10
473.023	1	3
474.215	1	4
475.408	1	-7
476.601	1	-1
477.793	1	6
478.986	1	5
480.179	1	-1
481.371	1	-4
482.564	1	-1
483.756	1	3
484.948	1	4
486.141	1	14
487.333	1	-6
488.525	1	3
489.718	1	8
490.910	1	1
492.102	1	9
493.294	1	-2
494.486	1	7
495.678	1	7
496.870	1	5
498.062	1	8
499.254	1	11
500.446	1	8
501.638	1	-8
502.829	1	4
504.021	1	-1
505.213	1	4
506.404	1	9
507.596	1	7
508.788	1	-13
509.979	1	-1
511.171	1	3
512.362	1	5
513.553	1	0
514.745	1	-6
515.936	1	-3
517.127	1	2
518.319	1	1
519.510	1	8
520.701	1	1
521.892	1	5
523.083	1	4
524.274	1	-1
525.465	1	-3
526.656	1	11
527.847	1	3
529.038	1	-4
530.229	1	9
531.419	1	5
532.610	1	5
533.801	1	17
534.991	1	2
536.182	1	0
537.373	1	-3
538.563	1	5
539.754	1	3
540.944	1	-2
542.134	1	0
543.325	1	5
544.515	1	3
545.705	1	10
546.896	1	7
548.086	1	3
549.276	1	5
550.466	1	-5
551.656	1	2
552.846	1	-1
554.036	1	6
555.226	1	-6
556.416	1	2
557.606	1	6
558.796	1	1
559.986	1	0
561.175	1	-3
562.365	1	7
563.555	1	12
564.744	1	6
565.934	1	0
567.123	1	6
568.313	1	1
569.502	1	-7
570.692	1	4
571.881	1	-7
573.070	1	0
574.260	1	2
575.449	1	8
576.638	1	4
577.827	1	-3
579.016	1	-1
580.205	1	0
581.394	1	5
582.583	1	4
583.772	1	5
584.961	1	3
586.150	1	-4
587.339	1	5
588.528	1	-8
589.717	1	14
590.905	1	7
592.094	1	3
593.283	1	18
594.471	1	5
595.660	1	2
596.848	1	3
598.037	1	6
599.225	1	6
600.413	1	-10
601.602	1	-3
602.790	1	9
603.978	1	8
605.166	1	4
606.355	1	11
607.543	1	15
608.731	1	5
609.919	1	3
611.107	1	-3
612.295	1	1
613.483	1	-5
614.671	1	8
615.858	1	2
617.046	1	2
618.234	1	-1
619.422	1	-4
620.609	1	6
621.797	1	2
622.985	1	7
624.172	1	1
625.360	1	2
626.547	1	-7
627.735	1	-10
628.922	1	-15
630.109	1	-3
631.297	1	-1
632.484	1	-5
633.671	1	0
634.858	1	1
636.045	1	7
637.232	1	3
638.419	1	-3
639.606	1	-4
640.793	1	-4
641.980	1	-5
643.167	1	1
644.354	1	-5
645.541	1	7
646.728	1	2
647.914	1	-2
649.101	1	3
650.288	1	-1
651.474	1	3
652.661	1	10
653.847	1	-6
655.034	1	4
656.220	1	7
657.406	1	3
658.593	1	5
659.779	1	-2
660.965	1	13
662.152	1	5
663.338	1	15
664.524	1	-6
665.710	1	3
666.896	1	-9
668.082	1	7
669.268	1	-6
670.454	1	-3
671.640	1	7
672.826	1	0
674.011	1	2
675.197	1	7
676.383	1	7
677.569	1	-2
678.754	1	8
679.940	1	8
681.125	1	1
682.311	1	-3
683.496	1	3
684.682	1	6
685.867	1	11
687.053	1	-6
688.238	1	-9
688.746	1	-3