Folder: cryo-il_analysis/Data/GaN_150K_450ms (part 16)

File: GaN_sample D_spot15_UVVIS_150 K_200um_450 ms 2x2mm1_131.txt
340.368	1	2
341.565	1	12
342.763	1	8
343.960	1	9
345.157	1	13
346.354	1	6
347.552	1	17
348.749	1	5
349.946	1	0
351.143	1	10
352.340	1	7
353.537	1	-2
354.734	1	7
355.931	1	16
357.127	1	16
358.324	1	5
359.521	1	17
360.718	1	13
361.914	1	16
363.111	1	18
364.308	1	28
365.504	1	42
366.701	1	43
367.897	1	39
369.093	1	50
370.290	1	48
371.486	1	49
372.682	1	28
373.879	1	33
375.075	1	17
376.271	1	22
377.467	1	35
378.663	1	18
379.859	1	10
381.055	1	8
382.251	1	7
383.447	1	10
384.643	1	1
385.839	1	16
387.035	1	19
388.230	1	9
389.426	1	3
390.622	1	11
391.817	1	1
393.013	1	19
394.208	1	5
395.404	1	15
396.599	1	12
397.795	1	6
398.990	1	15
400.186	1	3
401.381	1	8
402.576	1	16
403.771	1	1
404.967	1	4
406.162	1	4
407.357	1	6
408.552	1	4
409.747	1	8
410.942	1	16
412.137	1	12
413.332	1	11
414.526	1	6
415.721	1	12
416.916	1	5
418.111	1	22
419.305	1	19
420.500	1	14
421.695	1	15
422.889	1	11
424.084	1	10
425.278	1	11
426.472	1	10
427.667	1	14
428.861	1	25
430.055	1	23
431.250	1	16
432.444	1	14
433.638	1	14
434.832	1	7
436.026	1	1
437.220	1	22
438.414	1	15
439.608	1	2
440.802	1	15
441.996	1	5
443.190	1	22
444.384	1	18
445.578	1	-8
446.771	1	18
447.965	1	7
449.159	1	-2
450.352	1	2
451.546	1	14
452.739	1	6
453.933	1	-2
455.126	1	10
456.320	1	13
457.513	1	13
458.706	1	7
459.899	1	1
461.093	1	9
462.286	1	2
463.479	1	-6
464.672	1	8
465.865	1	5
467.058	1	4
468.251	1	4
469.444	1	14
470.637	1	10
471.830	1	9
473.023	1	9
474.215	1	7
475.408	1	7
476.601	1	11
477.793	1	11
478.986	1	16
480.179	1	2
481.371	1	-2
482.564	1	2
483.756	1	6
484.948	1	6
486.141	1	4
487.333	1	-1
488.525	1	-1
489.718	1	3
490.910	1	6
492.102	1	6
493.294	1	-9
494.486	1	5
495.678	1	7
496.870	1	-1
498.062	1	7
499.254	1	5
500.446	1	2
501.638	1	6
502.829	1	5
504.021	1	11
505.213	1	-1
506.404	1	15
507.596	1	24
508.788	1	13
509.979	1	11
511.171	1	20
512.362	1	14
513.553	1	10
514.745	1	16
515.936	1	9
517.127	1	24
518.319	1	7
519.510	1	12
520.701	1	19
521.892	1	11
523.083	1	6
524.274	1	12
525.465	1	13
526.656	1	11
527.847	1	11
529.038	1	18
530.229	1	16
531.419	1	20
532.610	1	9
533.801	1	17
534.991	1	13
536.182	1	14
537.373	1	15
538.563	1	9
539.754	1	9
540.944	1	15
542.134	1	16
543.325	1	15
544.515	1	16
545.705	1	14
546.896	1	15
548.086	1	23
549.276	1	11
550.466	1	5
551.656	1	18
552.846	1	9
554.036	1	17
555.226	1	12
556.416	1	15
557.606	1	-3
558.796	1	8
559.986	1	14
561.175	1	5
562.365	1	5
563.555	1	13
564.744	1	9
565.934	1	15
567.123	1	13
568.313	1	12
569.502	1	12
570.692	1	9
571.881	1	3
573.070	1	13
574.260	1	10
575.449	1	8
576.638	1	14
577.827	1	4
579.016	1	10
580.205	1	6
581.394	1	5
582.583	1	10
583.772	1	5
584.961	1	-5
586.150	1	4
587.339	1	9
588.528	1	-2
589.717	1	5
590.905	1	4
592.094	1	13
593.283	1	4
594.471	1	-13
595.660	1	21
596.848	1	3
598.037	1	8
599.225	1	5
600.413	1	3
601.602	1	2
602.790	1	9
603.978	1	3
605.166	1	9
606.355	1	2
607.543	1	4
608.731	1	-1
609.919	1	-3
611.107	1	14
612.295	1	3
613.483	1	-3
614.671	1	7
615.858	1	-5
617.046	1	12
618.234	1	2
619.422	1	13
620.609	1	3
621.797	1	7
622.985	1	-1
624.172	1	-2
625.360	1	6
626.547	1	4
627.735	1	7
628.922	1	7
630.109	1	7
631.297	1	1
632.484	1	17
633.671	1	16
634.858	1	1
636.045	1	0
637.232	1	2
638.419	1	-2
639.606	1	11
640.793	1	4
641.980	1	11
643.167	1	5
644.354	1	9
645.541	1	9
646.728	1	4
647.914	1	13
649.101	1	2
650.288	1	12
651.474	1	-2
652.661	1	3
653.847	1	0
655.034	1	2
656.220	1	-1
657.406	1	9
658.593	1	8
659.779	1	11
660.965	1	0
662.152	1	1
663.338	1	-7
664.524	1	9
665.710	1	2
666.896	1	7
668.082	1	7
669.268	1	8
670.454	1	9
671.640	1	0
672.826	1	-3
674.011	1	9
675.197	1	8
676.383	1	9
677.569	1	7
678.754	1	5
679.940	1	3
681.125	1	5
682.311	1	10
683.496	1	-1
684.682	1	5
685.867	1	5
687.053	1	18
688.238	1	20
688.746	1	5

File: GaN_sample D_spot15_UVVIS_150 K_200um_450 ms 2x2mm1_132.txt
340.368	1	-3
341.565	1	1
342.763	1	4
343.960	1	10
345.157	1	8
346.354	1	5
347.552	1	11
348.749	1	5
349.946	1	12
351.143	1	11
352.340	1	12
353.537	1	2
354.734	1	8
355.931	1	13
357.127	1	15
358.324	1	13
359.521	1	22
360.718	1	9
361.914	1	7
363.111	1	19
364.308	1	39
365.504	1	37
366.701	1	38
367.897	1	45
369.093	1	47
370.290	1	56
371.486	1	59
372.682	1	43
373.879	1	20
375.075	1	15
376.271	1	19
377.467	1	33
378.663	1	13
379.859	1	22
381.055	1	1
382.251	1	3
383.447	1	8
384.643	1	0
385.839	1	8
387.035	1	21
388.230	1	7
389.426	1	-4
390.622	1	5
391.817	1	-3
393.013	1	10
394.208	1	0
395.404	1	15
396.599	1	15
397.795	1	9
398.990	1	19
400.186	1	12
401.381	1	14
402.576	1	10
403.771	1	-10
404.967	1	14
406.162	1	10
407.357	1	18
408.552	1	18
409.747	1	12
410.942	1	18
412.137	1	6
413.332	1	8
414.526	1	2
415.721	1	10
416.916	1	7
418.111	1	11
419.305	1	22
420.500	1	11
421.695	1	13
422.889	1	6
424.084	1	9
425.278	1	9
426.472	1	10
427.667	1	10
428.861	1	12
430.055	1	14
431.250	1	8
432.444	1	19
433.638	1	24
434.832	1	6
436.026	1	2
437.220	1	10
438.414	1	9
439.608	1	2
440.802	1	13
441.996	1	8
443.190	1	7
444.384	1	14
445.578	1	10
446.771	1	9
447.965	1	12
449.159	1	-6
450.352	1	0
451.546	1	5
452.739	1	13
453.933	1	3
455.126	1	9
456.320	1	15
457.513	1	-3
458.706	1	11
459.899	1	-4
461.093	1	5
462.286	1	4
463.479	1	5
464.672	1	8
465.865	1	-6
467.058	1	5
468.251	1	4
469.444	1	0
470.637	1	-2
471.830	1	8
473.023	1	11
474.215	1	2
475.408	1	4
476.601	1	2
477.793	1	3
478.986	1	8
480.179	1	10
481.371	1	4
482.564	1	7
483.756	1	6
484.948	1	12
486.141	1	9
487.333	1	7
488.525	1	7
489.718	1	-7
490.910	1	14
492.102	1	1
493.294	1	3
494.486	1	8
495.678	1	8
496.870	1	13
498.062	1	11
499.254	1	5
500.446	1	4
501.638	1	10
502.829	1	9
504.021	1	6
505.213	1	5
506.404	1	15
507.596	1	11
508.788	1	9
509.979	1	10
511.171	1	7
512.362	1	13
513.553	1	7
514.745	1	3
515.936	1	5
517.127	1	12
518.319	1	5
519.510	1	3
520.701	1	20
521.892	1	24
523.083	1	10
524.274	1	10
525.465	1	16
526.656	1	16
527.847	1	10
529.038	1	7
530.229	1	23
531.419	1	9
532.610	1	26
533.801	1	10
534.991	1	9
536.182	1	14
537.373	1	4
538.563	1	12
539.754	1	17
540.944	1	13
542.134	1	11
543.325	1	17
544.515	1	16
545.705	1	11
546.896	1	12
548.086	1	17
549.276	1	15
550.466	1	2
551.656	1	10
552.846	1	14
554.036	1	18
555.226	1	8
556.416	1	15
557.606	1	8
558.796	1	17
559.986	1	14
561.175	1	3
562.365	1	12
563.555	1	11
564.744	1	23
565.934	1	15
567.123	1	11
568.313	1	6
569.502	1	9
570.692	1	6
571.881	1	11
573.070	1	14
574.260	1	14
575.449	1	4
576.638	1	8
577.827	1	10
579.016	1	8
580.205	1	2
581.394	1	2
582.583	1	7
583.772	1	11
584.961	1	1
586.150	1	7
587.339	1	1
588.528	1	11
589.717	1	9
590.905	1	3
592.094	1	12
593.283	1	6
594.471	1	2
595.660	1	6
596.848	1	12
598.037	1	0
599.225	1	4
600.413	1	9
601.602	1	3
602.790	1	2
603.978	1	6
605.166	1	5
606.355	1	-2
607.543	1	8
608.731	1	-4
609.919	1	-3
611.107	1	7
612.295	1	4
613.483	1	0
614.671	1	5
615.858	1	-3
617.046	1	2
618.234	1	-4
619.422	1	13
620.609	1	0
621.797	1	2
622.985	1	0
624.172	1	6
625.360	1	14
626.547	1	0
627.735	1	-2
628.922	1	13
630.109	1	2
631.297	1	11
632.484	1	2
633.671	1	9
634.858	1	1
636.045	1	-7
637.232	1	2
638.419	1	4
639.606	1	13
640.793	1	-3
641.980	1	14
643.167	1	6
644.354	1	12
645.541	1	8
646.728	1	5
647.914	1	-4
649.101	1	-3
650.288	1	5
651.474	1	11
652.661	1	4
653.847	1	14
655.034	1	4
656.220	1	7
657.406	1	-5
658.593	1	5
659.779	1	1
660.965	1	4
662.152	1	7
663.338	1	4
664.524	1	14
665.710	1	9
666.896	1	6
668.082	1	-2
669.268	1	1
670.454	1	5
671.640	1	4
672.826	1	3
674.011	1	8
675.197	1	2
676.383	1	2
677.569	1	11
678.754	1	-1
679.940	1	-3
681.125	1	-1
682.311	1	1
683.496	1	5
684.682	1	6
685.867	1	-3
687.053	1	20
688.238	1	10
688.746	1	2

File: GaN_sample D_spot15_UVVIS_150 K_200um_450 ms 2x2mm1_135.txt
340.368	1	3
341.565	1	3
342.763	1	4
343.960	1	10
345.157	1	8
346.354	1	8
347.552	1	15
348.749	1	10
349.946	1	5
351.143	1	5
352.340	1	14
353.537	1	-1
354.734	1	13
355.931	1	13
357.127	1	11
358.324	1	8
359.521	1	13
360.718	1	18
361.914	1	24
363.111	1	20
364.308	1	27
365.504	1	31
366.701	1	51
367.897	1	46
369.093	1	53
370.290	1	51
371.486	1	39
372.682	1	31
373.879	1	29
375.075	1	17
376.271	1	20
377.467	1	32
378.663	1	15
379.859	1	14
381.055	1	13
382.251	1	3
383.447	1	11
384.643	1	11
385.839	1	4
387.035	1	13
388.230	1	14
389.426	1	2
390.622	1	3
391.817	1	2
393.013	1	16
394.208	1	6
395.404	1	20
396.599	1	9
397.795	1	4
398.990	1	13
400.186	1	11
401.381	1	12
402.576	1	7
403.771	1	-4
404.967	1	7
406.162	1	0
407.357	1	18
408.552	1	1
409.747	1	8
410.942	1	13
412.137	1	14
413.332	1	12
414.526	1	3
415.721	1	8
416.916	1	6
418.111	1	9
419.305	1	10
420.500	1	3
421.695	1	26
422.889	1	12
424.084	1	5
425.278	1	5
426.472	1	27
427.667	1	10
428.861	1	14
430.055	1	14
431.250	1	15
432.444	1	13
433.638	1	19
434.832	1	6
436.026	1	4
437.220	1	11
438.414	1	13
439.608	1	16
440.802	1	14
441.996	1	10
443.190	1	9
444.384	1	11
445.578	1	10
446.771	1	12
447.965	1	3
449.159	1	3
450.352	1	6
451.546	1	6
452.739	1	14
453.933	1	3
455.126	1	12
456.320	1	16
457.513	1	3
458.706	1	13
459.899	1	4
461.093	1	5
462.286	1	2
463.479	1	-2
464.672	1	2
465.865	1	-8
467.058	1	1
468.251	1	-7
469.444	1	0
470.637	1	5
471.830	1	2
473.023	1	13
474.215	1	7
475.408	1	7
476.601	1	6
477.793	1	1
478.986	1	7
480.179	1	8
481.371	1	-8
482.564	1	10
483.756	1	7
484.948	1	7
486.141	1	15
487.333	1	-4
488.525	1	-3
489.718	1	-5
490.910	1	9
492.102	1	3
493.294	1	6
494.486	1	2
495.678	1	6
496.870	1	5
498.062	1	3
499.254	1	3
500.446	1	3
501.638	1	8
502.829	1	9
504.021	1	13
505.213	1	10
506.404	1	13
507.596	1	20
508.788	1	14
509.979	1	17
511.171	1	13
512.362	1	27
513.553	1	11
514.745	1	8
515.936	1	7
517.127	1	19
518.319	1	14
519.510	1	-7
520.701	1	16
521.892	1	18
523.083	1	3
524.274	1	13
525.465	1	20
526.656	1	10
527.847	1	0
529.038	1	22
530.229	1	12
531.419	1	7
532.610	1	21
533.801	1	20
534.991	1	17
536.182	1	16
537.373	1	9
538.563	1	4
539.754	1	13
540.944	1	14
542.134	1	17
543.325	1	17
544.515	1	17
545.705	1	16
546.896	1	8
548.086	1	14
549.276	1	10
550.466	1	13
551.656	1	11
552.846	1	14
554.036	1	12
555.226	1	12
556.416	1	22
557.606	1	-5
558.796	1	16
559.986	1	15
561.175	1	11
562.365	1	10
563.555	1	10
564.744	1	20
565.934	1	16
567.123	1	6
568.313	1	15
569.502	1	16
570.692	1	7
571.881	1	1
573.070	1	2
574.260	1	10
575.449	1	-2
576.638	1	12
577.827	1	11
579.016	1	7
580.205	1	8
581.394	1	8
582.583	1	3
583.772	1	5
584.961	1	-1
586.150	1	10
587.339	1	5
588.528	1	7
589.717	1	14
590.905	1	1
592.094	1	19
593.283	1	10
594.471	1	-3
595.660	1	9
596.848	1	10
598.037	1	5
599.225	1	3
600.413	1	6
601.602	1	10
602.790	1	10
603.978	1	4
605.166	1	11
606.355	1	-7
607.543	1	9
608.731	1	-8
609.919	1	-3
611.107	1	12
612.295	1	13
613.483	1	-2
614.671	1	18
615.858	1	-3
617.046	1	1
618.234	1	5
619.422	1	21
620.609	1	2
621.797	1	9
622.985	1	6
624.172	1	13
625.360	1	6
626.547	1	2
627.735	1	7
628.922	1	17
630.109	1	-3
631.297	1	9
632.484	1	15
633.671	1	5
634.858	1	8
636.045	1	3
637.232	1	7
638.419	1	6
639.606	1	9
640.793	1	2
641.980	1	17
643.167	1	3
644.354	1	13
645.541	1	6
646.728	1	4
647.914	1	9
649.101	1	1
650.288	1	11
651.474	1	3
652.661	1	7
653.847	1	7
655.034	1	7
656.220	1	10
657.406	1	-7
658.593	1	19
659.779	1	10
660.965	1	11
662.152	1	4
663.338	1	3
664.524	1	5
665.710	1	5
666.896	1	12
668.082	1	14
669.268	1	8
670.454	1	12
671.640	1	8
672.826	1	2
674.011	1	6
675.197	1	11
676.383	1	2
677.569	1	11
678.754	1	13
679.940	1	-6
681.125	1	2
682.311	1	8
683.496	1	0
684.682	1	4
685.867	1	-1
687.053	1	21
688.238	1	3
688.746	1	2

File: GaN_sample D_spot15_UVVIS_150 K_200um_450 ms 2x2mm1_136.txt
340.368	1	-1
341.565	1	1
342.763	1	9
343.960	1	10
345.157	1	18
346.354	1	7
347.552	1	16
348.749	1	11
349.946	1	8
351.143	1	6
352.340	1	10
353.537	1	1
354.734	1	7
355.931	1	15
357.127	1	15
358.324	1	11
359.521	1	27
360.718	1	12
361.914	1	12
363.111	1	14
364.308	1	30
365.504	1	26
366.701	1	39
367.897	1	46
369.093	1	42
370.290	1	37
371.486	1	46
372.682	1	40
373.879	1	27
375.075	1	18
376.271	1	18
377.467	1	29
378.663	1	16
379.859	1	11
381.055	1	13
382.251	1	5
383.447	1	9
384.643	1	7
385.839	1	12
387.035	1	15
388.230	1	8
389.426	1	2
390.622	1	1
391.817	1	4
393.013	1	3
394.208	1	11
395.404	1	8
396.599	1	14
397.795	1	4
398.990	1	12
400.186	1	8
401.381	1	7
402.576	1	10
403.771	1	-7
404.967	1	8
406.162	1	11
407.357	1	21
408.552	1	3
409.747	1	6
410.942	1	21
412.137	1	11
413.332	1	12
414.526	1	9
415.721	1	19
416.916	1	6
418.111	1	12
419.305	1	17
420.500	1	13
421.695	1	18
422.889	1	12
424.084	1	13
425.278	1	12
426.472	1	20
427.667	1	8
428.861	1	16
430.055	1	11
431.250	1	13
432.444	1	8
433.638	1	4
434.832	1	1
436.026	1	10
437.220	1	19
438.414	1	14
439.608	1	11
440.802	1	7
441.996	1	5
443.190	1	16
444.384	1	15
445.578	1	-1
446.771	1	7
447.965	1	8
449.159	1	9
450.352	1	2
451.546	1	3
452.739	1	12
453.933	1	6
455.126	1	7
456.320	1	-1
457.513	1	8
458.706	1	15
459.899	1	7
461.093	1	7
462.286	1	4
463.479	1	8
464.672	1	9
465.865	1	6
467.058	1	13
468.251	1	-8
469.444	1	8
470.637	1	2
471.830	1	11
473.023	1	7
474.215	1	0
475.408	1	4
476.601	1	11
477.793	1	9
478.986	1	6
480.179	1	5
481.371	1	-6
482.564	1	-1
483.756	1	17
484.948	1	2
486.141	1	1
487.333	1	-5
488.525	1	13
489.718	1	-2
490.910	1	1
492.102	1	7
493.294	1	-5
494.486	1	8
495.678	1	6
496.870	1	14
498.062	1	-4
499.254	1	7
500.446	1	7
501.638	1	10
502.829	1	2
504.021	1	17
505.213	1	2
506.404	1	4
507.596	1	14
508.788	1	16
509.979	1	14
511.171	1	13
512.362	1	15
513.553	1	5
514.745	1	6
515.936	1	10
517.127	1	12
518.319	1	13
519.510	1	2
520.701	1	19
521.892	1	13
523.083	1	7
524.274	1	17
525.465	1	24
526.656	1	23
527.847	1	4
529.038	1	13
530.229	1	15
531.419	1	7
532.610	1	7
533.801	1	16
534.991	1	14
536.182	1	4
537.373	1	8
538.563	1	9
539.754	1	16
540.944	1	13
542.134	1	15
543.325	1	6
544.515	1	10
545.705	1	14
546.896	1	2
548.086	1	10
549.276	1	15
550.466	1	5
551.656	1	10
552.846	1	13
554.036	1	14
555.226	1	7
556.416	1	15
557.606	1	2
558.796	1	8
559.986	1	9
561.175	1	8
562.365	1	10
563.555	1	14
564.744	1	10
565.934	1	15
567.123	1	1
568.313	1	11
569.502	1	11
570.692	1	9
571.881	1	5
573.070	1	10
574.260	1	8
575.449	1	-3
576.638	1	8
577.827	1	2
579.016	1	-1
580.205	1	8
581.394	1	4
582.583	1	12
583.772	1	13
584.961	1	-2
586.150	1	8
587.339	1	3
588.528	1	0
589.717	1	4
590.905	1	7
592.094	1	8
593.283	1	3
594.471	1	-5
595.660	1	8
596.848	1	10
598.037	1	-1
599.225	1	6
600.413	1	10
601.602	1	4
602.790	1	3
603.978	1	4
605.166	1	11
606.355	1	-8
607.543	1	9
608.731	1	-9
609.919	1	-4
611.107	1	13
612.295	1	15
613.483	1	-2
614.671	1	3
615.858	1	0
617.046	1	8
618.234	1	1
619.422	1	22
620.609	1	5
621.797	1	6
622.985	1	1
624.172	1	11
625.360	1	-2
626.547	1	6
627.735	1	10
628.922	1	3
630.109	1	0
631.297	1	2
632.484	1	7
633.671	1	15
634.858	1	10
636.045	1	2
637.232	1	2
638.419	1	-6
639.606	1	8
640.793	1	-2
641.980	1	12
643.167	1	7
644.354	1	10
645.541	1	5
646.728	1	1
647.914	1	5
649.101	1	8
650.288	1	9
651.474	1	6
652.661	1	5
653.847	1	11
655.034	1	5
656.220	1	4
657.406	1	8
658.593	1	4
659.779	1	10
660.965	1	-3
662.152	1	7
663.338	1	-1
664.524	1	2
665.710	1	3
666.896	1	11
668.082	1	5
669.268	1	5
670.454	1	5
671.640	1	8
672.826	1	3
674.011	1	12
675.197	1	3
676.383	1	-6
677.569	1	11
678.754	1	3
679.940	1	-5
681.125	1	3
682.311	1	4
683.496	1	-2
684.682	1	7
685.867	1	3
687.053	1	12
688.238	1	8
688.746	1	2

File: GaN_sample D_spot15_UVVIS_150 K_200um_450 ms 2x2mm1_137.txt
340.368	1	2
341.565	1	5
342.763	1	-2
343.960	1	4
345.157	1	7
346.354	1	2
347.552	1	8
348.749	1	18
349.946	1	9
351.143	1	6
352.340	1	8
353.537	1	5
354.734	1	7
355.931	1	11
357.127	1	7
358.324	1	18
359.521	1	20
360.718	1	8
361.914	1	19
363.111	1	17
364.308	1	28
365.504	1	23
366.701	1	42
367.897	1	56
369.093	1	54
370.290	1	51
371.486	1	40
372.682	1	41
373.879	1	34
375.075	1	11
376.271	1	21
377.467	1	19
378.663	1	9
379.859	1	6
381.055	1	14
382.251	1	4
383.447	1	19
384.643	1	1
385.839	1	7
387.035	1	6
388.230	1	4
389.426	1	12
390.622	1	7
391.817	1	0
393.013	1	9
394.208	1	3
395.404	1	7
396.599	1	8
397.795	1	11
398.990	1	25
400.186	1	7
401.381	1	8
402.576	1	12
403.771	1	2
404.967	1	8
406.162	1	4
407.357	1	17
408.552	1	1
409.747	1	7
410.942	1	15
412.137	1	9
413.332	1	8
414.526	1	10
415.721	1	13
416.916	1	7
418.111	1	8
419.305	1	24
420.500	1	9
421.695	1	12
422.889	1	9
424.084	1	12
425.278	1	10
426.472	1	16
427.667	1	19
428.861	1	20
430.055	1	21
431.250	1	16
432.444	1	15
433.638	1	15
434.832	1	11
436.026	1	1
437.220	1	13
438.414	1	14
439.608	1	-2
440.802	1	6
441.996	1	3
443.190	1	10
444.384	1	16
445.578	1	10
446.771	1	4
447.965	1	4
449.159	1	11
450.352	1	7
451.546	1	4
452.739	1	7
453.933	1	5
455.126	1	10
456.320	1	16
457.513	1	5
458.706	1	7
459.899	1	4
461.093	1	4
462.286	1	8
463.479	1	0
464.672	1	15
465.865	1	6
467.058	1	7
468.251	1	-5
469.444	1	3
470.637	1	9
471.830	1	1
473.023	1	3
474.215	1	9
475.408	1	7
476.601	1	4
477.793	1	1
478.986	1	9
480.179	1	12
481.371	1	-6
482.564	1	12
483.756	1	1
484.948	1	5
486.141	1	12
487.333	1	-5
488.525	1	-4
489.718	1	3
490.910	1	12
492.102	1	3
493.294	1	-3
494.486	1	5
495.678	1	-1
496.870	1	7
498.062	1	10
499.254	1	8
500.446	1	1
501.638	1	14
502.829	1	-1
504.021	1	5
505.213	1	-3
506.404	1	6
507.596	1	18
508.788	1	7
509.979	1	3
511.171	1	15
512.362	1	21
513.553	1	18
514.745	1	10
515.936	1	18
517.127	1	21
518.319	1	6
519.510	1	4
520.701	1	15
521.892	1	7
523.083	1	1
524.274	1	13
525.465	1	19
526.656	1	11
527.847	1	-5
529.038	1	18
530.229	1	17
531.419	1	13
532.610	1	16
533.801	1	15
534.991	1	10
536.182	1	6
537.373	1	11
538.563	1	8
539.754	1	12
540.944	1	10
542.134	1	12
543.325	1	8
544.515	1	16
545.705	1	15
546.896	1	24
548.086	1	12
549.276	1	8
550.466	1	10
551.656	1	2
552.846	1	16
554.036	1	14
555.226	1	12
556.416	1	11
557.606	1	-2
558.796	1	21
559.986	1	11
561.175	1	10
562.365	1	3
563.555	1	15
564.744	1	15
565.934	1	11
567.123	1	13
568.313	1	14
569.502	1	2
570.692	1	10
571.881	1	3
573.070	1	11
574.260	1	11
575.449	1	1
576.638	1	20
577.827	1	-2
579.016	1	8
580.205	1	12
581.394	1	6
582.583	1	7
583.772	1	17
584.961	1	-1
586.150	1	15
587.339	1	13
588.528	1	0
589.717	1	12
590.905	1	8
592.094	1	6
593.283	1	13
594.471	1	-1
595.660	1	5
596.848	1	11
598.037	1	10
599.225	1	-3
600.413	1	10
601.602	1	6
602.790	1	1
603.978	1	4
605.166	1	6
606.355	1	-12
607.543	1	0
608.731	1	-9
609.919	1	-1
611.107	1	15
612.295	1	10
613.483	1	2
614.671	1	8
615.858	1	-7
617.046	1	1
618.234	1	2
619.422	1	11
620.609	1	-4
621.797	1	1
622.985	1	-1
624.172	1	8
625.360	1	-1
626.547	1	3
627.735	1	15
628.922	1	11
630.109	1	7
631.297	1	4
632.484	1	6
633.671	1	5
634.858	1	9
636.045	1	-3
637.232	1	0
638.419	1	-3
639.606	1	15
640.793	1	5
641.980	1	4
643.167	1	2
644.354	1	13
645.541	1	3
646.728	1	10
647.914	1	7
649.101	1	4
650.288	1	5
651.474	1	6
652.661	1	5
653.847	1	9
655.034	1	-2
656.220	1	7
657.406	1	0
658.593	1	12
659.779	1	3
660.965	1	7
662.152	1	8
663.338	1	1
664.524	1	14
665.710	1	7
666.896	1	7
668.082	1	2
669.268	1	3
670.454	1	7
671.640	1	8
672.826	1	4
674.011	1	7
675.197	1	-1
676.383	1	6
677.569	1	14
678.754	1	8
679.940	1	-4
681.125	1	6
682.311	1	2
683.496	1	-9
684.682	1	12
685.867	1	3
687.053	1	22
688.238	1	12
688.746	1	5

File: GaN_sample D_spot15_UVVIS_150 K_200um_450 ms 2x2mm1_138.txt
340.368	1	4
341.565	1	7
342.763	1	1
343.960	1	3
345.157	1	9
346.354	1	-1
347.552	1	14
348.749	1	9
349.946	1	1
351.143	1	2
352.340	1	8
353.537	1	0
354.734	1	4
355.931	1	11
357.127	1	16
358.324	1	16
359.521	1	25
360.718	1	20
361.914	1	20
363.111	1	16
364.308	1	15
365.504	1	25
366.701	1	39
367.897	1	44
369.093	1	53
370.290	1	43
371.486	1	48
372.682	1	42
373.879	1	26
375.075	1	14
376.271	1	11
377.467	1	24
378.663	1	11
379.859	1	11
381.055	1	8
382.251	1	5
383.447	1	10
384.643	1	8
385.839	1	11
387.035	1	10
388.230	1	12
389.426	1	1
390.622	1	2
391.817	1	-7
393.013	1	7
394.208	1	4
395.404	1	18
396.599	1	7
397.795	1	2
398.990	1	16
400.186	1	15
401.381	1	10
402.576	1	7
403.771	1	5
404.967	1	16
406.162	1	8
407.357	1	19
408.552	1	7
409.747	1	9
410.942	1	17
412.137	1	7
413.332	1	2
414.526	1	-2
415.721	1	10
416.916	1	3
418.111	1	9
419.305	1	10
420.500	1	17
421.695	1	14
422.889	1	11
424.084	1	8
425.278	1	13
426.472	1	13
427.667	1	2
428.861	1	7
430.055	1	10
431.250	1	11
432.444	1	10
433.638	1	16
434.832	1	3
436.026	1	10
437.220	1	22
438.414	1	21
439.608	1	2
440.802	1	10
441.996	1	16
443.190	1	18
444.384	1	10
445.578	1	6
446.771	1	11
447.965	1	2
449.159	1	8
450.352	1	4
451.546	1	11
452.739	1	5
453.933	1	5
455.126	1	6
456.320	1	15
457.513	1	1
458.706	1	6
459.899	1	1
461.093	1	11
462.286	1	7
463.479	1	0
464.672	1	10
465.865	1	7
467.058	1	10
468.251	1	-2
469.444	1	13
470.637	1	9
471.830	1	0
473.023	1	11
474.215	1	7
475.408	1	2
476.601	1	11
477.793	1	2
478.986	1	11
480.179	1	1
481.371	1	-5
482.564	1	16
483.756	1	4
484.948	1	13
486.141	1	6
487.333	1	-1
488.525	1	3
489.718	1	-1
490.910	1	6
492.102	1	12
493.294	1	-1
494.486	1	0
495.678	1	5
496.870	1	13
498.062	1	3
499.254	1	2
500.446	1	-2
501.638	1	17
502.829	1	1
504.021	1	5
505.213	1	3
506.404	1	11
507.596	1	17
508.788	1	10
509.979	1	3
511.171	1	11
512.362	1	11
513.553	1	11
514.745	1	5
515.936	1	7
517.127	1	16
518.319	1	11
519.510	1	1
520.701	1	13
521.892	1	3
523.083	1	5
524.274	1	7
525.465	1	24
526.656	1	15
527.847	1	4
529.038	1	7
530.229	1	1
531.419	1	12
532.610	1	20
533.801	1	20
534.991	1	8
536.182	1	16
537.373	1	9
538.563	1	7
539.754	1	7
540.944	1	5
542.134	1	10
543.325	1	15
544.515	1	15
545.705	1	8
546.896	1	13
548.086	1	6
549.276	1	18
550.466	1	9
551.656	1	13
552.846	1	15
554.036	1	14
555.226	1	8
556.416	1	8
557.606	1	0
558.796	1	12
559.986	1	16
561.175	1	-5
562.365	1	5
563.555	1	7
564.744	1	11
565.934	1	16
567.123	1	11
568.313	1	9
569.502	1	22
570.692	1	10
571.881	1	6
573.070	1	8
574.260	1	8
575.449	1	1
576.638	1	7
577.827	1	-1
579.016	1	13
580.205	1	-7
581.394	1	1
582.583	1	8
583.772	1	10
584.961	1	4
586.150	1	14
587.339	1	7
588.528	1	7
589.717	1	4
590.905	1	6
592.094	1	10
593.283	1	8
594.471	1	0
595.660	1	5
596.848	1	5
598.037	1	5
599.225	1	0
600.413	1	2
601.602	1	8
602.790	1	10
603.978	1	2
605.166	1	3
606.355	1	-9
607.543	1	8
608.731	1	-9
609.919	1	-4
611.107	1	15
612.295	1	12
613.483	1	9
614.671	1	2
615.858	1	-5
617.046	1	-3
618.234	1	-6
619.422	1	9
620.609	1	4
621.797	1	-1
622.985	1	-8
624.172	1	7
625.360	1	4
626.547	1	-1
627.735	1	5
628.922	1	3
630.109	1	-1
631.297	1	6
632.484	1	11
633.671	1	4
634.858	1	4
636.045	1	0
637.232	1	3
638.419	1	2
639.606	1	3
640.793	1	-5
641.980	1	10
643.167	1	11
644.354	1	7
645.541	1	6
646.728	1	3
647.914	1	6
649.101	1	3
650.288	1	17
651.474	1	6
652.661	1	5
653.847	1	0
655.034	1	2
656.220	1	17
657.406	1	-8
658.593	1	13
659.779	1	9
660.965	1	-4
662.152	1	7
663.338	1	-3
664.524	1	14
665.710	1	0
666.896	1	8
668.082	1	-2
669.268	1	-7
670.454	1	12
671.640	1	1
672.826	1	3
674.011	1	2
675.197	1	7
676.383	1	-5
677.569	1	6
678.754	1	2
679.940	1	-4
681.125	1	4
682.311	1	6
683.496	1	-3
684.682	1	9
685.867	1	6
687.053	1	22
688.238	1	14
688.746	1	2