Folder: cryo-il_analysis/Data/GaN_150K_450ms (part 11)

File: GaN_sample D_spot15_UVVIS_150 K_200um_450 ms 2x2mm1_97.txt
340.368	1	7
341.565	1	14
342.763	1	5
343.960	1	3
345.157	1	9
346.354	1	0
347.552	1	18
348.749	1	9
349.946	1	7
351.143	1	13
352.340	1	9
353.537	1	2
354.734	1	7
355.931	1	15
357.127	1	14
358.324	1	9
359.521	1	27
360.718	1	20
361.914	1	25
363.111	1	39
364.308	1	66
365.504	1	74
366.701	1	88
367.897	1	99
369.093	1	96
370.290	1	96
371.486	1	81
372.682	1	58
373.879	1	43
375.075	1	39
376.271	1	40
377.467	1	41
378.663	1	32
379.859	1	29
381.055	1	17
382.251	1	17
383.447	1	15
384.643	1	18
385.839	1	13
387.035	1	13
388.230	1	20
389.426	1	7
390.622	1	13
391.817	1	-2
393.013	1	15
394.208	1	9
395.404	1	16
396.599	1	11
397.795	1	12
398.990	1	25
400.186	1	14
401.381	1	12
402.576	1	22
403.771	1	-1
404.967	1	9
406.162	1	6
407.357	1	23
408.552	1	11
409.747	1	15
410.942	1	19
412.137	1	12
413.332	1	18
414.526	1	9
415.721	1	13
416.916	1	14
418.111	1	23
419.305	1	24
420.500	1	16
421.695	1	18
422.889	1	18
424.084	1	15
425.278	1	8
426.472	1	25
427.667	1	11
428.861	1	22
430.055	1	23
431.250	1	16
432.444	1	12
433.638	1	17
434.832	1	10
436.026	1	8
437.220	1	22
438.414	1	13
439.608	1	12
440.802	1	13
441.996	1	6
443.190	1	12
444.384	1	21
445.578	1	-1
446.771	1	14
447.965	1	11
449.159	1	1
450.352	1	10
451.546	1	14
452.739	1	13
453.933	1	-3
455.126	1	1
456.320	1	16
457.513	1	12
458.706	1	19
459.899	1	8
461.093	1	14
462.286	1	11
463.479	1	8
464.672	1	14
465.865	1	14
467.058	1	9
468.251	1	10
469.444	1	4
470.637	1	0
471.830	1	9
473.023	1	13
474.215	1	10
475.408	1	6
476.601	1	8
477.793	1	0
478.986	1	5
480.179	1	8
481.371	1	0
482.564	1	13
483.756	1	8
484.948	1	8
486.141	1	14
487.333	1	-1
488.525	1	2
489.718	1	1
490.910	1	11
492.102	1	9
493.294	1	14
494.486	1	13
495.678	1	16
496.870	1	8
498.062	1	17
499.254	1	13
500.446	1	8
501.638	1	12
502.829	1	5
504.021	1	22
505.213	1	18
506.404	1	19
507.596	1	24
508.788	1	18
509.979	1	21
511.171	1	22
512.362	1	33
513.553	1	27
514.745	1	32
515.936	1	27
517.127	1	33
518.319	1	26
519.510	1	19
520.701	1	29
521.892	1	35
523.083	1	17
524.274	1	29
525.465	1	33
526.656	1	31
527.847	1	23
529.038	1	29
530.229	1	27
531.419	1	19
532.610	1	37
533.801	1	31
534.991	1	18
536.182	1	27
537.373	1	24
538.563	1	19
539.754	1	26
540.944	1	17
542.134	1	23
543.325	1	26
544.515	1	20
545.705	1	26
546.896	1	21
548.086	1	22
549.276	1	28
550.466	1	27
551.656	1	17
552.846	1	17
554.036	1	28
555.226	1	14
556.416	1	19
557.606	1	13
558.796	1	33
559.986	1	23
561.175	1	17
562.365	1	23
563.555	1	21
564.744	1	17
565.934	1	20
567.123	1	9
568.313	1	16
569.502	1	18
570.692	1	20
571.881	1	5
573.070	1	18
574.260	1	23
575.449	1	9
576.638	1	20
577.827	1	10
579.016	1	14
580.205	1	17
581.394	1	16
582.583	1	7
583.772	1	14
584.961	1	9
586.150	1	13
587.339	1	9
588.528	1	6
589.717	1	7
590.905	1	5
592.094	1	16
593.283	1	5
594.471	1	5
595.660	1	16
596.848	1	16
598.037	1	6
599.225	1	12
600.413	1	4
601.602	1	11
602.790	1	7
603.978	1	8
605.166	1	10
606.355	1	-2
607.543	1	17
608.731	1	-3
609.919	1	1
611.107	1	8
612.295	1	14
613.483	1	6
614.671	1	12
615.858	1	3
617.046	1	5
618.234	1	8
619.422	1	12
620.609	1	1
621.797	1	7
622.985	1	2
624.172	1	3
625.360	1	-2
626.547	1	5
627.735	1	2
628.922	1	9
630.109	1	-6
631.297	1	7
632.484	1	11
633.671	1	6
634.858	1	16
636.045	1	2
637.232	1	8
638.419	1	11
639.606	1	4
640.793	1	7
641.980	1	20
643.167	1	7
644.354	1	9
645.541	1	9
646.728	1	19
647.914	1	5
649.101	1	3
650.288	1	6
651.474	1	13
652.661	1	13
653.847	1	11
655.034	1	3
656.220	1	7
657.406	1	8
658.593	1	15
659.779	1	13
660.965	1	2
662.152	1	6
663.338	1	2
664.524	1	13
665.710	1	4
666.896	1	8
668.082	1	4
669.268	1	4
670.454	1	7
671.640	1	3
672.826	1	7
674.011	1	14
675.197	1	9
676.383	1	3
677.569	1	14
678.754	1	1
679.940	1	-2
681.125	1	-5
682.311	1	16
683.496	1	-1
684.682	1	3
685.867	1	-4
687.053	1	23
688.238	1	10
688.746	1	5

File: GaN_sample D_spot15_UVVIS_150 K_200um_450 ms 2x2mm1_98.txt
340.368	1	6
341.565	1	4
342.763	1	6
343.960	1	3
345.157	1	17
346.354	1	6
347.552	1	16
348.749	1	17
349.946	1	10
351.143	1	12
352.340	1	19
353.537	1	5
354.734	1	10
355.931	1	10
357.127	1	23
358.324	1	15
359.521	1	18
360.718	1	32
361.914	1	34
363.111	1	50
364.308	1	63
365.504	1	72
366.701	1	91
367.897	1	113
369.093	1	102
370.290	1	92
371.486	1	72
372.682	1	70
373.879	1	53
375.075	1	44
376.271	1	44
377.467	1	38
378.663	1	28
379.859	1	29
381.055	1	19
382.251	1	9
383.447	1	23
384.643	1	13
385.839	1	16
387.035	1	24
388.230	1	12
389.426	1	7
390.622	1	10
391.817	1	9
393.013	1	8
394.208	1	10
395.404	1	17
396.599	1	15
397.795	1	13
398.990	1	16
400.186	1	0
401.381	1	13
402.576	1	17
403.771	1	0
404.967	1	6
406.162	1	6
407.357	1	22
408.552	1	4
409.747	1	13
410.942	1	18
412.137	1	4
413.332	1	19
414.526	1	8
415.721	1	9
416.916	1	17
418.111	1	12
419.305	1	10
420.500	1	19
421.695	1	26
422.889	1	5
424.084	1	22
425.278	1	10
426.472	1	27
427.667	1	9
428.861	1	24
430.055	1	14
431.250	1	18
432.444	1	14
433.638	1	22
434.832	1	13
436.026	1	21
437.220	1	18
438.414	1	11
439.608	1	4
440.802	1	14
441.996	1	6
443.190	1	11
444.384	1	16
445.578	1	5
446.771	1	9
447.965	1	11
449.159	1	6
450.352	1	8
451.546	1	15
452.739	1	16
453.933	1	13
455.126	1	8
456.320	1	17
457.513	1	10
458.706	1	16
459.899	1	6
461.093	1	12
462.286	1	-2
463.479	1	4
464.672	1	16
465.865	1	3
467.058	1	11
468.251	1	-5
469.444	1	9
470.637	1	10
471.830	1	7
473.023	1	15
474.215	1	9
475.408	1	13
476.601	1	2
477.793	1	2
478.986	1	16
480.179	1	11
481.371	1	-4
482.564	1	16
483.756	1	12
484.948	1	12
486.141	1	13
487.333	1	0
488.525	1	9
489.718	1	10
490.910	1	18
492.102	1	6
493.294	1	6
494.486	1	16
495.678	1	6
496.870	1	12
498.062	1	3
499.254	1	8
500.446	1	9
501.638	1	19
502.829	1	12
504.021	1	12
505.213	1	9
506.404	1	14
507.596	1	20
508.788	1	29
509.979	1	18
511.171	1	27
512.362	1	20
513.553	1	22
514.745	1	24
515.936	1	14
517.127	1	36
518.319	1	33
519.510	1	19
520.701	1	38
521.892	1	26
523.083	1	16
524.274	1	26
525.465	1	25
526.656	1	20
527.847	1	17
529.038	1	23
530.229	1	32
531.419	1	43
532.610	1	28
533.801	1	27
534.991	1	22
536.182	1	20
537.373	1	24
538.563	1	26
539.754	1	13
540.944	1	30
542.134	1	32
543.325	1	27
544.515	1	29
545.705	1	21
546.896	1	26
548.086	1	34
549.276	1	31
550.466	1	19
551.656	1	13
552.846	1	30
554.036	1	26
555.226	1	19
556.416	1	30
557.606	1	7
558.796	1	21
559.986	1	11
561.175	1	23
562.365	1	15
563.555	1	27
564.744	1	23
565.934	1	23
567.123	1	7
568.313	1	22
569.502	1	11
570.692	1	26
571.881	1	13
573.070	1	28
574.260	1	12
575.449	1	6
576.638	1	18
577.827	1	10
579.016	1	8
580.205	1	11
581.394	1	12
582.583	1	14
583.772	1	17
584.961	1	-5
586.150	1	14
587.339	1	5
588.528	1	3
589.717	1	17
590.905	1	3
592.094	1	13
593.283	1	10
594.471	1	-2
595.660	1	11
596.848	1	10
598.037	1	0
599.225	1	0
600.413	1	-3
601.602	1	11
602.790	1	19
603.978	1	12
605.166	1	7
606.355	1	-1
607.543	1	13
608.731	1	-4
609.919	1	6
611.107	1	16
612.295	1	17
613.483	1	1
614.671	1	14
615.858	1	1
617.046	1	11
618.234	1	5
619.422	1	23
620.609	1	2
621.797	1	2
622.985	1	3
624.172	1	5
625.360	1	9
626.547	1	4
627.735	1	14
628.922	1	14
630.109	1	-5
631.297	1	10
632.484	1	11
633.671	1	8
634.858	1	9
636.045	1	-3
637.232	1	4
638.419	1	0
639.606	1	9
640.793	1	8
641.980	1	14
643.167	1	15
644.354	1	12
645.541	1	10
646.728	1	11
647.914	1	13
649.101	1	-2
650.288	1	19
651.474	1	16
652.661	1	2
653.847	1	5
655.034	1	-10
656.220	1	9
657.406	1	-3
658.593	1	15
659.779	1	7
660.965	1	6
662.152	1	6
663.338	1	6
664.524	1	10
665.710	1	6
666.896	1	7
668.082	1	3
669.268	1	6
670.454	1	14
671.640	1	6
672.826	1	13
674.011	1	3
675.197	1	12
676.383	1	8
677.569	1	22
678.754	1	4
679.940	1	2
681.125	1	0
682.311	1	17
683.496	1	-2
684.682	1	8
685.867	1	6
687.053	1	10
688.238	1	14
688.746	1	1

File: GaN_sample D_spot15_UVVIS_150 K_200um_450 ms 2x2mm1_99.txt
340.368	1	-3
341.565	1	7
342.763	1	18
343.960	1	5
345.157	1	13
346.354	1	9
347.552	1	16
348.749	1	4
349.946	1	4
351.143	1	11
352.340	1	8
353.537	1	9
354.734	1	15
355.931	1	8
357.127	1	19
358.324	1	14
359.521	1	34
360.718	1	23
361.914	1	26
363.111	1	39
364.308	1	53
365.504	1	56
366.701	1	82
367.897	1	107
369.093	1	100
370.290	1	89
371.486	1	69
372.682	1	56
373.879	1	46
375.075	1	41
376.271	1	47
377.467	1	38
378.663	1	28
379.859	1	28
381.055	1	23
382.251	1	10
383.447	1	24
384.643	1	16
385.839	1	18
387.035	1	16
388.230	1	19
389.426	1	5
390.622	1	8
391.817	1	1
393.013	1	14
394.208	1	10
395.404	1	22
396.599	1	14
397.795	1	13
398.990	1	22
400.186	1	9
401.381	1	8
402.576	1	11
403.771	1	-6
404.967	1	11
406.162	1	12
407.357	1	1
408.552	1	7
409.747	1	12
410.942	1	21
412.137	1	12
413.332	1	16
414.526	1	5
415.721	1	2
416.916	1	10
418.111	1	12
419.305	1	11
420.500	1	15
421.695	1	27
422.889	1	21
424.084	1	16
425.278	1	20
426.472	1	21
427.667	1	11
428.861	1	17
430.055	1	19
431.250	1	21
432.444	1	15
433.638	1	21
434.832	1	11
436.026	1	9
437.220	1	22
438.414	1	19
439.608	1	12
440.802	1	11
441.996	1	9
443.190	1	8
444.384	1	8
445.578	1	8
446.771	1	11
447.965	1	8
449.159	1	2
450.352	1	5
451.546	1	10
452.739	1	13
453.933	1	4
455.126	1	3
456.320	1	16
457.513	1	6
458.706	1	14
459.899	1	3
461.093	1	14
462.286	1	3
463.479	1	-3
464.672	1	11
465.865	1	12
467.058	1	13
468.251	1	7
469.444	1	10
470.637	1	7
471.830	1	3
473.023	1	16
474.215	1	11
475.408	1	13
476.601	1	3
477.793	1	0
478.986	1	14
480.179	1	13
481.371	1	-3
482.564	1	14
483.756	1	4
484.948	1	17
486.141	1	12
487.333	1	1
488.525	1	4
489.718	1	2
490.910	1	25
492.102	1	24
493.294	1	-2
494.486	1	17
495.678	1	9
496.870	1	13
498.062	1	18
499.254	1	10
500.446	1	-6
501.638	1	14
502.829	1	10
504.021	1	24
505.213	1	15
506.404	1	21
507.596	1	30
508.788	1	19
509.979	1	20
511.171	1	26
512.362	1	24
513.553	1	29
514.745	1	18
515.936	1	26
517.127	1	28
518.319	1	17
519.510	1	17
520.701	1	24
521.892	1	27
523.083	1	22
524.274	1	18
525.465	1	33
526.656	1	19
527.847	1	24
529.038	1	32
530.229	1	31
531.419	1	18
532.610	1	32
533.801	1	29
534.991	1	28
536.182	1	19
537.373	1	33
538.563	1	18
539.754	1	17
540.944	1	17
542.134	1	30
543.325	1	30
544.515	1	19
545.705	1	21
546.896	1	16
548.086	1	25
549.276	1	31
550.466	1	19
551.656	1	13
552.846	1	21
554.036	1	32
555.226	1	26
556.416	1	23
557.606	1	6
558.796	1	29
559.986	1	23
561.175	1	21
562.365	1	15
563.555	1	26
564.744	1	29
565.934	1	29
567.123	1	8
568.313	1	16
569.502	1	21
570.692	1	11
571.881	1	6
573.070	1	18
574.260	1	14
575.449	1	10
576.638	1	20
577.827	1	6
579.016	1	22
580.205	1	15
581.394	1	14
582.583	1	16
583.772	1	18
584.961	1	-4
586.150	1	10
587.339	1	16
588.528	1	-4
589.717	1	10
590.905	1	1
592.094	1	11
593.283	1	3
594.471	1	-3
595.660	1	18
596.848	1	6
598.037	1	4
599.225	1	2
600.413	1	17
601.602	1	16
602.790	1	10
603.978	1	3
605.166	1	14
606.355	1	-6
607.543	1	10
608.731	1	1
609.919	1	1
611.107	1	16
612.295	1	7
613.483	1	11
614.671	1	9
615.858	1	2
617.046	1	0
618.234	1	1
619.422	1	12
620.609	1	1
621.797	1	5
622.985	1	8
624.172	1	6
625.360	1	13
626.547	1	-1
627.735	1	1
628.922	1	8
630.109	1	4
631.297	1	13
632.484	1	14
633.671	1	12
634.858	1	8
636.045	1	3
637.232	1	9
638.419	1	1
639.606	1	14
640.793	1	6
641.980	1	18
643.167	1	7
644.354	1	8
645.541	1	10
646.728	1	9
647.914	1	2
649.101	1	7
650.288	1	11
651.474	1	9
652.661	1	7
653.847	1	10
655.034	1	2
656.220	1	10
657.406	1	8
658.593	1	5
659.779	1	8
660.965	1	8
662.152	1	6
663.338	1	-4
664.524	1	17
665.710	1	8
666.896	1	9
668.082	1	6
669.268	1	8
670.454	1	9
671.640	1	14
672.826	1	10
674.011	1	17
675.197	1	6
676.383	1	9
677.569	1	18
678.754	1	11
679.940	1	1
681.125	1	-4
682.311	1	10
683.496	1	0
684.682	1	10
685.867	1	6
687.053	1	14
688.238	1	16
688.746	1	9

File: GaN_sample D_spot15_UVVIS_150 K_200um_450 ms 2x2mm1_100.txt
340.368	1	4
341.565	1	4
342.763	1	9
343.960	1	4
345.157	1	17
346.354	1	5
347.552	1	18
348.749	1	13
349.946	1	4
351.143	1	11
352.340	1	8
353.537	1	-2
354.734	1	11
355.931	1	13
357.127	1	22
358.324	1	16
359.521	1	28
360.718	1	24
361.914	1	27
363.111	1	33
364.308	1	53
365.504	1	63
366.701	1	81
367.897	1	89
369.093	1	92
370.290	1	85
371.486	1	74
372.682	1	59
373.879	1	47
375.075	1	39
376.271	1	36
377.467	1	40
378.663	1	34
379.859	1	22
381.055	1	25
382.251	1	16
383.447	1	20
384.643	1	10
385.839	1	20
387.035	1	8
388.230	1	13
389.426	1	5
390.622	1	7
391.817	1	20
393.013	1	20
394.208	1	13
395.404	1	17
396.599	1	8
397.795	1	5
398.990	1	25
400.186	1	17
401.381	1	7
402.576	1	11
403.771	1	-2
404.967	1	16
406.162	1	3
407.357	1	18
408.552	1	9
409.747	1	2
410.942	1	23
412.137	1	6
413.332	1	20
414.526	1	9
415.721	1	22
416.916	1	15
418.111	1	16
419.305	1	12
420.500	1	11
421.695	1	7
422.889	1	18
424.084	1	16
425.278	1	13
426.472	1	25
427.667	1	4
428.861	1	14
430.055	1	18
431.250	1	22
432.444	1	10
433.638	1	13
434.832	1	3
436.026	1	3
437.220	1	9
438.414	1	17
439.608	1	19
440.802	1	10
441.996	1	7
443.190	1	21
444.384	1	9
445.578	1	6
446.771	1	13
447.965	1	11
449.159	1	5
450.352	1	12
451.546	1	4
452.739	1	5
453.933	1	-1
455.126	1	14
456.320	1	6
457.513	1	5
458.706	1	14
459.899	1	12
461.093	1	10
462.286	1	-1
463.479	1	9
464.672	1	10
465.865	1	12
467.058	1	4
468.251	1	3
469.444	1	13
470.637	1	8
471.830	1	8
473.023	1	9
474.215	1	2
475.408	1	10
476.601	1	6
477.793	1	2
478.986	1	21
480.179	1	8
481.371	1	-2
482.564	1	15
483.756	1	11
484.948	1	13
486.141	1	17
487.333	1	3
488.525	1	11
489.718	1	3
490.910	1	14
492.102	1	9
493.294	1	8
494.486	1	10
495.678	1	13
496.870	1	19
498.062	1	4
499.254	1	10
500.446	1	6
501.638	1	17
502.829	1	15
504.021	1	13
505.213	1	16
506.404	1	10
507.596	1	20
508.788	1	14
509.979	1	19
511.171	1	16
512.362	1	30
513.553	1	31
514.745	1	22
515.936	1	27
517.127	1	27
518.319	1	21
519.510	1	13
520.701	1	29
521.892	1	29
523.083	1	12
524.274	1	27
525.465	1	25
526.656	1	32
527.847	1	10
529.038	1	20
530.229	1	33
531.419	1	29
532.610	1	28
533.801	1	27
534.991	1	20
536.182	1	28
537.373	1	21
538.563	1	19
539.754	1	24
540.944	1	21
542.134	1	26
543.325	1	36
544.515	1	17
545.705	1	11
546.896	1	20
548.086	1	17
549.276	1	22
550.466	1	16
551.656	1	25
552.846	1	25
554.036	1	22
555.226	1	16
556.416	1	22
557.606	1	4
558.796	1	18
559.986	1	23
561.175	1	15
562.365	1	10
563.555	1	20
564.744	1	22
565.934	1	20
567.123	1	10
568.313	1	12
569.502	1	12
570.692	1	16
571.881	1	6
573.070	1	24
574.260	1	19
575.449	1	10
576.638	1	17
577.827	1	1
579.016	1	10
580.205	1	8
581.394	1	10
582.583	1	9
583.772	1	12
584.961	1	2
586.150	1	15
587.339	1	14
588.528	1	1
589.717	1	15
590.905	1	4
592.094	1	15
593.283	1	10
594.471	1	-5
595.660	1	3
596.848	1	5
598.037	1	6
599.225	1	9
600.413	1	2
601.602	1	15
602.790	1	17
603.978	1	6
605.166	1	7
606.355	1	-2
607.543	1	4
608.731	1	0
609.919	1	-6
611.107	1	16
612.295	1	5
613.483	1	4
614.671	1	12
615.858	1	1
617.046	1	3
618.234	1	4
619.422	1	22
620.609	1	2
621.797	1	8
622.985	1	-5
624.172	1	7
625.360	1	2
626.547	1	-8
627.735	1	5
628.922	1	10
630.109	1	7
631.297	1	7
632.484	1	21
633.671	1	15
634.858	1	-2
636.045	1	-1
637.232	1	11
638.419	1	7
639.606	1	10
640.793	1	-1
641.980	1	17
643.167	1	17
644.354	1	11
645.541	1	4
646.728	1	10
647.914	1	7
649.101	1	8
650.288	1	8
651.474	1	14
652.661	1	8
653.847	1	7
655.034	1	2
656.220	1	7
657.406	1	2
658.593	1	6
659.779	1	5
660.965	1	7
662.152	1	10
663.338	1	8
664.524	1	12
665.710	1	11
666.896	1	4
668.082	1	6
669.268	1	-1
670.454	1	6
671.640	1	16
672.826	1	6
674.011	1	15
675.197	1	15
676.383	1	0
677.569	1	20
678.754	1	3
679.940	1	3
681.125	1	-6
682.311	1	24
683.496	1	7
684.682	1	6
685.867	1	7
687.053	1	17
688.238	1	5
688.746	1	-2

File: GaN_sample D_spot15_UVVIS_150 K_200um_450 ms 2x2mm1_101.txt
340.368	1	9
341.565	1	-1
342.763	1	-3
343.960	1	11
345.157	1	15
346.354	1	2
347.552	1	13
348.749	1	25
349.946	1	0
351.143	1	13
352.340	1	16
353.537	1	0
354.734	1	12
355.931	1	13
357.127	1	22
358.324	1	8
359.521	1	33
360.718	1	18
361.914	1	30
363.111	1	38
364.308	1	58
365.504	1	61
366.701	1	72
367.897	1	87
369.093	1	88
370.290	1	87
371.486	1	63
372.682	1	58
373.879	1	49
375.075	1	31
376.271	1	38
377.467	1	48
378.663	1	28
379.859	1	16
381.055	1	25
382.251	1	14
383.447	1	27
384.643	1	16
385.839	1	17
387.035	1	19
388.230	1	14
389.426	1	2
390.622	1	1
391.817	1	10
393.013	1	21
394.208	1	6
395.404	1	13
396.599	1	11
397.795	1	0
398.990	1	24
400.186	1	16
401.381	1	2
402.576	1	13
403.771	1	6
404.967	1	12
406.162	1	7
407.357	1	15
408.552	1	1
409.747	1	14
410.942	1	24
412.137	1	11
413.332	1	14
414.526	1	11
415.721	1	11
416.916	1	10
418.111	1	16
419.305	1	19
420.500	1	12
421.695	1	16
422.889	1	14
424.084	1	14
425.278	1	12
426.472	1	17
427.667	1	5
428.861	1	15
430.055	1	15
431.250	1	11
432.444	1	19
433.638	1	14
434.832	1	10
436.026	1	12
437.220	1	11
438.414	1	14
439.608	1	3
440.802	1	12
441.996	1	8
443.190	1	13
444.384	1	12
445.578	1	2
446.771	1	9
447.965	1	12
449.159	1	7
450.352	1	-3
451.546	1	7
452.739	1	16
453.933	1	5
455.126	1	4
456.320	1	18
457.513	1	8
458.706	1	9
459.899	1	2
461.093	1	11
462.286	1	1
463.479	1	14
464.672	1	11
465.865	1	-1
467.058	1	9
468.251	1	0
469.444	1	7
470.637	1	10
471.830	1	6
473.023	1	9
474.215	1	12
475.408	1	11
476.601	1	-1
477.793	1	9
478.986	1	16
480.179	1	7
481.371	1	-3
482.564	1	8
483.756	1	8
484.948	1	6
486.141	1	12
487.333	1	5
488.525	1	1
489.718	1	3
490.910	1	16
492.102	1	13
493.294	1	2
494.486	1	5
495.678	1	7
496.870	1	15
498.062	1	14
499.254	1	-4
500.446	1	7
501.638	1	13
502.829	1	5
504.021	1	16
505.213	1	9
506.404	1	11
507.596	1	20
508.788	1	15
509.979	1	15
511.171	1	17
512.362	1	11
513.553	1	19
514.745	1	9
515.936	1	15
517.127	1	30
518.319	1	25
519.510	1	19
520.701	1	6
521.892	1	27
523.083	1	25
524.274	1	23
525.465	1	34
526.656	1	19
527.847	1	6
529.038	1	29
530.229	1	32
531.419	1	21
532.610	1	39
533.801	1	17
534.991	1	26
536.182	1	14
537.373	1	16
538.563	1	14
539.754	1	11
540.944	1	18
542.134	1	15
543.325	1	20
544.515	1	19
545.705	1	20
546.896	1	19
548.086	1	25
549.276	1	15
550.466	1	14
551.656	1	14
552.846	1	22
554.036	1	23
555.226	1	23
556.416	1	17
557.606	1	9
558.796	1	17
559.986	1	24
561.175	1	9
562.365	1	12
563.555	1	16
564.744	1	23
565.934	1	23
567.123	1	20
568.313	1	7
569.502	1	18
570.692	1	18
571.881	1	7
573.070	1	18
574.260	1	7
575.449	1	4
576.638	1	12
577.827	1	9
579.016	1	9
580.205	1	4
581.394	1	7
582.583	1	8
583.772	1	17
584.961	1	7
586.150	1	14
587.339	1	16
588.528	1	4
589.717	1	8
590.905	1	8
592.094	1	10
593.283	1	10
594.471	1	7
595.660	1	3
596.848	1	16
598.037	1	10
599.225	1	5
600.413	1	3
601.602	1	10
602.790	1	12
603.978	1	8
605.166	1	9
606.355	1	-11
607.543	1	4
608.731	1	2
609.919	1	4
611.107	1	16
612.295	1	11
613.483	1	4
614.671	1	14
615.858	1	-3
617.046	1	9
618.234	1	4
619.422	1	16
620.609	1	0
621.797	1	8
622.985	1	-2
624.172	1	10
625.360	1	2
626.547	1	-2
627.735	1	7
628.922	1	6
630.109	1	1
631.297	1	12
632.484	1	5
633.671	1	8
634.858	1	6
636.045	1	-1
637.232	1	5
638.419	1	0
639.606	1	8
640.793	1	9
641.980	1	14
643.167	1	9
644.354	1	5
645.541	1	3
646.728	1	12
647.914	1	8
649.101	1	8
650.288	1	3
651.474	1	7
652.661	1	15
653.847	1	10
655.034	1	13
656.220	1	8
657.406	1	4
658.593	1	12
659.779	1	7
660.965	1	5
662.152	1	6
663.338	1	-5
664.524	1	8
665.710	1	4
666.896	1	8
668.082	1	7
669.268	1	2
670.454	1	3
671.640	1	6
672.826	1	9
674.011	1	12
675.197	1	10
676.383	1	4
677.569	1	14
678.754	1	12
679.940	1	2
681.125	1	11
682.311	1	9
683.496	1	7
684.682	1	8
685.867	1	5
687.053	1	21
688.238	1	11
688.746	1	2

File: GaN_sample D_spot15_UVVIS_150 K_200um_450 ms 2x2mm1_102.txt
340.368	1	1
341.565	1	0
342.763	1	7
343.960	1	5
345.157	1	11
346.354	1	15
347.552	1	23
348.749	1	10
349.946	1	5
351.143	1	7
352.340	1	4
353.537	1	10
354.734	1	10
355.931	1	9
357.127	1	18
358.324	1	19
359.521	1	32
360.718	1	20
361.914	1	38
363.111	1	33
364.308	1	57
365.504	1	64
366.701	1	73
367.897	1	98
369.093	1	89
370.290	1	87
371.486	1	71
372.682	1	60
373.879	1	47
375.075	1	36
376.271	1	30
377.467	1	38
378.663	1	27
379.859	1	28
381.055	1	19
382.251	1	9
383.447	1	11
384.643	1	24
385.839	1	15
387.035	1	21
388.230	1	13
389.426	1	-1
390.622	1	12
391.817	1	5
393.013	1	21
394.208	1	13
395.404	1	11
396.599	1	7
397.795	1	8
398.990	1	24
400.186	1	13
401.381	1	12
402.576	1	14
403.771	1	5
404.967	1	13
406.162	1	9
407.357	1	18
408.552	1	6
409.747	1	3
410.942	1	13
412.137	1	12
413.332	1	14
414.526	1	5
415.721	1	15
416.916	1	4
418.111	1	15
419.305	1	14
420.500	1	13
421.695	1	16
422.889	1	15
424.084	1	8
425.278	1	6
426.472	1	29
427.667	1	4
428.861	1	23
430.055	1	14
431.250	1	22
432.444	1	10
433.638	1	8
434.832	1	2
436.026	1	9
437.220	1	17
438.414	1	14
439.608	1	9
440.802	1	12
441.996	1	12
443.190	1	11
444.384	1	17
445.578	1	6
446.771	1	14
447.965	1	17
449.159	1	-3
450.352	1	1
451.546	1	3
452.739	1	8
453.933	1	1
455.126	1	10
456.320	1	13
457.513	1	6
458.706	1	15
459.899	1	9
461.093	1	13
462.286	1	5
463.479	1	1
464.672	1	4
465.865	1	2
467.058	1	5
468.251	1	-4
469.444	1	10
470.637	1	14
471.830	1	11
473.023	1	14
474.215	1	12
475.408	1	11
476.601	1	6
477.793	1	8
478.986	1	11
480.179	1	10
481.371	1	-3
482.564	1	12
483.756	1	5
484.948	1	14
486.141	1	9
487.333	1	2
488.525	1	9
489.718	1	-1
490.910	1	7
492.102	1	13
493.294	1	-2
494.486	1	10
495.678	1	15
496.870	1	14
498.062	1	11
499.254	1	11
500.446	1	6
501.638	1	18
502.829	1	12
504.021	1	23
505.213	1	3
506.404	1	14
507.596	1	32
508.788	1	13
509.979	1	16
511.171	1	23
512.362	1	28
513.553	1	16
514.745	1	25
515.936	1	18
517.127	1	27
518.319	1	21
519.510	1	20
520.701	1	23
521.892	1	20
523.083	1	11
524.274	1	13
525.465	1	29
526.656	1	27
527.847	1	13
529.038	1	25
530.229	1	29
531.419	1	33
532.610	1	29
533.801	1	24
534.991	1	18
536.182	1	22
537.373	1	28
538.563	1	19
539.754	1	22
540.944	1	14
542.134	1	23
543.325	1	25
544.515	1	28
545.705	1	21
546.896	1	12
548.086	1	24
549.276	1	23
550.466	1	31
551.656	1	19
552.846	1	19
554.036	1	19
555.226	1	27
556.416	1	32
557.606	1	10
558.796	1	21
559.986	1	15
561.175	1	11
562.365	1	11
563.555	1	20
564.744	1	18
565.934	1	26
567.123	1	7
568.313	1	16
569.502	1	16
570.692	1	18
571.881	1	10
573.070	1	3
574.260	1	11
575.449	1	7
576.638	1	14
577.827	1	14
579.016	1	15
580.205	1	9
581.394	1	11
582.583	1	13
583.772	1	3
584.961	1	4
586.150	1	5
587.339	1	14
588.528	1	7
589.717	1	11
590.905	1	10
592.094	1	13
593.283	1	7
594.471	1	-2
595.660	1	6
596.848	1	6
598.037	1	9
599.225	1	4
600.413	1	15
601.602	1	7
602.790	1	7
603.978	1	5
605.166	1	18
606.355	1	-5
607.543	1	5
608.731	1	-2
609.919	1	5
611.107	1	22
612.295	1	8
613.483	1	15
614.671	1	7
615.858	1	-6
617.046	1	7
618.234	1	-6
619.422	1	12
620.609	1	2
621.797	1	5
622.985	1	2
624.172	1	17
625.360	1	5
626.547	1	1
627.735	1	4
628.922	1	15
630.109	1	-4
631.297	1	6
632.484	1	13
633.671	1	8
634.858	1	12
636.045	1	5
637.232	1	4
638.419	1	9
639.606	1	8
640.793	1	1
641.980	1	10
643.167	1	6
644.354	1	2
645.541	1	1
646.728	1	1
647.914	1	-6
649.101	1	6
650.288	1	4
651.474	1	12
652.661	1	4
653.847	1	21
655.034	1	-3
656.220	1	16
657.406	1	10
658.593	1	10
659.779	1	5
660.965	1	13
662.152	1	5
663.338	1	5
664.524	1	11
665.710	1	7
666.896	1	4
668.082	1	9
669.268	1	5
670.454	1	7
671.640	1	9
672.826	1	7
674.011	1	2
675.197	1	3
676.383	1	-4
677.569	1	4
678.754	1	11
679.940	1	5
681.125	1	-1
682.311	1	19
683.496	1	6
684.682	1	12
685.867	1	8
687.053	1	22
688.238	1	9
688.746	1	-3