Folder: cryo-il_analysis/Data/GaN_150K_450ms (part 3)

File: GaN_sample D_spot15_UVVIS_150 K_200um_450 ms 2x2mm1_48.txt
340.368	1	-2
341.565	1	0
342.763	1	1
343.960	1	2
345.157	1	8
346.354	1	4
347.552	1	13
348.749	1	14
349.946	1	-4
351.143	1	10
352.340	1	12
353.537	1	3
354.734	1	0
355.931	1	15
357.127	1	11
358.324	1	14
359.521	1	22
360.718	1	13
361.914	1	16
363.111	1	40
364.308	1	70
365.504	1	107
366.701	1	177
367.897	1	260
369.093	1	247
370.290	1	210
371.486	1	140
372.682	1	107
373.879	1	93
375.075	1	62
376.271	1	63
377.467	1	67
378.663	1	46
379.859	1	52
381.055	1	64
382.251	1	89
383.447	1	113
384.643	1	142
385.839	1	162
387.035	1	162
388.230	1	146
389.426	1	123
390.622	1	135
391.817	1	130
393.013	1	119
394.208	1	114
395.404	1	118
396.599	1	121
397.795	1	135
398.990	1	136
400.186	1	121
401.381	1	104
402.576	1	96
403.771	1	84
404.967	1	97
406.162	1	77
407.357	1	78
408.552	1	73
409.747	1	70
410.942	1	79
412.137	1	67
413.332	1	58
414.526	1	54
415.721	1	50
416.916	1	54
418.111	1	55
419.305	1	54
420.500	1	40
421.695	1	42
422.889	1	30
424.084	1	37
425.278	1	37
426.472	1	44
427.667	1	36
428.861	1	48
430.055	1	25
431.250	1	31
432.444	1	30
433.638	1	24
434.832	1	16
436.026	1	11
437.220	1	34
438.414	1	22
439.608	1	6
440.802	1	17
441.996	1	6
443.190	1	21
444.384	1	11
445.578	1	10
446.771	1	17
447.965	1	9
449.159	1	7
450.352	1	0
451.546	1	11
452.739	1	26
453.933	1	3
455.126	1	12
456.320	1	18
457.513	1	7
458.706	1	23
459.899	1	9
461.093	1	19
462.286	1	1
463.479	1	9
464.672	1	16
465.865	1	9
467.058	1	10
468.251	1	9
469.444	1	9
470.637	1	9
471.830	1	13
473.023	1	17
474.215	1	14
475.408	1	4
476.601	1	11
477.793	1	14
478.986	1	10
480.179	1	9
481.371	1	4
482.564	1	14
483.756	1	18
484.948	1	10
486.141	1	9
487.333	1	5
488.525	1	11
489.718	1	2
490.910	1	14
492.102	1	10
493.294	1	12
494.486	1	9
495.678	1	14
496.870	1	11
498.062	1	26
499.254	1	16
500.446	1	17
501.638	1	31
502.829	1	24
504.021	1	35
505.213	1	28
506.404	1	15
507.596	1	41
508.788	1	33
509.979	1	33
511.171	1	34
512.362	1	49
513.553	1	37
514.745	1	41
515.936	1	43
517.127	1	47
518.319	1	45
519.510	1	39
520.701	1	55
521.892	1	56
523.083	1	56
524.274	1	61
525.465	1	71
526.656	1	53
527.847	1	52
529.038	1	70
530.229	1	70
531.419	1	64
532.610	1	73
533.801	1	77
534.991	1	66
536.182	1	70
537.373	1	73
538.563	1	63
539.754	1	79
540.944	1	75
542.134	1	77
543.325	1	84
544.515	1	69
545.705	1	81
546.896	1	80
548.086	1	82
549.276	1	85
550.466	1	79
551.656	1	102
552.846	1	97
554.036	1	93
555.226	1	101
556.416	1	88
557.606	1	81
558.796	1	95
559.986	1	87
561.175	1	78
562.365	1	84
563.555	1	89
564.744	1	88
565.934	1	106
567.123	1	90
568.313	1	85
569.502	1	102
570.692	1	90
571.881	1	94
573.070	1	93
574.260	1	83
575.449	1	84
576.638	1	86
577.827	1	89
579.016	1	91
580.205	1	97
581.394	1	100
582.583	1	87
583.772	1	96
584.961	1	76
586.150	1	99
587.339	1	91
588.528	1	78
589.717	1	93
590.905	1	83
592.094	1	85
593.283	1	79
594.471	1	66
595.660	1	79
596.848	1	78
598.037	1	75
599.225	1	75
600.413	1	84
601.602	1	85
602.790	1	81
603.978	1	73
605.166	1	84
606.355	1	72
607.543	1	89
608.731	1	58
609.919	1	61
611.107	1	77
612.295	1	65
613.483	1	78
614.671	1	71
615.858	1	58
617.046	1	60
618.234	1	53
619.422	1	67
620.609	1	51
621.797	1	57
622.985	1	64
624.172	1	60
625.360	1	54
626.547	1	48
627.735	1	51
628.922	1	55
630.109	1	43
631.297	1	52
632.484	1	56
633.671	1	55
634.858	1	59
636.045	1	32
637.232	1	49
638.419	1	39
639.606	1	43
640.793	1	38
641.980	1	60
643.167	1	49
644.354	1	56
645.541	1	40
646.728	1	48
647.914	1	41
649.101	1	33
650.288	1	38
651.474	1	42
652.661	1	36
653.847	1	44
655.034	1	33
656.220	1	44
657.406	1	28
658.593	1	44
659.779	1	35
660.965	1	32
662.152	1	29
663.338	1	26
664.524	1	41
665.710	1	32
666.896	1	28
668.082	1	30
669.268	1	26
670.454	1	34
671.640	1	31
672.826	1	34
674.011	1	30
675.197	1	35
676.383	1	23
677.569	1	44
678.754	1	29
679.940	1	18
681.125	1	28
682.311	1	35
683.496	1	31
684.682	1	27
685.867	1	26
687.053	1	31
688.238	1	40
688.746	1	30

File: GaN_sample D_spot15_UVVIS_150 K_200um_450 ms 2x2mm1_49.txt
340.368	1	7
341.565	1	9
342.763	1	7
343.960	1	11
345.157	1	14
346.354	1	12
347.552	1	31
348.749	1	18
349.946	1	9
351.143	1	11
352.340	1	19
353.537	1	19
354.734	1	27
355.931	1	46
357.127	1	54
358.324	1	70
359.521	1	91
360.718	1	130
361.914	1	217
363.111	1	351
364.308	1	664
365.504	1	1151
366.701	1	1848
367.897	1	2384
369.093	1	2336
370.290	1	1839
371.486	1	1311
372.682	1	1007
373.879	1	805
375.075	1	676
376.271	1	555
377.467	1	455
378.663	1	394
379.859	1	375
381.055	1	438
382.251	1	506
383.447	1	646
384.643	1	779
385.839	1	838
387.035	1	803
388.230	1	767
389.426	1	714
390.622	1	726
391.817	1	674
393.013	1	630
394.208	1	615
395.404	1	645
396.599	1	675
397.795	1	670
398.990	1	641
400.186	1	579
401.381	1	501
402.576	1	487
403.771	1	464
404.967	1	437
406.162	1	438
407.357	1	415
408.552	1	401
409.747	1	383
410.942	1	358
412.137	1	317
413.332	1	316
414.526	1	252
415.721	1	280
416.916	1	254
418.111	1	267
419.305	1	247
420.500	1	235
421.695	1	199
422.889	1	192
424.084	1	174
425.278	1	169
426.472	1	189
427.667	1	175
428.861	1	170
430.055	1	154
431.250	1	143
432.444	1	129
433.638	1	131
434.832	1	97
436.026	1	111
437.220	1	116
438.414	1	99
439.608	1	98
440.802	1	99
441.996	1	96
443.190	1	94
444.384	1	84
445.578	1	77
446.771	1	80
447.965	1	76
449.159	1	71
450.352	1	68
451.546	1	75
452.739	1	70
453.933	1	57
455.126	1	71
456.320	1	75
457.513	1	61
458.706	1	77
459.899	1	56
461.093	1	65
462.286	1	52
463.479	1	57
464.672	1	60
465.865	1	55
467.058	1	59
468.251	1	60
469.444	1	57
470.637	1	61
471.830	1	57
473.023	1	57
474.215	1	48
475.408	1	63
476.601	1	57
477.793	1	61
478.986	1	63
480.179	1	66
481.371	1	59
482.564	1	72
483.756	1	69
484.948	1	78
486.141	1	87
487.333	1	82
488.525	1	99
489.718	1	102
490.910	1	101
492.102	1	118
493.294	1	106
494.486	1	114
495.678	1	122
496.870	1	121
498.062	1	145
499.254	1	147
500.446	1	174
501.638	1	194
502.829	1	200
504.021	1	214
505.213	1	218
506.404	1	225
507.596	1	237
508.788	1	233
509.979	1	241
511.171	1	260
512.362	1	262
513.553	1	272
514.745	1	292
515.936	1	305
517.127	1	326
518.319	1	336
519.510	1	339
520.701	1	360
521.892	1	355
523.083	1	353
524.274	1	369
525.465	1	396
526.656	1	415
527.847	1	407
529.038	1	421
530.229	1	444
531.419	1	462
532.610	1	481
533.801	1	492
534.991	1	452
536.182	1	464
537.373	1	444
538.563	1	450
539.754	1	452
540.944	1	442
542.134	1	460
543.325	1	448
544.515	1	466
545.705	1	487
546.896	1	504
548.086	1	526
549.276	1	534
550.466	1	532
551.656	1	530
552.846	1	549
554.036	1	520
555.226	1	514
556.416	1	516
557.606	1	504
558.796	1	511
559.986	1	505
561.175	1	514
562.365	1	499
563.555	1	513
564.744	1	511
565.934	1	503
567.123	1	518
568.313	1	524
569.502	1	508
570.692	1	508
571.881	1	501
573.070	1	495
574.260	1	498
575.449	1	493
576.638	1	490
577.827	1	475
579.016	1	488
580.205	1	502
581.394	1	508
582.583	1	499
583.772	1	495
584.961	1	493
586.150	1	481
587.339	1	467
588.528	1	448
589.717	1	449
590.905	1	437
592.094	1	438
593.283	1	425
594.471	1	403
595.660	1	411
596.848	1	406
598.037	1	402
599.225	1	404
600.413	1	408
601.602	1	428
602.790	1	415
603.978	1	407
605.166	1	427
606.355	1	409
607.543	1	407
608.731	1	387
609.919	1	384
611.107	1	398
612.295	1	374
613.483	1	351
614.671	1	359
615.858	1	324
617.046	1	330
618.234	1	335
619.422	1	339
620.609	1	323
621.797	1	317
622.985	1	318
624.172	1	313
625.360	1	299
626.547	1	293
627.735	1	306
628.922	1	311
630.109	1	287
631.297	1	304
632.484	1	288
633.671	1	293
634.858	1	286
636.045	1	262
637.232	1	256
638.419	1	268
639.606	1	263
640.793	1	261
641.980	1	264
643.167	1	238
644.354	1	242
645.541	1	248
646.728	1	253
647.914	1	227
649.101	1	234
650.288	1	224
651.474	1	246
652.661	1	238
653.847	1	225
655.034	1	221
656.220	1	219
657.406	1	203
658.593	1	201
659.779	1	187
660.965	1	190
662.152	1	191
663.338	1	179
664.524	1	183
665.710	1	179
666.896	1	179
668.082	1	164
669.268	1	155
670.454	1	180
671.640	1	176
672.826	1	160
674.011	1	171
675.197	1	168
676.383	1	170
677.569	1	185
678.754	1	161
679.940	1	179
681.125	1	162
682.311	1	163
683.496	1	145
684.682	1	154
685.867	1	139
687.053	1	158
688.238	1	155
688.746	1	150

File: GaN_sample D_spot15_UVVIS_150 K_200um_450 ms 2x2mm1_50.txt
340.368	1	5
341.565	1	12
342.763	1	2
343.960	1	7
345.157	1	10
346.354	1	6
347.552	1	26
348.749	1	19
349.946	1	9
351.143	1	19
352.340	1	24
353.537	1	9
354.734	1	34
355.931	1	33
357.127	1	53
358.324	1	50
359.521	1	80
360.718	1	115
361.914	1	177
363.111	1	306
364.308	1	538
365.504	1	914
366.701	1	1410
367.897	1	1748
369.093	1	1683
370.290	1	1356
371.486	1	1000
372.682	1	758
373.879	1	614
375.075	1	510
376.271	1	399
377.467	1	338
378.663	1	276
379.859	1	249
381.055	1	254
382.251	1	252
383.447	1	286
384.643	1	355
385.839	1	361
387.035	1	348
388.230	1	299
389.426	1	296
390.622	1	291
391.817	1	271
393.013	1	254
394.208	1	236
395.404	1	249
396.599	1	270
397.795	1	262
398.990	1	252
400.186	1	216
401.381	1	198
402.576	1	176
403.771	1	170
404.967	1	161
406.162	1	154
407.357	1	156
408.552	1	151
409.747	1	132
410.942	1	153
412.137	1	125
413.332	1	114
414.526	1	99
415.721	1	94
416.916	1	104
418.111	1	113
419.305	1	112
420.500	1	92
421.695	1	78
422.889	1	80
424.084	1	78
425.278	1	81
426.472	1	78
427.667	1	88
428.861	1	72
430.055	1	67
431.250	1	70
432.444	1	58
433.638	1	69
434.832	1	59
436.026	1	56
437.220	1	65
438.414	1	50
439.608	1	42
440.802	1	50
441.996	1	50
443.190	1	59
444.384	1	46
445.578	1	47
446.771	1	43
447.965	1	50
449.159	1	39
450.352	1	40
451.546	1	44
452.739	1	43
453.933	1	38
455.126	1	40
456.320	1	38
457.513	1	34
458.706	1	44
459.899	1	29
461.093	1	34
462.286	1	34
463.479	1	38
464.672	1	46
465.865	1	33
467.058	1	35
468.251	1	29
469.444	1	44
470.637	1	44
471.830	1	47
473.023	1	41
474.215	1	40
475.408	1	46
476.601	1	45
477.793	1	41
478.986	1	50
480.179	1	50
481.371	1	45
482.564	1	55
483.756	1	54
484.948	1	62
486.141	1	65
487.333	1	60
488.525	1	76
489.718	1	72
490.910	1	77
492.102	1	84
493.294	1	92
494.486	1	92
495.678	1	100
496.870	1	113
498.062	1	109
499.254	1	121
500.446	1	134
501.638	1	140
502.829	1	148
504.021	1	168
505.213	1	186
506.404	1	187
507.596	1	193
508.788	1	189
509.979	1	184
511.171	1	190
512.362	1	211
513.553	1	219
514.745	1	217
515.936	1	228
517.127	1	236
518.319	1	253
519.510	1	260
520.701	1	258
521.892	1	264
523.083	1	281
524.274	1	278
525.465	1	283
526.656	1	280
527.847	1	289
529.038	1	300
530.229	1	322
531.419	1	340
532.610	1	329
533.801	1	316
534.991	1	309
536.182	1	299
537.373	1	288
538.563	1	291
539.754	1	291
540.944	1	290
542.134	1	284
543.325	1	301
544.515	1	303
545.705	1	302
546.896	1	310
548.086	1	312
549.276	1	331
550.466	1	318
551.656	1	312
552.846	1	310
554.036	1	307
555.226	1	291
556.416	1	293
557.606	1	278
558.796	1	278
559.986	1	277
561.175	1	272
562.365	1	260
563.555	1	281
564.744	1	286
565.934	1	282
567.123	1	263
568.313	1	269
569.502	1	248
570.692	1	253
571.881	1	244
573.070	1	234
574.260	1	249
575.449	1	234
576.638	1	251
577.827	1	237
579.016	1	236
580.205	1	230
581.394	1	245
582.583	1	231
583.772	1	237
584.961	1	226
586.150	1	217
587.339	1	229
588.528	1	209
589.717	1	216
590.905	1	187
592.094	1	205
593.283	1	188
594.471	1	180
595.660	1	199
596.848	1	184
598.037	1	190
599.225	1	184
600.413	1	183
601.602	1	195
602.790	1	184
603.978	1	192
605.166	1	193
606.355	1	184
607.543	1	190
608.731	1	177
609.919	1	178
611.107	1	178
612.295	1	168
613.483	1	156
614.671	1	171
615.858	1	149
617.046	1	150
618.234	1	144
619.422	1	146
620.609	1	148
621.797	1	144
622.985	1	134
624.172	1	131
625.360	1	153
626.547	1	138
627.735	1	139
628.922	1	142
630.109	1	139
631.297	1	131
632.484	1	140
633.671	1	133
634.858	1	123
636.045	1	114
637.232	1	130
638.419	1	105
639.606	1	123
640.793	1	116
641.980	1	127
643.167	1	109
644.354	1	117
645.541	1	105
646.728	1	116
647.914	1	108
649.101	1	108
650.288	1	119
651.474	1	112
652.661	1	112
653.847	1	96
655.034	1	100
656.220	1	91
657.406	1	97
658.593	1	99
659.779	1	99
660.965	1	96
662.152	1	87
663.338	1	83
664.524	1	83
665.710	1	83
666.896	1	79
668.082	1	85
669.268	1	79
670.454	1	90
671.640	1	100
672.826	1	87
674.011	1	85
675.197	1	80
676.383	1	80
677.569	1	92
678.754	1	87
679.940	1	83
681.125	1	74
682.311	1	86
683.496	1	70
684.682	1	83
685.867	1	76
687.053	1	96
688.238	1	86
688.746	1	78

File: GaN_sample D_spot15_UVVIS_150 K_200um_450 ms 2x2mm1_51.txt
340.368	1	0
341.565	1	11
342.763	1	1
343.960	1	7
345.157	1	12
346.354	1	5
347.552	1	17
348.749	1	16
349.946	1	4
351.143	1	10
352.340	1	18
353.537	1	16
354.734	1	21
355.931	1	21
357.127	1	49
358.324	1	49
359.521	1	77
360.718	1	91
361.914	1	160
363.111	1	245
364.308	1	456
365.504	1	730
366.701	1	1123
367.897	1	1363
369.093	1	1316
370.290	1	1067
371.486	1	799
372.682	1	595
373.879	1	485
375.075	1	395
376.271	1	341
377.467	1	284
378.663	1	211
379.859	1	185
381.055	1	182
382.251	1	178
383.447	1	192
384.643	1	211
385.839	1	228
387.035	1	209
388.230	1	174
389.426	1	178
390.622	1	172
391.817	1	147
393.013	1	150
394.208	1	124
395.404	1	141
396.599	1	154
397.795	1	144
398.990	1	150
400.186	1	133
401.381	1	123
402.576	1	113
403.771	1	97
404.967	1	111
406.162	1	94
407.357	1	104
408.552	1	81
409.747	1	81
410.942	1	87
412.137	1	74
413.332	1	69
414.526	1	56
415.721	1	65
416.916	1	56
418.111	1	75
419.305	1	66
420.500	1	56
421.695	1	66
422.889	1	56
424.084	1	64
425.278	1	48
426.472	1	64
427.667	1	56
428.861	1	56
430.055	1	47
431.250	1	43
432.444	1	43
433.638	1	40
434.832	1	37
436.026	1	32
437.220	1	43
438.414	1	49
439.608	1	36
440.802	1	45
441.996	1	30
443.190	1	41
444.384	1	43
445.578	1	29
446.771	1	43
447.965	1	30
449.159	1	26
450.352	1	26
451.546	1	21
452.739	1	41
453.933	1	25
455.126	1	28
456.320	1	44
457.513	1	33
458.706	1	41
459.899	1	25
461.093	1	28
462.286	1	29
463.479	1	31
464.672	1	31
465.865	1	35
467.058	1	32
468.251	1	27
469.444	1	42
470.637	1	32
471.830	1	31
473.023	1	45
474.215	1	35
475.408	1	37
476.601	1	31
477.793	1	44
478.986	1	38
480.179	1	47
481.371	1	35
482.564	1	48
483.756	1	51
484.948	1	54
486.141	1	53
487.333	1	55
488.525	1	59
489.718	1	69
490.910	1	82
492.102	1	83
493.294	1	74
494.486	1	90
495.678	1	82
496.870	1	93
498.062	1	110
499.254	1	102
500.446	1	114
501.638	1	133
502.829	1	130
504.021	1	152
505.213	1	136
506.404	1	166
507.596	1	172
508.788	1	163
509.979	1	151
511.171	1	164
512.362	1	166
513.553	1	174
514.745	1	187
515.936	1	208
517.127	1	212
518.319	1	201
519.510	1	231
520.701	1	222
521.892	1	223
523.083	1	220
524.274	1	233
525.465	1	247
526.656	1	233
527.847	1	238
529.038	1	265
530.229	1	263
531.419	1	255
532.610	1	267
533.801	1	244
534.991	1	252
536.182	1	251
537.373	1	234
538.563	1	219
539.754	1	224
540.944	1	213
542.134	1	244
543.325	1	233
544.515	1	235
545.705	1	233
546.896	1	228
548.086	1	245
549.276	1	256
550.466	1	236
551.656	1	223
552.846	1	243
554.036	1	230
555.226	1	224
556.416	1	225
557.606	1	202
558.796	1	210
559.986	1	203
561.175	1	196
562.365	1	202
563.555	1	195
564.744	1	203
565.934	1	201
567.123	1	190
568.313	1	167
569.502	1	185
570.692	1	170
571.881	1	180
573.070	1	182
574.260	1	153
575.449	1	160
576.638	1	178
577.827	1	158
579.016	1	158
580.205	1	155
581.394	1	165
582.583	1	154
583.772	1	157
584.961	1	139
586.150	1	152
587.339	1	151
588.528	1	134
589.717	1	137
590.905	1	122
592.094	1	117
593.283	1	119
594.471	1	108
595.660	1	123
596.848	1	110
598.037	1	123
599.225	1	124
600.413	1	126
601.602	1	129
602.790	1	123
603.978	1	118
605.166	1	117
606.355	1	105
607.543	1	118
608.731	1	103
609.919	1	93
611.107	1	129
612.295	1	103
613.483	1	103
614.671	1	102
615.858	1	84
617.046	1	96
618.234	1	91
619.422	1	100
620.609	1	84
621.797	1	93
622.985	1	86
624.172	1	84
625.360	1	88
626.547	1	85
627.735	1	90
628.922	1	90
630.109	1	72
631.297	1	82
632.484	1	79
633.671	1	83
634.858	1	80
636.045	1	73
637.232	1	80
638.419	1	70
639.606	1	77
640.793	1	75
641.980	1	79
643.167	1	77
644.354	1	74
645.541	1	74
646.728	1	73
647.914	1	74
649.101	1	68
650.288	1	69
651.474	1	76
652.661	1	72
653.847	1	62
655.034	1	57
656.220	1	69
657.406	1	57
658.593	1	61
659.779	1	62
660.965	1	61
662.152	1	68
663.338	1	55
664.524	1	62
665.710	1	57
666.896	1	62
668.082	1	55
669.268	1	56
670.454	1	56
671.640	1	51
672.826	1	55
674.011	1	58
675.197	1	49
676.383	1	56
677.569	1	69
678.754	1	57
679.940	1	50
681.125	1	54
682.311	1	53
683.496	1	40
684.682	1	57
685.867	1	54
687.053	1	71
688.238	1	60
688.746	1	58

File: GaN_sample D_spot15_UVVIS_150 K_200um_450 ms 2x2mm1_52.txt
340.368	1	3
341.565	1	1
342.763	1	9
343.960	1	10
345.157	1	18
346.354	1	5
347.552	1	18
348.749	1	21
349.946	1	7
351.143	1	9
352.340	1	14
353.537	1	1
354.734	1	19
355.931	1	27
357.127	1	42
358.324	1	54
359.521	1	74
360.718	1	89
361.914	1	146
363.111	1	240
364.308	1	407
365.504	1	662
366.701	1	957
367.897	1	1150
369.093	1	1086
370.290	1	886
371.486	1	678
372.682	1	522
373.879	1	427
375.075	1	357
376.271	1	285
377.467	1	252
378.663	1	191
379.859	1	150
381.055	1	143
382.251	1	136
383.447	1	157
384.643	1	163
385.839	1	155
387.035	1	156
388.230	1	127
389.426	1	124
390.622	1	116
391.817	1	110
393.013	1	112
394.208	1	99
395.404	1	105
396.599	1	105
397.795	1	105
398.990	1	118
400.186	1	86
401.381	1	87
402.576	1	72
403.771	1	67
404.967	1	72
406.162	1	69
407.357	1	63
408.552	1	56
409.747	1	67
410.942	1	67
412.137	1	63
413.332	1	54
414.526	1	39
415.721	1	54
416.916	1	46
418.111	1	53
419.305	1	47
420.500	1	46
421.695	1	44
422.889	1	48
424.084	1	41
425.278	1	34
426.472	1	48
427.667	1	43
428.861	1	38
430.055	1	45
431.250	1	44
432.444	1	43
433.638	1	34
434.832	1	30
436.026	1	23
437.220	1	31
438.414	1	40
439.608	1	19
440.802	1	35
441.996	1	27
443.190	1	31
444.384	1	40
445.578	1	26
446.771	1	16
447.965	1	27
449.159	1	18
450.352	1	25
451.546	1	34
452.739	1	28
453.933	1	32
455.126	1	29
456.320	1	22
457.513	1	27
458.706	1	38
459.899	1	20
461.093	1	29
462.286	1	23
463.479	1	20
464.672	1	32
465.865	1	23
467.058	1	33
468.251	1	27
469.444	1	22
470.637	1	22
471.830	1	25
473.023	1	38
474.215	1	26
475.408	1	25
476.601	1	28
477.793	1	26
478.986	1	43
480.179	1	39
481.371	1	35
482.564	1	48
483.756	1	43
484.948	1	35
486.141	1	50
487.333	1	42
488.525	1	50
489.718	1	53
490.910	1	63
492.102	1	67
493.294	1	43
494.486	1	73
495.678	1	78
496.870	1	86
498.062	1	86
499.254	1	96
500.446	1	95
501.638	1	116
502.829	1	114
504.021	1	130
505.213	1	124
506.404	1	130
507.596	1	146
508.788	1	140
509.979	1	141
511.171	1	150
512.362	1	168
513.553	1	175
514.745	1	171
515.936	1	168
517.127	1	198
518.319	1	193
519.510	1	183
520.701	1	209
521.892	1	203
523.083	1	203
524.274	1	202
525.465	1	212
526.656	1	196
527.847	1	212
529.038	1	222
530.229	1	238
531.419	1	228
532.610	1	244
533.801	1	241
534.991	1	211
536.182	1	225
537.373	1	207
538.563	1	195
539.754	1	194
540.944	1	204
542.134	1	202
543.325	1	201
544.515	1	197
545.705	1	209
546.896	1	203
548.086	1	199
549.276	1	209
550.466	1	198
551.656	1	191
552.846	1	202
554.036	1	187
555.226	1	179
556.416	1	168
557.606	1	161
558.796	1	159
559.986	1	168
561.175	1	147
562.365	1	158
563.555	1	156
564.744	1	162
565.934	1	164
567.123	1	145
568.313	1	148
569.502	1	144
570.692	1	134
571.881	1	142
573.070	1	131
574.260	1	135
575.449	1	127
576.638	1	139
577.827	1	119
579.016	1	112
580.205	1	109
581.394	1	122
582.583	1	127
583.772	1	126
584.961	1	108
586.150	1	108
587.339	1	101
588.528	1	101
589.717	1	97
590.905	1	97
592.094	1	103
593.283	1	94
594.471	1	81
595.660	1	99
596.848	1	84
598.037	1	77
599.225	1	90
600.413	1	87
601.602	1	91
602.790	1	88
603.978	1	84
605.166	1	84
606.355	1	79
607.543	1	86
608.731	1	81
609.919	1	65
611.107	1	95
612.295	1	72
613.483	1	69
614.671	1	77
615.858	1	58
617.046	1	74
618.234	1	58
619.422	1	76
620.609	1	59
621.797	1	72
622.985	1	58
624.172	1	59
625.360	1	59
626.547	1	56
627.735	1	68
628.922	1	67
630.109	1	51
631.297	1	62
632.484	1	68
633.671	1	64
634.858	1	64
636.045	1	46
637.232	1	70
638.419	1	52
639.606	1	55
640.793	1	59
641.980	1	53
643.167	1	57
644.354	1	67
645.541	1	57
646.728	1	61
647.914	1	44
649.101	1	48
650.288	1	62
651.474	1	59
652.661	1	51
653.847	1	48
655.034	1	39
656.220	1	40
657.406	1	47
658.593	1	48
659.779	1	47
660.965	1	51
662.152	1	41
663.338	1	42
664.524	1	47
665.710	1	45
666.896	1	39
668.082	1	36
669.268	1	39
670.454	1	42
671.640	1	44
672.826	1	39
674.011	1	40
675.197	1	45
676.383	1	38
677.569	1	53
678.754	1	40
679.940	1	44
681.125	1	35
682.311	1	46
683.496	1	36
684.682	1	48
685.867	1	43
687.053	1	56
688.238	1	54
688.746	1	52

File: GaN_sample D_spot15_UVVIS_150 K_200um_450 ms 2x2mm1_53.txt
340.368	1	6
341.565	1	10
342.763	1	8
343.960	1	0
345.157	1	21
346.354	1	5
347.552	1	20
348.749	1	10
349.946	1	9
351.143	1	8
352.340	1	18
353.537	1	5
354.734	1	17
355.931	1	32
357.127	1	40
358.324	1	43
359.521	1	62
360.718	1	88
361.914	1	139
363.111	1	199
364.308	1	359
365.504	1	562
366.701	1	822
367.897	1	992
369.093	1	943
370.290	1	756
371.486	1	596
372.682	1	457
373.879	1	375
375.075	1	309
376.271	1	248
377.467	1	203
378.663	1	165
379.859	1	132
381.055	1	118
382.251	1	108
383.447	1	119
384.643	1	134
385.839	1	131
387.035	1	117
388.230	1	111
389.426	1	97
390.622	1	83
391.817	1	76
393.013	1	77
394.208	1	74
395.404	1	73
396.599	1	84
397.795	1	74
398.990	1	82
400.186	1	59
401.381	1	65
402.576	1	60
403.771	1	48
404.967	1	65
406.162	1	49
407.357	1	65
408.552	1	46
409.747	1	45
410.942	1	61
412.137	1	42
413.332	1	47
414.526	1	35
415.721	1	38
416.916	1	42
418.111	1	43
419.305	1	48
420.500	1	26
421.695	1	42
422.889	1	37
424.084	1	27
425.278	1	31
426.472	1	45
427.667	1	39
428.861	1	40
430.055	1	45
431.250	1	37
432.444	1	22
433.638	1	39
434.832	1	13
436.026	1	13
437.220	1	44
438.414	1	24
439.608	1	14
440.802	1	28
441.996	1	28
443.190	1	18
444.384	1	32
445.578	1	27
446.771	1	25
447.965	1	23
449.159	1	17
450.352	1	25
451.546	1	18
452.739	1	22
453.933	1	15
455.126	1	24
456.320	1	41
457.513	1	13
458.706	1	17
459.899	1	24
461.093	1	24
462.286	1	14
463.479	1	19
464.672	1	26
465.865	1	21
467.058	1	28
468.251	1	18
469.444	1	33
470.637	1	17
471.830	1	27
473.023	1	25
474.215	1	29
475.408	1	20
476.601	1	32
477.793	1	29
478.986	1	44
480.179	1	39
481.371	1	30
482.564	1	32
483.756	1	43
484.948	1	42
486.141	1	54
487.333	1	44
488.525	1	48
489.718	1	45
490.910	1	69
492.102	1	63
493.294	1	56
494.486	1	70
495.678	1	70
496.870	1	79
498.062	1	78
499.254	1	80
500.446	1	83
501.638	1	99
502.829	1	101
504.021	1	105
505.213	1	116
506.404	1	124
507.596	1	127
508.788	1	122
509.979	1	130
511.171	1	134
512.362	1	141
513.553	1	140
514.745	1	143
515.936	1	153
517.127	1	148
518.319	1	158
519.510	1	139
520.701	1	171
521.892	1	169
523.083	1	178
524.274	1	168
525.465	1	192
526.656	1	187
527.847	1	170
529.038	1	189
530.229	1	205
531.419	1	208
532.610	1	218
533.801	1	193
534.991	1	204
536.182	1	177
537.373	1	173
538.563	1	167
539.754	1	178
540.944	1	177
542.134	1	166
543.325	1	174
544.515	1	176
545.705	1	160
546.896	1	179
548.086	1	170
549.276	1	176
550.466	1	167
551.656	1	162
552.846	1	160
554.036	1	174
555.226	1	137
556.416	1	147
557.606	1	131
558.796	1	146
559.986	1	143
561.175	1	132
562.365	1	145
563.555	1	144
564.744	1	135
565.934	1	133
567.123	1	119
568.313	1	111
569.502	1	118
570.692	1	110
571.881	1	100
573.070	1	112
574.260	1	111
575.449	1	81
576.638	1	97
577.827	1	89
579.016	1	103
580.205	1	100
581.394	1	103
582.583	1	93
583.772	1	97
584.961	1	79
586.150	1	85
587.339	1	83
588.528	1	83
589.717	1	77
590.905	1	75
592.094	1	82
593.283	1	75
594.471	1	62
595.660	1	79
596.848	1	73
598.037	1	69
599.225	1	70
600.413	1	71
601.602	1	74
602.790	1	85
603.978	1	71
605.166	1	69
606.355	1	52
607.543	1	63
608.731	1	57
609.919	1	62
611.107	1	64
612.295	1	61
613.483	1	56
614.671	1	67
615.858	1	41
617.046	1	52
618.234	1	45
619.422	1	65
620.609	1	49
621.797	1	48
622.985	1	53
624.172	1	46
625.360	1	47
626.547	1	46
627.735	1	46
628.922	1	50
630.109	1	45
631.297	1	49
632.484	1	49
633.671	1	54
634.858	1	44
636.045	1	39
637.232	1	49
638.419	1	35
639.606	1	51
640.793	1	37
641.980	1	51
643.167	1	32
644.354	1	44
645.541	1	38
646.728	1	40
647.914	1	39
649.101	1	28
650.288	1	40
651.474	1	53
652.661	1	40
653.847	1	46
655.034	1	27
656.220	1	33
657.406	1	38
658.593	1	41
659.779	1	46
660.965	1	29
662.152	1	38
663.338	1	36
664.524	1	47
665.710	1	32
666.896	1	36
668.082	1	27
669.268	1	38
670.454	1	34
671.640	1	38
672.826	1	34
674.011	1	36
675.197	1	31
676.383	1	39
677.569	1	44
678.754	1	36
679.940	1	34
681.125	1	38
682.311	1	33
683.496	1	32
684.682	1	38
685.867	1	26
687.053	1	43
688.238	1	44
688.746	1	40