Folder: cryo-il_analysis/Data/GaN_150K_450ms (part 17)

File: GaN_sample D_spot15_UVVIS_150 K_200um_450 ms 2x2mm1_139.txt
340.368	1	0
341.565	1	4
342.763	1	5
343.960	1	3
345.157	1	13
346.354	1	4
347.552	1	15
348.749	1	17
349.946	1	6
351.143	1	18
352.340	1	12
353.537	1	4
354.734	1	4
355.931	1	-1
357.127	1	10
358.324	1	15
359.521	1	12
360.718	1	10
361.914	1	15
363.111	1	15
364.308	1	29
365.504	1	36
366.701	1	44
367.897	1	49
369.093	1	51
370.290	1	43
371.486	1	35
372.682	1	35
373.879	1	35
375.075	1	10
376.271	1	23
377.467	1	21
378.663	1	21
379.859	1	13
381.055	1	13
382.251	1	-7
383.447	1	10
384.643	1	4
385.839	1	12
387.035	1	20
388.230	1	11
389.426	1	4
390.622	1	3
391.817	1	-2
393.013	1	24
394.208	1	5
395.404	1	15
396.599	1	9
397.795	1	1
398.990	1	21
400.186	1	13
401.381	1	2
402.576	1	9
403.771	1	-4
404.967	1	5
406.162	1	3
407.357	1	10
408.552	1	6
409.747	1	7
410.942	1	18
412.137	1	9
413.332	1	10
414.526	1	-2
415.721	1	13
416.916	1	14
418.111	1	6
419.305	1	14
420.500	1	11
421.695	1	12
422.889	1	13
424.084	1	17
425.278	1	9
426.472	1	25
427.667	1	12
428.861	1	13
430.055	1	14
431.250	1	11
432.444	1	10
433.638	1	17
434.832	1	4
436.026	1	1
437.220	1	18
438.414	1	20
439.608	1	-1
440.802	1	12
441.996	1	5
443.190	1	18
444.384	1	6
445.578	1	2
446.771	1	8
447.965	1	9
449.159	1	13
450.352	1	15
451.546	1	-2
452.739	1	2
453.933	1	6
455.126	1	6
456.320	1	14
457.513	1	9
458.706	1	12
459.899	1	7
461.093	1	8
462.286	1	8
463.479	1	-1
464.672	1	-2
465.865	1	5
467.058	1	-1
468.251	1	1
469.444	1	2
470.637	1	5
471.830	1	13
473.023	1	8
474.215	1	10
475.408	1	8
476.601	1	0
477.793	1	2
478.986	1	20
480.179	1	10
481.371	1	-3
482.564	1	9
483.756	1	12
484.948	1	16
486.141	1	16
487.333	1	8
488.525	1	-1
489.718	1	-10
490.910	1	11
492.102	1	7
493.294	1	-12
494.486	1	-6
495.678	1	1
496.870	1	7
498.062	1	2
499.254	1	-4
500.446	1	-6
501.638	1	3
502.829	1	7
504.021	1	8
505.213	1	-6
506.404	1	9
507.596	1	12
508.788	1	5
509.979	1	9
511.171	1	7
512.362	1	17
513.553	1	14
514.745	1	7
515.936	1	21
517.127	1	22
518.319	1	14
519.510	1	5
520.701	1	10
521.892	1	12
523.083	1	4
524.274	1	6
525.465	1	21
526.656	1	7
527.847	1	0
529.038	1	14
530.229	1	18
531.419	1	3
532.610	1	14
533.801	1	18
534.991	1	9
536.182	1	7
537.373	1	15
538.563	1	17
539.754	1	5
540.944	1	6
542.134	1	16
543.325	1	21
544.515	1	4
545.705	1	10
546.896	1	9
548.086	1	13
549.276	1	14
550.466	1	7
551.656	1	8
552.846	1	5
554.036	1	18
555.226	1	4
556.416	1	13
557.606	1	2
558.796	1	18
559.986	1	11
561.175	1	2
562.365	1	13
563.555	1	9
564.744	1	18
565.934	1	20
567.123	1	2
568.313	1	7
569.502	1	18
570.692	1	10
571.881	1	7
573.070	1	17
574.260	1	2
575.449	1	2
576.638	1	12
577.827	1	5
579.016	1	-1
580.205	1	14
581.394	1	6
582.583	1	7
583.772	1	14
584.961	1	8
586.150	1	7
587.339	1	3
588.528	1	0
589.717	1	4
590.905	1	7
592.094	1	5
593.283	1	7
594.471	1	5
595.660	1	11
596.848	1	15
598.037	1	8
599.225	1	4
600.413	1	0
601.602	1	12
602.790	1	-6
603.978	1	-2
605.166	1	5
606.355	1	-5
607.543	1	6
608.731	1	5
609.919	1	1
611.107	1	21
612.295	1	3
613.483	1	3
614.671	1	16
615.858	1	-2
617.046	1	-1
618.234	1	-3
619.422	1	12
620.609	1	6
621.797	1	1
622.985	1	3
624.172	1	9
625.360	1	7
626.547	1	2
627.735	1	6
628.922	1	6
630.109	1	1
631.297	1	11
632.484	1	11
633.671	1	7
634.858	1	5
636.045	1	0
637.232	1	0
638.419	1	2
639.606	1	7
640.793	1	-1
641.980	1	13
643.167	1	4
644.354	1	11
645.541	1	6
646.728	1	8
647.914	1	4
649.101	1	-3
650.288	1	10
651.474	1	7
652.661	1	14
653.847	1	4
655.034	1	7
656.220	1	10
657.406	1	4
658.593	1	2
659.779	1	8
660.965	1	9
662.152	1	4
663.338	1	1
664.524	1	11
665.710	1	14
666.896	1	6
668.082	1	3
669.268	1	6
670.454	1	7
671.640	1	7
672.826	1	5
674.011	1	8
675.197	1	13
676.383	1	7
677.569	1	14
678.754	1	0
679.940	1	-5
681.125	1	6
682.311	1	15
683.496	1	0
684.682	1	10
685.867	1	4
687.053	1	16
688.238	1	24
688.746	1	5

File: GaN_sample D_spot15_UVVIS_150 K_200um_450 ms 2x2mm1_140.txt
340.368	1	-3
341.565	1	0
342.763	1	0
343.960	1	7
345.157	1	13
346.354	1	5
347.552	1	24
348.749	1	16
349.946	1	10
351.143	1	11
352.340	1	8
353.537	1	7
354.734	1	5
355.931	1	3
357.127	1	14
358.324	1	4
359.521	1	19
360.718	1	13
361.914	1	25
363.111	1	15
364.308	1	29
365.504	1	29
366.701	1	36
367.897	1	42
369.093	1	49
370.290	1	40
371.486	1	39
372.682	1	31
373.879	1	20
375.075	1	14
376.271	1	15
377.467	1	19
378.663	1	25
379.859	1	18
381.055	1	3
382.251	1	6
383.447	1	14
384.643	1	11
385.839	1	13
387.035	1	9
388.230	1	8
389.426	1	10
390.622	1	6
391.817	1	3
393.013	1	9
394.208	1	2
395.404	1	10
396.599	1	6
397.795	1	-2
398.990	1	11
400.186	1	11
401.381	1	14
402.576	1	12
403.771	1	0
404.967	1	4
406.162	1	0
407.357	1	16
408.552	1	4
409.747	1	7
410.942	1	17
412.137	1	3
413.332	1	16
414.526	1	6
415.721	1	10
416.916	1	10
418.111	1	12
419.305	1	13
420.500	1	13
421.695	1	16
422.889	1	13
424.084	1	13
425.278	1	12
426.472	1	13
427.667	1	6
428.861	1	18
430.055	1	13
431.250	1	10
432.444	1	12
433.638	1	19
434.832	1	10
436.026	1	2
437.220	1	9
438.414	1	8
439.608	1	0
440.802	1	15
441.996	1	-5
443.190	1	9
444.384	1	14
445.578	1	-2
446.771	1	20
447.965	1	9
449.159	1	7
450.352	1	7
451.546	1	1
452.739	1	4
453.933	1	0
455.126	1	15
456.320	1	11
457.513	1	5
458.706	1	5
459.899	1	-3
461.093	1	6
462.286	1	5
463.479	1	0
464.672	1	15
465.865	1	3
467.058	1	3
468.251	1	1
469.444	1	7
470.637	1	7
471.830	1	2
473.023	1	6
474.215	1	5
475.408	1	12
476.601	1	1
477.793	1	-1
478.986	1	7
480.179	1	7
481.371	1	-8
482.564	1	10
483.756	1	11
484.948	1	10
486.141	1	9
487.333	1	-7
488.525	1	6
489.718	1	-8
490.910	1	9
492.102	1	12
493.294	1	-2
494.486	1	4
495.678	1	12
496.870	1	6
498.062	1	-9
499.254	1	-2
500.446	1	4
501.638	1	7
502.829	1	8
504.021	1	5
505.213	1	8
506.404	1	18
507.596	1	14
508.788	1	14
509.979	1	5
511.171	1	7
512.362	1	20
513.553	1	7
514.745	1	12
515.936	1	5
517.127	1	11
518.319	1	13
519.510	1	1
520.701	1	22
521.892	1	10
523.083	1	8
524.274	1	13
525.465	1	23
526.656	1	19
527.847	1	-1
529.038	1	15
530.229	1	16
531.419	1	15
532.610	1	16
533.801	1	8
534.991	1	8
536.182	1	12
537.373	1	11
538.563	1	6
539.754	1	16
540.944	1	11
542.134	1	16
543.325	1	22
544.515	1	15
545.705	1	8
546.896	1	7
548.086	1	11
549.276	1	10
550.466	1	13
551.656	1	8
552.846	1	10
554.036	1	15
555.226	1	21
556.416	1	16
557.606	1	-2
558.796	1	10
559.986	1	16
561.175	1	2
562.365	1	2
563.555	1	13
564.744	1	6
565.934	1	14
567.123	1	12
568.313	1	6
569.502	1	8
570.692	1	6
571.881	1	6
573.070	1	7
574.260	1	8
575.449	1	4
576.638	1	12
577.827	1	2
579.016	1	5
580.205	1	1
581.394	1	2
582.583	1	12
583.772	1	14
584.961	1	2
586.150	1	6
587.339	1	7
588.528	1	-1
589.717	1	4
590.905	1	5
592.094	1	9
593.283	1	12
594.471	1	0
595.660	1	6
596.848	1	5
598.037	1	13
599.225	1	5
600.413	1	13
601.602	1	13
602.790	1	6
603.978	1	-1
605.166	1	2
606.355	1	-6
607.543	1	13
608.731	1	-5
609.919	1	-4
611.107	1	14
612.295	1	9
613.483	1	3
614.671	1	9
615.858	1	-5
617.046	1	2
618.234	1	-8
619.422	1	17
620.609	1	0
621.797	1	8
622.985	1	0
624.172	1	0
625.360	1	9
626.547	1	3
627.735	1	5
628.922	1	10
630.109	1	-2
631.297	1	3
632.484	1	19
633.671	1	12
634.858	1	5
636.045	1	0
637.232	1	7
638.419	1	9
639.606	1	12
640.793	1	8
641.980	1	5
643.167	1	3
644.354	1	4
645.541	1	0
646.728	1	8
647.914	1	2
649.101	1	-6
650.288	1	15
651.474	1	2
652.661	1	2
653.847	1	19
655.034	1	2
656.220	1	4
657.406	1	6
658.593	1	9
659.779	1	12
660.965	1	0
662.152	1	4
663.338	1	-7
664.524	1	11
665.710	1	4
666.896	1	11
668.082	1	2
669.268	1	-1
670.454	1	1
671.640	1	17
672.826	1	7
674.011	1	4
675.197	1	13
676.383	1	0
677.569	1	17
678.754	1	7
679.940	1	2
681.125	1	2
682.311	1	10
683.496	1	-1
684.682	1	13
685.867	1	4
687.053	1	7
688.238	1	16
688.746	1	0

File: GaN_sample D_spot15_UVVIS_150 K_200um_450 ms 2x2mm1_142.txt
340.368	1	11
341.565	1	7
342.763	1	2
343.960	1	5
345.157	1	16
346.354	1	5
347.552	1	9
348.749	1	12
349.946	1	-2
351.143	1	7
352.340	1	11
353.537	1	4
354.734	1	3
355.931	1	14
357.127	1	13
358.324	1	9
359.521	1	10
360.718	1	12
361.914	1	19
363.111	1	12
364.308	1	29
365.504	1	31
366.701	1	51
367.897	1	36
369.093	1	46
370.290	1	51
371.486	1	42
372.682	1	32
373.879	1	36
375.075	1	19
376.271	1	20
377.467	1	27
378.663	1	3
379.859	1	14
381.055	1	10
382.251	1	-3
383.447	1	11
384.643	1	12
385.839	1	5
387.035	1	13
388.230	1	8
389.426	1	2
390.622	1	-2
391.817	1	-2
393.013	1	12
394.208	1	7
395.404	1	11
396.599	1	2
397.795	1	0
398.990	1	21
400.186	1	4
401.381	1	9
402.576	1	-2
403.771	1	-5
404.967	1	2
406.162	1	4
407.357	1	10
408.552	1	14
409.747	1	8
410.942	1	4
412.137	1	15
413.332	1	6
414.526	1	1
415.721	1	1
416.916	1	12
418.111	1	5
419.305	1	14
420.500	1	-2
421.695	1	18
422.889	1	16
424.084	1	7
425.278	1	-1
426.472	1	18
427.667	1	11
428.861	1	19
430.055	1	15
431.250	1	15
432.444	1	8
433.638	1	14
434.832	1	5
436.026	1	0
437.220	1	18
438.414	1	7
439.608	1	6
440.802	1	12
441.996	1	9
443.190	1	11
444.384	1	23
445.578	1	1
446.771	1	4
447.965	1	7
449.159	1	2
450.352	1	-1
451.546	1	5
452.739	1	12
453.933	1	-4
455.126	1	7
456.320	1	7
457.513	1	4
458.706	1	15
459.899	1	12
461.093	1	2
462.286	1	5
463.479	1	3
464.672	1	4
465.865	1	6
467.058	1	-1
468.251	1	-2
469.444	1	15
470.637	1	3
471.830	1	18
473.023	1	6
474.215	1	6
475.408	1	3
476.601	1	5
477.793	1	7
478.986	1	12
480.179	1	10
481.371	1	-2
482.564	1	9
483.756	1	4
484.948	1	10
486.141	1	13
487.333	1	-6
488.525	1	-1
489.718	1	-5
490.910	1	11
492.102	1	3
493.294	1	-4
494.486	1	7
495.678	1	3
496.870	1	-3
498.062	1	3
499.254	1	3
500.446	1	5
501.638	1	13
502.829	1	6
504.021	1	9
505.213	1	4
506.404	1	14
507.596	1	12
508.788	1	9
509.979	1	0
511.171	1	7
512.362	1	18
513.553	1	19
514.745	1	3
515.936	1	15
517.127	1	15
518.319	1	9
519.510	1	-1
520.701	1	22
521.892	1	16
523.083	1	7
524.274	1	9
525.465	1	24
526.656	1	3
527.847	1	-4
529.038	1	13
530.229	1	10
531.419	1	10
532.610	1	16
533.801	1	11
534.991	1	11
536.182	1	10
537.373	1	3
538.563	1	10
539.754	1	14
540.944	1	11
542.134	1	9
543.325	1	24
544.515	1	5
545.705	1	13
546.896	1	3
548.086	1	11
549.276	1	4
550.466	1	8
551.656	1	12
552.846	1	12
554.036	1	9
555.226	1	15
556.416	1	14
557.606	1	1
558.796	1	18
559.986	1	6
561.175	1	3
562.365	1	4
563.555	1	16
564.744	1	22
565.934	1	15
567.123	1	-4
568.313	1	8
569.502	1	8
570.692	1	12
571.881	1	7
573.070	1	6
574.260	1	10
575.449	1	-2
576.638	1	9
577.827	1	7
579.016	1	7
580.205	1	13
581.394	1	-3
582.583	1	12
583.772	1	13
584.961	1	-2
586.150	1	14
587.339	1	8
588.528	1	5
589.717	1	6
590.905	1	7
592.094	1	15
593.283	1	6
594.471	1	-1
595.660	1	8
596.848	1	1
598.037	1	4
599.225	1	5
600.413	1	8
601.602	1	12
602.790	1	4
603.978	1	2
605.166	1	15
606.355	1	-6
607.543	1	12
608.731	1	-2
609.919	1	-7
611.107	1	19
612.295	1	3
613.483	1	1
614.671	1	-7
615.858	1	3
617.046	1	3
618.234	1	-8
619.422	1	16
620.609	1	-11
621.797	1	9
622.985	1	-4
624.172	1	-2
625.360	1	0
626.547	1	0
627.735	1	5
628.922	1	11
630.109	1	-2
631.297	1	9
632.484	1	9
633.671	1	3
634.858	1	10
636.045	1	-3
637.232	1	5
638.419	1	-9
639.606	1	8
640.793	1	2
641.980	1	7
643.167	1	4
644.354	1	13
645.541	1	8
646.728	1	5
647.914	1	4
649.101	1	8
650.288	1	0
651.474	1	13
652.661	1	17
653.847	1	10
655.034	1	-4
656.220	1	0
657.406	1	-2
658.593	1	11
659.779	1	10
660.965	1	1
662.152	1	-5
663.338	1	-2
664.524	1	7
665.710	1	12
666.896	1	6
668.082	1	3
669.268	1	6
670.454	1	1
671.640	1	6
672.826	1	10
674.011	1	9
675.197	1	0
676.383	1	2
677.569	1	6
678.754	1	-3
679.940	1	5
681.125	1	2
682.311	1	6
683.496	1	-7
684.682	1	10
685.867	1	6
687.053	1	16
688.238	1	8
688.746	1	7

File: GaN_sample D_spot15_UVVIS_150 K_200um_450 ms 2x2mm1_143.txt
340.368	1	4
341.565	1	7
342.763	1	6
343.960	1	8
345.157	1	8
346.354	1	1
347.552	1	21
348.749	1	12
349.946	1	-4
351.143	1	5
352.340	1	15
353.537	1	-2
354.734	1	6
355.931	1	10
357.127	1	15
358.324	1	6
359.521	1	11
360.718	1	15
361.914	1	21
363.111	1	17
364.308	1	31
365.504	1	33
366.701	1	39
367.897	1	44
369.093	1	41
370.290	1	36
371.486	1	41
372.682	1	34
373.879	1	29
375.075	1	22
376.271	1	19
377.467	1	24
378.663	1	12
379.859	1	7
381.055	1	9
382.251	1	11
383.447	1	7
384.643	1	1
385.839	1	19
387.035	1	19
388.230	1	12
389.426	1	5
390.622	1	4
391.817	1	0
393.013	1	17
394.208	1	7
395.404	1	-1
396.599	1	7
397.795	1	6
398.990	1	13
400.186	1	12
401.381	1	9
402.576	1	7
403.771	1	3
404.967	1	7
406.162	1	3
407.357	1	15
408.552	1	7
409.747	1	7
410.942	1	13
412.137	1	12
413.332	1	16
414.526	1	1
415.721	1	20
416.916	1	8
418.111	1	9
419.305	1	17
420.500	1	9
421.695	1	13
422.889	1	11
424.084	1	12
425.278	1	4
426.472	1	21
427.667	1	12
428.861	1	16
430.055	1	17
431.250	1	6
432.444	1	15
433.638	1	11
434.832	1	-1
436.026	1	6
437.220	1	12
438.414	1	10
439.608	1	7
440.802	1	6
441.996	1	7
443.190	1	15
444.384	1	7
445.578	1	7
446.771	1	10
447.965	1	3
449.159	1	3
450.352	1	7
451.546	1	7
452.739	1	6
453.933	1	-4
455.126	1	3
456.320	1	14
457.513	1	10
458.706	1	13
459.899	1	-1
461.093	1	4
462.286	1	-3
463.479	1	0
464.672	1	11
465.865	1	-6
467.058	1	7
468.251	1	0
469.444	1	-4
470.637	1	3
471.830	1	15
473.023	1	10
474.215	1	9
475.408	1	4
476.601	1	8
477.793	1	4
478.986	1	8
480.179	1	8
481.371	1	0
482.564	1	2
483.756	1	-4
484.948	1	7
486.141	1	17
487.333	1	1
488.525	1	2
489.718	1	-5
490.910	1	8
492.102	1	5
493.294	1	-9
494.486	1	2
495.678	1	-2
496.870	1	3
498.062	1	4
499.254	1	1
500.446	1	3
501.638	1	7
502.829	1	-2
504.021	1	4
505.213	1	2
506.404	1	6
507.596	1	20
508.788	1	13
509.979	1	-1
511.171	1	15
512.362	1	14
513.553	1	11
514.745	1	3
515.936	1	7
517.127	1	18
518.319	1	8
519.510	1	9
520.701	1	12
521.892	1	10
523.083	1	10
524.274	1	13
525.465	1	9
526.656	1	12
527.847	1	-3
529.038	1	9
530.229	1	20
531.419	1	12
532.610	1	18
533.801	1	9
534.991	1	3
536.182	1	19
537.373	1	3
538.563	1	2
539.754	1	0
540.944	1	9
542.134	1	6
543.325	1	15
544.515	1	6
545.705	1	13
546.896	1	23
548.086	1	10
549.276	1	16
550.466	1	5
551.656	1	6
552.846	1	12
554.036	1	12
555.226	1	7
556.416	1	12
557.606	1	-2
558.796	1	8
559.986	1	8
561.175	1	9
562.365	1	6
563.555	1	15
564.744	1	26
565.934	1	16
567.123	1	11
568.313	1	2
569.502	1	8
570.692	1	10
571.881	1	7
573.070	1	4
574.260	1	14
575.449	1	-2
576.638	1	7
577.827	1	2
579.016	1	1
580.205	1	-2
581.394	1	11
582.583	1	4
583.772	1	6
584.961	1	3
586.150	1	7
587.339	1	-4
588.528	1	1
589.717	1	8
590.905	1	4
592.094	1	13
593.283	1	11
594.471	1	-5
595.660	1	12
596.848	1	4
598.037	1	-2
599.225	1	1
600.413	1	7
601.602	1	7
602.790	1	7
603.978	1	5
605.166	1	1
606.355	1	-12
607.543	1	6
608.731	1	-4
609.919	1	-1
611.107	1	8
612.295	1	12
613.483	1	5
614.671	1	10
615.858	1	-11
617.046	1	3
618.234	1	-4
619.422	1	19
620.609	1	0
621.797	1	5
622.985	1	-2
624.172	1	11
625.360	1	-2
626.547	1	7
627.735	1	1
628.922	1	8
630.109	1	-3
631.297	1	7
632.484	1	15
633.671	1	9
634.858	1	12
636.045	1	-1
637.232	1	3
638.419	1	4
639.606	1	2
640.793	1	-3
641.980	1	9
643.167	1	9
644.354	1	7
645.541	1	3
646.728	1	5
647.914	1	-3
649.101	1	0
650.288	1	3
651.474	1	10
652.661	1	13
653.847	1	5
655.034	1	-8
656.220	1	9
657.406	1	-6
658.593	1	6
659.779	1	14
660.965	1	3
662.152	1	7
663.338	1	8
664.524	1	10
665.710	1	8
666.896	1	2
668.082	1	5
669.268	1	6
670.454	1	3
671.640	1	6
672.826	1	-2
674.011	1	5
675.197	1	13
676.383	1	-4
677.569	1	8
678.754	1	2
679.940	1	-3
681.125	1	12
682.311	1	17
683.496	1	-8
684.682	1	8
685.867	1	2
687.053	1	20
688.238	1	9
688.746	1	3

File: GaN_sample D_spot15_UVVIS_150 K_200um_450 ms 2x2mm1_144.txt
340.368	1	1
341.565	1	0
342.763	1	2
343.960	1	7
345.157	1	9
346.354	1	-4
347.552	1	11
348.749	1	12
349.946	1	-2
351.143	1	4
352.340	1	6
353.537	1	-1
354.734	1	11
355.931	1	11
357.127	1	22
358.324	1	9
359.521	1	16
360.718	1	10
361.914	1	13
363.111	1	9
364.308	1	28
365.504	1	27
366.701	1	44
367.897	1	48
369.093	1	43
370.290	1	49
371.486	1	33
372.682	1	41
373.879	1	20
375.075	1	18
376.271	1	14
377.467	1	16
378.663	1	20
379.859	1	15
381.055	1	16
382.251	1	-7
383.447	1	8
384.643	1	9
385.839	1	11
387.035	1	13
388.230	1	5
389.426	1	4
390.622	1	-8
391.817	1	-3
393.013	1	14
394.208	1	9
395.404	1	18
396.599	1	8
397.795	1	0
398.990	1	20
400.186	1	4
401.381	1	8
402.576	1	14
403.771	1	-2
404.967	1	4
406.162	1	0
407.357	1	14
408.552	1	-1
409.747	1	3
410.942	1	25
412.137	1	8
413.332	1	6
414.526	1	8
415.721	1	13
416.916	1	-5
418.111	1	14
419.305	1	8
420.500	1	5
421.695	1	13
422.889	1	-1
424.084	1	9
425.278	1	5
426.472	1	15
427.667	1	7
428.861	1	15
430.055	1	18
431.250	1	11
432.444	1	11
433.638	1	18
434.832	1	11
436.026	1	1
437.220	1	7
438.414	1	8
439.608	1	1
440.802	1	7
441.996	1	8
443.190	1	14
444.384	1	12
445.578	1	6
446.771	1	15
447.965	1	7
449.159	1	-3
450.352	1	0
451.546	1	5
452.739	1	6
453.933	1	2
455.126	1	5
456.320	1	8
457.513	1	-1
458.706	1	18
459.899	1	5
461.093	1	5
462.286	1	1
463.479	1	13
464.672	1	5
465.865	1	7
467.058	1	6
468.251	1	-4
469.444	1	4
470.637	1	8
471.830	1	8
473.023	1	4
474.215	1	11
475.408	1	1
476.601	1	1
477.793	1	5
478.986	1	9
480.179	1	4
481.371	1	-7
482.564	1	6
483.756	1	15
484.948	1	2
486.141	1	5
487.333	1	-1
488.525	1	-4
489.718	1	1
490.910	1	19
492.102	1	5
493.294	1	-5
494.486	1	6
495.678	1	8
496.870	1	7
498.062	1	12
499.254	1	2
500.446	1	1
501.638	1	10
502.829	1	8
504.021	1	9
505.213	1	5
506.404	1	7
507.596	1	17
508.788	1	5
509.979	1	5
511.171	1	12
512.362	1	15
513.553	1	16
514.745	1	-3
515.936	1	6
517.127	1	21
518.319	1	10
519.510	1	-2
520.701	1	13
521.892	1	20
523.083	1	1
524.274	1	15
525.465	1	27
526.656	1	11
527.847	1	6
529.038	1	0
530.229	1	9
531.419	1	19
532.610	1	24
533.801	1	12
534.991	1	5
536.182	1	10
537.373	1	6
538.563	1	16
539.754	1	11
540.944	1	9
542.134	1	12
543.325	1	10
544.515	1	18
545.705	1	13
546.896	1	10
548.086	1	12
549.276	1	17
550.466	1	4
551.656	1	1
552.846	1	-1
554.036	1	25
555.226	1	13
556.416	1	9
557.606	1	4
558.796	1	11
559.986	1	14
561.175	1	11
562.365	1	12
563.555	1	10
564.744	1	16
565.934	1	18
567.123	1	13
568.313	1	7
569.502	1	4
570.692	1	15
571.881	1	6
573.070	1	3
574.260	1	9
575.449	1	5
576.638	1	13
577.827	1	0
579.016	1	17
580.205	1	14
581.394	1	-1
582.583	1	7
583.772	1	7
584.961	1	-9
586.150	1	4
587.339	1	7
588.528	1	4
589.717	1	2
590.905	1	5
592.094	1	3
593.283	1	0
594.471	1	0
595.660	1	16
596.848	1	7
598.037	1	5
599.225	1	-1
600.413	1	7
601.602	1	-1
602.790	1	3
603.978	1	-1
605.166	1	5
606.355	1	3
607.543	1	11
608.731	1	3
609.919	1	-4
611.107	1	8
612.295	1	11
613.483	1	6
614.671	1	5
615.858	1	-14
617.046	1	4
618.234	1	-6
619.422	1	18
620.609	1	3
621.797	1	8
622.985	1	3
624.172	1	4
625.360	1	-2
626.547	1	1
627.735	1	5
628.922	1	14
630.109	1	-5
631.297	1	4
632.484	1	5
633.671	1	9
634.858	1	7
636.045	1	-4
637.232	1	13
638.419	1	1
639.606	1	15
640.793	1	15
641.980	1	9
643.167	1	3
644.354	1	13
645.541	1	3
646.728	1	14
647.914	1	-5
649.101	1	0
650.288	1	9
651.474	1	16
652.661	1	10
653.847	1	8
655.034	1	-3
656.220	1	6
657.406	1	-1
658.593	1	8
659.779	1	6
660.965	1	-1
662.152	1	2
663.338	1	-2
664.524	1	13
665.710	1	6
666.896	1	1
668.082	1	7
669.268	1	-6
670.454	1	10
671.640	1	11
672.826	1	3
674.011	1	9
675.197	1	3
676.383	1	3
677.569	1	11
678.754	1	4
679.940	1	5
681.125	1	-5
682.311	1	10
683.496	1	0
684.682	1	7
685.867	1	-2
687.053	1	9
688.238	1	9
688.746	1	4

File: GaN_sample D_spot15_UVVIS_150 K_200um_450 ms 2x2mm1_145.txt
340.368	1	0
341.565	1	14
342.763	1	6
343.960	1	5
345.157	1	12
346.354	1	5
347.552	1	16
348.749	1	13
349.946	1	-1
351.143	1	6
352.340	1	16
353.537	1	4
354.734	1	5
355.931	1	8
357.127	1	14
358.324	1	20
359.521	1	23
360.718	1	8
361.914	1	10
363.111	1	19
364.308	1	25
365.504	1	26
366.701	1	37
367.897	1	44
369.093	1	44
370.290	1	37
371.486	1	48
372.682	1	35
373.879	1	22
375.075	1	6
376.271	1	15
377.467	1	17
378.663	1	18
379.859	1	8
381.055	1	15
382.251	1	8
383.447	1	3
384.643	1	8
385.839	1	7
387.035	1	7
388.230	1	11
389.426	1	2
390.622	1	6
391.817	1	2
393.013	1	12
394.208	1	7
395.404	1	16
396.599	1	14
397.795	1	11
398.990	1	21
400.186	1	7
401.381	1	3
402.576	1	7
403.771	1	-2
404.967	1	14
406.162	1	4
407.357	1	18
408.552	1	5
409.747	1	2
410.942	1	14
412.137	1	5
413.332	1	11
414.526	1	7
415.721	1	12
416.916	1	6
418.111	1	16
419.305	1	5
420.500	1	12
421.695	1	4
422.889	1	7
424.084	1	14
425.278	1	14
426.472	1	15
427.667	1	3
428.861	1	8
430.055	1	7
431.250	1	16
432.444	1	13
433.638	1	16
434.832	1	5
436.026	1	0
437.220	1	13
438.414	1	19
439.608	1	1
440.802	1	11
441.996	1	6
443.190	1	7
444.384	1	7
445.578	1	7
446.771	1	6
447.965	1	0
449.159	1	-1
450.352	1	1
451.546	1	0
452.739	1	10
453.933	1	-4
455.126	1	5
456.320	1	4
457.513	1	6
458.706	1	17
459.899	1	4
461.093	1	12
462.286	1	4
463.479	1	-4
464.672	1	6
465.865	1	5
467.058	1	11
468.251	1	-4
469.444	1	8
470.637	1	7
471.830	1	11
473.023	1	8
474.215	1	6
475.408	1	4
476.601	1	7
477.793	1	7
478.986	1	8
480.179	1	4
481.371	1	-10
482.564	1	13
483.756	1	11
484.948	1	7
486.141	1	9
487.333	1	-1
488.525	1	1
489.718	1	-6
490.910	1	6
492.102	1	13
493.294	1	-3
494.486	1	5
495.678	1	2
496.870	1	6
498.062	1	12
499.254	1	-4
500.446	1	2
501.638	1	14
502.829	1	3
504.021	1	6
505.213	1	7
506.404	1	8
507.596	1	14
508.788	1	7
509.979	1	16
511.171	1	12
512.362	1	15
513.553	1	16
514.745	1	10
515.936	1	8
517.127	1	17
518.319	1	8
519.510	1	-2
520.701	1	8
521.892	1	9
523.083	1	13
524.274	1	10
525.465	1	19
526.656	1	11
527.847	1	-6
529.038	1	12
530.229	1	12
531.419	1	13
532.610	1	8
533.801	1	7
534.991	1	6
536.182	1	9
537.373	1	10
538.563	1	2
539.754	1	8
540.944	1	9
542.134	1	13
543.325	1	16
544.515	1	8
545.705	1	0
546.896	1	11
548.086	1	11
549.276	1	11
550.466	1	4
551.656	1	13
552.846	1	13
554.036	1	20
555.226	1	13
556.416	1	18
557.606	1	-3
558.796	1	17
559.986	1	11
561.175	1	-1
562.365	1	3
563.555	1	8
564.744	1	19
565.934	1	22
567.123	1	9
568.313	1	8
569.502	1	9
570.692	1	12
571.881	1	9
573.070	1	8
574.260	1	0
575.449	1	6
576.638	1	14
577.827	1	-1
579.016	1	6
580.205	1	2
581.394	1	7
582.583	1	4
583.772	1	9
584.961	1	-2
586.150	1	6
587.339	1	0
588.528	1	5
589.717	1	14
590.905	1	4
592.094	1	14
593.283	1	10
594.471	1	1
595.660	1	17
596.848	1	4
598.037	1	-9
599.225	1	0
600.413	1	7
601.602	1	7
602.790	1	19
603.978	1	3
605.166	1	-6
606.355	1	-9
607.543	1	9
608.731	1	-10
609.919	1	-10
611.107	1	7
612.295	1	12
613.483	1	4
614.671	1	5
615.858	1	-3
617.046	1	7
618.234	1	-2
619.422	1	15
620.609	1	-1
621.797	1	13
622.985	1	8
624.172	1	5
625.360	1	5
626.547	1	6
627.735	1	13
628.922	1	16
630.109	1	-2
631.297	1	3
632.484	1	12
633.671	1	-1
634.858	1	11
636.045	1	7
637.232	1	8
638.419	1	6
639.606	1	16
640.793	1	8
641.980	1	11
643.167	1	4
644.354	1	8
645.541	1	-2
646.728	1	6
647.914	1	1
649.101	1	-2
650.288	1	12
651.474	1	9
652.661	1	4
653.847	1	5
655.034	1	4
656.220	1	14
657.406	1	-6
658.593	1	7
659.779	1	4
660.965	1	3
662.152	1	3
663.338	1	3
664.524	1	13
665.710	1	6
666.896	1	7
668.082	1	3
669.268	1	4
670.454	1	0
671.640	1	7
672.826	1	1
674.011	1	8
675.197	1	7
676.383	1	5
677.569	1	19
678.754	1	3
679.940	1	-3
681.125	1	-1
682.311	1	10
683.496	1	7
684.682	1	7
685.867	1	6
687.053	1	12
688.238	1	7
688.746	1	3