Folder: cryo-il_analysis/Data/GaN_170K_550ms (part 11)

File: GaN_sample D_spot 18_UVVIS_170 K_200um_550 ms 2x2mm1_105.txt
340.368	1	3
341.565	1	9
342.763	1	10
343.960	1	0
345.157	1	2
346.354	1	2
347.552	1	13
348.749	1	9
349.946	1	19
351.143	1	-7
352.340	1	11
353.537	1	2
354.734	1	14
355.931	1	6
357.127	1	7
358.324	1	14
359.521	1	17
360.718	1	17
361.914	1	22
363.111	1	36
364.308	1	51
365.504	1	60
366.701	1	68
367.897	1	73
369.093	1	65
370.290	1	77
371.486	1	59
372.682	1	57
373.879	1	55
375.075	1	48
376.271	1	39
377.467	1	29
378.663	1	29
379.859	1	29
381.055	1	14
382.251	1	14
383.447	1	15
384.643	1	11
385.839	1	6
387.035	1	14
388.230	1	1
389.426	1	14
390.622	1	10
391.817	1	0
393.013	1	-5
394.208	1	4
395.404	1	14
396.599	1	-6
397.795	1	5
398.990	1	-5
400.186	1	3
401.381	1	13
402.576	1	7
403.771	1	1
404.967	1	2
406.162	1	8
407.357	1	6
408.552	1	7
409.747	1	5
410.942	1	1
412.137	1	-2
413.332	1	-2
414.526	1	7
415.721	1	-2
416.916	1	-7
418.111	1	18
419.305	1	0
420.500	1	10
421.695	1	-5
422.889	1	0
424.084	1	15
425.278	1	5
426.472	1	2
427.667	1	12
428.861	1	3
430.055	1	8
431.250	1	17
432.444	1	-2
433.638	1	10
434.832	1	0
436.026	1	-2
437.220	1	11
438.414	1	-1
439.608	1	9
440.802	1	18
441.996	1	1
443.190	1	2
444.384	1	7
445.578	1	11
446.771	1	-7
447.965	1	1
449.159	1	-13
450.352	1	-6
451.546	1	-14
452.739	1	1
453.933	1	6
455.126	1	19
456.320	1	1
457.513	1	5
458.706	1	-1
459.899	1	-2
461.093	1	1
462.286	1	-4
463.479	1	-1
464.672	1	3
465.865	1	11
467.058	1	5
468.251	1	5
469.444	1	2
470.637	1	7
471.830	1	-9
473.023	1	2
474.215	1	3
475.408	1	-3
476.601	1	1
477.793	1	12
478.986	1	-4
480.179	1	-3
481.371	1	6
482.564	1	1
483.756	1	4
484.948	1	8
486.141	1	16
487.333	1	-6
488.525	1	11
489.718	1	12
490.910	1	6
492.102	1	-1
493.294	1	4
494.486	1	11
495.678	1	6
496.870	1	9
498.062	1	7
499.254	1	10
500.446	1	2
501.638	1	0
502.829	1	11
504.021	1	14
505.213	1	8
506.404	1	11
507.596	1	14
508.788	1	2
509.979	1	7
511.171	1	11
512.362	1	9
513.553	1	16
514.745	1	2
515.936	1	14
517.127	1	11
518.319	1	18
519.510	1	18
520.701	1	18
521.892	1	11
523.083	1	15
524.274	1	5
525.465	1	14
526.656	1	18
527.847	1	13
529.038	1	6
530.229	1	20
531.419	1	24
532.610	1	9
533.801	1	15
534.991	1	13
536.182	1	16
537.373	1	5
538.563	1	20
539.754	1	10
540.944	1	9
542.134	1	8
543.325	1	21
544.515	1	10
545.705	1	15
546.896	1	11
548.086	1	12
549.276	1	11
550.466	1	10
551.656	1	17
552.846	1	19
554.036	1	17
555.226	1	2
556.416	1	4
557.606	1	13
558.796	1	9
559.986	1	10
561.175	1	-5
562.365	1	14
563.555	1	2
564.744	1	7
565.934	1	12
567.123	1	4
568.313	1	7
569.502	1	8
570.692	1	12
571.881	1	10
573.070	1	8
574.260	1	1
575.449	1	13
576.638	1	20
577.827	1	3
579.016	1	4
580.205	1	0
581.394	1	7
582.583	1	2
583.772	1	0
584.961	1	8
586.150	1	6
587.339	1	7
588.528	1	-2
589.717	1	6
590.905	1	16
592.094	1	11
593.283	1	16
594.471	1	9
595.660	1	-1
596.848	1	12
598.037	1	1
599.225	1	6
600.413	1	-4
601.602	1	14
602.790	1	14
603.978	1	5
605.166	1	15
606.355	1	8
607.543	1	12
608.731	1	12
609.919	1	-4
611.107	1	3
612.295	1	7
613.483	1	-7
614.671	1	7
615.858	1	0
617.046	1	5
618.234	1	4
619.422	1	5
620.609	1	-1
621.797	1	-1
622.985	1	-1
624.172	1	2
625.360	1	3
626.547	1	0
627.735	1	-18
628.922	1	-9
630.109	1	-2
631.297	1	0
632.484	1	4
633.671	1	12
634.858	1	4
636.045	1	9
637.232	1	5
638.419	1	-2
639.606	1	-2
640.793	1	-2
641.980	1	-5
643.167	1	2
644.354	1	2
645.541	1	4
646.728	1	4
647.914	1	7
649.101	1	6
650.288	1	2
651.474	1	10
652.661	1	7
653.847	1	2
655.034	1	2
656.220	1	9
657.406	1	0
658.593	1	2
659.779	1	0
660.965	1	5
662.152	1	6
663.338	1	12
664.524	1	6
665.710	1	1
666.896	1	2
668.082	1	3
669.268	1	-1
670.454	1	-1
671.640	1	6
672.826	1	5
674.011	1	6
675.197	1	3
676.383	1	-7
677.569	1	0
678.754	1	6
679.940	1	5
681.125	1	6
682.311	1	9
683.496	1	-4
684.682	1	9
685.867	1	10
687.053	1	0
688.238	1	0
688.746	1	-5

File: GaN_sample D_spot 18_UVVIS_170 K_200um_550 ms 2x2mm1_106.txt
340.368	1	5
341.565	1	-4
342.763	1	4
343.960	1	-11
345.157	1	1
346.354	1	-3
347.552	1	12
348.749	1	14
349.946	1	6
351.143	1	-3
352.340	1	6
353.537	1	10
354.734	1	14
355.931	1	4
357.127	1	9
358.324	1	16
359.521	1	17
360.718	1	18
361.914	1	16
363.111	1	34
364.308	1	46
365.504	1	63
366.701	1	62
367.897	1	75
369.093	1	76
370.290	1	81
371.486	1	56
372.682	1	61
373.879	1	56
375.075	1	32
376.271	1	42
377.467	1	39
378.663	1	27
379.859	1	27
381.055	1	10
382.251	1	17
383.447	1	20
384.643	1	12
385.839	1	5
387.035	1	17
388.230	1	4
389.426	1	6
390.622	1	10
391.817	1	3
393.013	1	8
394.208	1	9
395.404	1	11
396.599	1	-2
397.795	1	-4
398.990	1	1
400.186	1	9
401.381	1	19
402.576	1	7
403.771	1	3
404.967	1	7
406.162	1	10
407.357	1	1
408.552	1	3
409.747	1	-2
410.942	1	9
412.137	1	-4
413.332	1	2
414.526	1	8
415.721	1	7
416.916	1	-5
418.111	1	7
419.305	1	5
420.500	1	1
421.695	1	-7
422.889	1	6
424.084	1	23
425.278	1	3
426.472	1	-1
427.667	1	-5
428.861	1	3
430.055	1	6
431.250	1	14
432.444	1	5
433.638	1	9
434.832	1	8
436.026	1	9
437.220	1	5
438.414	1	-5
439.608	1	3
440.802	1	11
441.996	1	3
443.190	1	-9
444.384	1	5
445.578	1	7
446.771	1	-11
447.965	1	3
449.159	1	4
450.352	1	-5
451.546	1	-2
452.739	1	-3
453.933	1	0
455.126	1	23
456.320	1	8
457.513	1	13
458.706	1	0
459.899	1	4
461.093	1	7
462.286	1	-2
463.479	1	-2
464.672	1	-2
465.865	1	-3
467.058	1	9
468.251	1	5
469.444	1	7
470.637	1	5
471.830	1	-12
473.023	1	0
474.215	1	6
475.408	1	2
476.601	1	-1
477.793	1	3
478.986	1	-1
480.179	1	-7
481.371	1	-1
482.564	1	-2
483.756	1	0
484.948	1	3
486.141	1	8
487.333	1	5
488.525	1	8
489.718	1	14
490.910	1	3
492.102	1	-2
493.294	1	9
494.486	1	11
495.678	1	5
496.870	1	4
498.062	1	6
499.254	1	10
500.446	1	7
501.638	1	3
502.829	1	4
504.021	1	13
505.213	1	8
506.404	1	8
507.596	1	10
508.788	1	0
509.979	1	10
511.171	1	12
512.362	1	8
513.553	1	12
514.745	1	9
515.936	1	6
517.127	1	12
518.319	1	17
519.510	1	11
520.701	1	12
521.892	1	14
523.083	1	6
524.274	1	14
525.465	1	14
526.656	1	13
527.847	1	0
529.038	1	7
530.229	1	27
531.419	1	13
532.610	1	10
533.801	1	12
534.991	1	13
536.182	1	4
537.373	1	9
538.563	1	15
539.754	1	7
540.944	1	3
542.134	1	8
543.325	1	15
544.515	1	12
545.705	1	17
546.896	1	10
548.086	1	14
549.276	1	9
550.466	1	8
551.656	1	10
552.846	1	6
554.036	1	10
555.226	1	4
556.416	1	11
557.606	1	7
558.796	1	9
559.986	1	8
561.175	1	-1
562.365	1	7
563.555	1	8
564.744	1	13
565.934	1	5
567.123	1	7
568.313	1	10
569.502	1	2
570.692	1	18
571.881	1	6
573.070	1	7
574.260	1	5
575.449	1	6
576.638	1	15
577.827	1	0
579.016	1	2
580.205	1	-5
581.394	1	3
582.583	1	3
583.772	1	-2
584.961	1	0
586.150	1	-5
587.339	1	2
588.528	1	10
589.717	1	10
590.905	1	11
592.094	1	10
593.283	1	9
594.471	1	8
595.660	1	2
596.848	1	7
598.037	1	4
599.225	1	6
600.413	1	3
601.602	1	3
602.790	1	20
603.978	1	16
605.166	1	5
606.355	1	8
607.543	1	12
608.731	1	8
609.919	1	4
611.107	1	1
612.295	1	-4
613.483	1	0
614.671	1	15
615.858	1	-6
617.046	1	-2
618.234	1	-1
619.422	1	-10
620.609	1	6
621.797	1	7
622.985	1	6
624.172	1	8
625.360	1	-2
626.547	1	-2
627.735	1	-4
628.922	1	-16
630.109	1	-4
631.297	1	2
632.484	1	-9
633.671	1	15
634.858	1	9
636.045	1	10
637.232	1	12
638.419	1	3
639.606	1	-10
640.793	1	-2
641.980	1	3
643.167	1	0
644.354	1	7
645.541	1	5
646.728	1	1
647.914	1	5
649.101	1	7
650.288	1	10
651.474	1	2
652.661	1	-5
653.847	1	10
655.034	1	0
656.220	1	11
657.406	1	2
658.593	1	11
659.779	1	-3
660.965	1	14
662.152	1	0
663.338	1	9
664.524	1	7
665.710	1	3
666.896	1	4
668.082	1	16
669.268	1	1
670.454	1	-5
671.640	1	14
672.826	1	6
674.011	1	1
675.197	1	1
676.383	1	9
677.569	1	5
678.754	1	6
679.940	1	8
681.125	1	9
682.311	1	13
683.496	1	13
684.682	1	8
685.867	1	10
687.053	1	-5
688.238	1	1
688.746	1	0

File: GaN_sample D_spot 18_UVVIS_170 K_200um_550 ms 2x2mm1_108.txt
340.368	1	-2
341.565	1	6
342.763	1	-1
343.960	1	-2
345.157	1	3
346.354	1	-1
347.552	1	9
348.749	1	9
349.946	1	10
351.143	1	-5
352.340	1	11
353.537	1	11
354.734	1	13
355.931	1	3
357.127	1	5
358.324	1	14
359.521	1	18
360.718	1	24
361.914	1	26
363.111	1	36
364.308	1	39
365.504	1	51
366.701	1	65
367.897	1	78
369.093	1	73
370.290	1	80
371.486	1	47
372.682	1	55
373.879	1	56
375.075	1	43
376.271	1	42
377.467	1	44
378.663	1	14
379.859	1	24
381.055	1	18
382.251	1	15
383.447	1	23
384.643	1	13
385.839	1	4
387.035	1	7
388.230	1	9
389.426	1	13
390.622	1	1
391.817	1	7
393.013	1	11
394.208	1	11
395.404	1	12
396.599	1	6
397.795	1	-1
398.990	1	-5
400.186	1	3
401.381	1	13
402.576	1	0
403.771	1	6
404.967	1	9
406.162	1	9
407.357	1	9
408.552	1	-3
409.747	1	4
410.942	1	0
412.137	1	-4
413.332	1	4
414.526	1	6
415.721	1	4
416.916	1	-5
418.111	1	16
419.305	1	2
420.500	1	6
421.695	1	-2
422.889	1	-5
424.084	1	19
425.278	1	-5
426.472	1	8
427.667	1	3
428.861	1	8
430.055	1	3
431.250	1	19
432.444	1	3
433.638	1	2
434.832	1	15
436.026	1	8
437.220	1	12
438.414	1	-4
439.608	1	9
440.802	1	17
441.996	1	-4
443.190	1	4
444.384	1	9
445.578	1	6
446.771	1	-8
447.965	1	5
449.159	1	-4
450.352	1	-1
451.546	1	-2
452.739	1	2
453.933	1	-5
455.126	1	10
456.320	1	-1
457.513	1	11
458.706	1	7
459.899	1	4
461.093	1	5
462.286	1	-1
463.479	1	-1
464.672	1	2
465.865	1	6
467.058	1	11
468.251	1	5
469.444	1	3
470.637	1	1
471.830	1	-4
473.023	1	5
474.215	1	3
475.408	1	-1
476.601	1	4
477.793	1	5
478.986	1	1
480.179	1	-5
481.371	1	12
482.564	1	7
483.756	1	4
484.948	1	3
486.141	1	16
487.333	1	-12
488.525	1	12
489.718	1	16
490.910	1	14
492.102	1	3
493.294	1	1
494.486	1	10
495.678	1	2
496.870	1	18
498.062	1	2
499.254	1	7
500.446	1	-5
501.638	1	6
502.829	1	-2
504.021	1	12
505.213	1	7
506.404	1	9
507.596	1	19
508.788	1	-1
509.979	1	5
511.171	1	14
512.362	1	6
513.553	1	8
514.745	1	10
515.936	1	4
517.127	1	9
518.319	1	9
519.510	1	18
520.701	1	21
521.892	1	16
523.083	1	8
524.274	1	9
525.465	1	8
526.656	1	17
527.847	1	10
529.038	1	4
530.229	1	19
531.419	1	23
532.610	1	12
533.801	1	12
534.991	1	9
536.182	1	20
537.373	1	7
538.563	1	15
539.754	1	10
540.944	1	2
542.134	1	12
543.325	1	17
544.515	1	5
545.705	1	15
546.896	1	10
548.086	1	20
549.276	1	19
550.466	1	11
551.656	1	15
552.846	1	-2
554.036	1	17
555.226	1	0
556.416	1	9
557.606	1	6
558.796	1	13
559.986	1	19
561.175	1	3
562.365	1	2
563.555	1	4
564.744	1	13
565.934	1	16
567.123	1	6
568.313	1	4
569.502	1	10
570.692	1	12
571.881	1	5
573.070	1	2
574.260	1	10
575.449	1	10
576.638	1	10
577.827	1	-6
579.016	1	8
580.205	1	5
581.394	1	3
582.583	1	5
583.772	1	10
584.961	1	3
586.150	1	5
587.339	1	-2
588.528	1	7
589.717	1	14
590.905	1	5
592.094	1	10
593.283	1	10
594.471	1	6
595.660	1	2
596.848	1	2
598.037	1	3
599.225	1	-4
600.413	1	-1
601.602	1	-3
602.790	1	10
603.978	1	-1
605.166	1	5
606.355	1	6
607.543	1	13
608.731	1	6
609.919	1	6
611.107	1	7
612.295	1	-1
613.483	1	1
614.671	1	15
615.858	1	8
617.046	1	-4
618.234	1	1
619.422	1	-3
620.609	1	4
621.797	1	4
622.985	1	13
624.172	1	-4
625.360	1	6
626.547	1	0
627.735	1	-9
628.922	1	-3
630.109	1	-3
631.297	1	-4
632.484	1	2
633.671	1	10
634.858	1	4
636.045	1	11
637.232	1	3
638.419	1	2
639.606	1	5
640.793	1	-8
641.980	1	-3
643.167	1	0
644.354	1	7
645.541	1	4
646.728	1	8
647.914	1	11
649.101	1	-2
650.288	1	0
651.474	1	7
652.661	1	3
653.847	1	16
655.034	1	0
656.220	1	5
657.406	1	7
658.593	1	5
659.779	1	2
660.965	1	12
662.152	1	-5
663.338	1	8
664.524	1	4
665.710	1	2
666.896	1	4
668.082	1	12
669.268	1	-1
670.454	1	-7
671.640	1	14
672.826	1	9
674.011	1	11
675.197	1	8
676.383	1	4
677.569	1	0
678.754	1	9
679.940	1	17
681.125	1	14
682.311	1	-2
683.496	1	11
684.682	1	7
685.867	1	10
687.053	1	-5
688.238	1	4
688.746	1	-6

File: GaN_sample D_spot 18_UVVIS_170 K_200um_550 ms 2x2mm1_110.txt
340.368	1	0
341.565	1	7
342.763	1	-1
343.960	1	2
345.157	1	-3
346.354	1	-1
347.552	1	16
348.749	1	5
349.946	1	8
351.143	1	-6
352.340	1	-1
353.537	1	12
354.734	1	9
355.931	1	10
357.127	1	11
358.324	1	18
359.521	1	19
360.718	1	20
361.914	1	23
363.111	1	29
364.308	1	39
365.504	1	51
366.701	1	46
367.897	1	69
369.093	1	49
370.290	1	59
371.486	1	62
372.682	1	51
373.879	1	47
375.075	1	37
376.271	1	39
377.467	1	31
378.663	1	23
379.859	1	22
381.055	1	23
382.251	1	11
383.447	1	17
384.643	1	15
385.839	1	2
387.035	1	7
388.230	1	6
389.426	1	16
390.622	1	1
391.817	1	3
393.013	1	5
394.208	1	8
395.404	1	5
396.599	1	-6
397.795	1	3
398.990	1	-6
400.186	1	6
401.381	1	6
402.576	1	8
403.771	1	9
404.967	1	6
406.162	1	10
407.357	1	4
408.552	1	2
409.747	1	2
410.942	1	-3
412.137	1	-1
413.332	1	5
414.526	1	3
415.721	1	-2
416.916	1	-5
418.111	1	-2
419.305	1	3
420.500	1	3
421.695	1	4
422.889	1	1
424.084	1	20
425.278	1	-1
426.472	1	5
427.667	1	2
428.861	1	-4
430.055	1	5
431.250	1	13
432.444	1	4
433.638	1	17
434.832	1	13
436.026	1	3
437.220	1	4
438.414	1	6
439.608	1	-3
440.802	1	7
441.996	1	-1
443.190	1	0
444.384	1	5
445.578	1	12
446.771	1	-13
447.965	1	-6
449.159	1	2
450.352	1	-4
451.546	1	-1
452.739	1	1
453.933	1	6
455.126	1	7
456.320	1	11
457.513	1	11
458.706	1	4
459.899	1	7
461.093	1	7
462.286	1	-6
463.479	1	1
464.672	1	-9
465.865	1	5
467.058	1	3
468.251	1	8
469.444	1	0
470.637	1	1
471.830	1	-5
473.023	1	14
474.215	1	13
475.408	1	4
476.601	1	2
477.793	1	3
478.986	1	7
480.179	1	6
481.371	1	3
482.564	1	9
483.756	1	-3
484.948	1	6
486.141	1	12
487.333	1	-2
488.525	1	6
489.718	1	8
490.910	1	2
492.102	1	9
493.294	1	-1
494.486	1	10
495.678	1	9
496.870	1	5
498.062	1	-1
499.254	1	2
500.446	1	8
501.638	1	0
502.829	1	14
504.021	1	14
505.213	1	3
506.404	1	3
507.596	1	9
508.788	1	-3
509.979	1	7
511.171	1	21
512.362	1	4
513.553	1	12
514.745	1	9
515.936	1	10
517.127	1	14
518.319	1	11
519.510	1	17
520.701	1	18
521.892	1	11
523.083	1	13
524.274	1	6
525.465	1	13
526.656	1	15
527.847	1	1
529.038	1	8
530.229	1	22
531.419	1	21
532.610	1	13
533.801	1	16
534.991	1	10
536.182	1	5
537.373	1	9
538.563	1	7
539.754	1	17
540.944	1	12
542.134	1	13
543.325	1	13
544.515	1	12
545.705	1	15
546.896	1	9
548.086	1	17
549.276	1	7
550.466	1	7
551.656	1	10
552.846	1	-5
554.036	1	13
555.226	1	-2
556.416	1	8
557.606	1	10
558.796	1	16
559.986	1	16
561.175	1	-6
562.365	1	4
563.555	1	14
564.744	1	8
565.934	1	9
567.123	1	8
568.313	1	4
569.502	1	-2
570.692	1	12
571.881	1	0
573.070	1	11
574.260	1	7
575.449	1	5
576.638	1	5
577.827	1	-2
579.016	1	15
580.205	1	6
581.394	1	2
582.583	1	3
583.772	1	7
584.961	1	3
586.150	1	3
587.339	1	4
588.528	1	-6
589.717	1	4
590.905	1	7
592.094	1	14
593.283	1	3
594.471	1	8
595.660	1	2
596.848	1	1
598.037	1	14
599.225	1	10
600.413	1	-1
601.602	1	8
602.790	1	4
603.978	1	12
605.166	1	-4
606.355	1	7
607.543	1	12
608.731	1	6
609.919	1	9
611.107	1	-1
612.295	1	5
613.483	1	-3
614.671	1	15
615.858	1	2
617.046	1	-5
618.234	1	-2
619.422	1	0
620.609	1	1
621.797	1	5
622.985	1	5
624.172	1	-2
625.360	1	-2
626.547	1	-1
627.735	1	-10
628.922	1	1
630.109	1	5
631.297	1	2
632.484	1	-6
633.671	1	5
634.858	1	4
636.045	1	10
637.232	1	1
638.419	1	-2
639.606	1	-5
640.793	1	-1
641.980	1	13
643.167	1	-2
644.354	1	8
645.541	1	6
646.728	1	6
647.914	1	6
649.101	1	9
650.288	1	-3
651.474	1	3
652.661	1	12
653.847	1	2
655.034	1	-1
656.220	1	7
657.406	1	4
658.593	1	7
659.779	1	4
660.965	1	16
662.152	1	13
663.338	1	9
664.524	1	-3
665.710	1	3
666.896	1	4
668.082	1	10
669.268	1	2
670.454	1	-1
671.640	1	3
672.826	1	7
674.011	1	7
675.197	1	6
676.383	1	15
677.569	1	-8
678.754	1	6
679.940	1	7
681.125	1	3
682.311	1	-1
683.496	1	8
684.682	1	3
685.867	1	2
687.053	1	-7
688.238	1	-1
688.746	1	-4

File: GaN_sample D_spot 18_UVVIS_170 K_200um_550 ms 2x2mm1_112.txt
340.368	1	2
341.565	1	2
342.763	1	3
343.960	1	4
345.157	1	-6
346.354	1	-10
347.552	1	10
348.749	1	10
349.946	1	9
351.143	1	6
352.340	1	4
353.537	1	7
354.734	1	5
355.931	1	16
357.127	1	4
358.324	1	14
359.521	1	12
360.718	1	20
361.914	1	32
363.111	1	37
364.308	1	41
365.504	1	53
366.701	1	53
367.897	1	68
369.093	1	58
370.290	1	61
371.486	1	46
372.682	1	61
373.879	1	37
375.075	1	45
376.271	1	33
377.467	1	27
378.663	1	25
379.859	1	25
381.055	1	13
382.251	1	18
383.447	1	20
384.643	1	10
385.839	1	4
387.035	1	12
388.230	1	7
389.426	1	5
390.622	1	2
391.817	1	10
393.013	1	8
394.208	1	20
395.404	1	11
396.599	1	7
397.795	1	2
398.990	1	2
400.186	1	2
401.381	1	9
402.576	1	2
403.771	1	3
404.967	1	1
406.162	1	9
407.357	1	-4
408.552	1	0
409.747	1	9
410.942	1	3
412.137	1	-6
413.332	1	0
414.526	1	5
415.721	1	4
416.916	1	-11
418.111	1	7
419.305	1	3
420.500	1	3
421.695	1	-3
422.889	1	6
424.084	1	14
425.278	1	8
426.472	1	9
427.667	1	2
428.861	1	12
430.055	1	0
431.250	1	13
432.444	1	10
433.638	1	10
434.832	1	6
436.026	1	-4
437.220	1	1
438.414	1	-4
439.608	1	6
440.802	1	4
441.996	1	7
443.190	1	7
444.384	1	-1
445.578	1	2
446.771	1	-8
447.965	1	3
449.159	1	6
450.352	1	-4
451.546	1	-4
452.739	1	9
453.933	1	-1
455.126	1	7
456.320	1	3
457.513	1	8
458.706	1	7
459.899	1	8
461.093	1	6
462.286	1	-5
463.479	1	5
464.672	1	-2
465.865	1	-3
467.058	1	11
468.251	1	2
469.444	1	2
470.637	1	1
471.830	1	3
473.023	1	5
474.215	1	3
475.408	1	1
476.601	1	10
477.793	1	6
478.986	1	3
480.179	1	11
481.371	1	-2
482.564	1	2
483.756	1	6
484.948	1	9
486.141	1	14
487.333	1	-11
488.525	1	14
489.718	1	13
490.910	1	4
492.102	1	-3
493.294	1	3
494.486	1	16
495.678	1	8
496.870	1	11
498.062	1	8
499.254	1	7
500.446	1	7
501.638	1	-6
502.829	1	7
504.021	1	12
505.213	1	4
506.404	1	10
507.596	1	4
508.788	1	6
509.979	1	17
511.171	1	13
512.362	1	8
513.553	1	9
514.745	1	7
515.936	1	3
517.127	1	10
518.319	1	14
519.510	1	16
520.701	1	18
521.892	1	16
523.083	1	9
524.274	1	12
525.465	1	12
526.656	1	16
527.847	1	8
529.038	1	9
530.229	1	21
531.419	1	14
532.610	1	17
533.801	1	22
534.991	1	13
536.182	1	5
537.373	1	10
538.563	1	9
539.754	1	5
540.944	1	3
542.134	1	5
543.325	1	5
544.515	1	10
545.705	1	11
546.896	1	8
548.086	1	9
549.276	1	10
550.466	1	11
551.656	1	14
552.846	1	13
554.036	1	5
555.226	1	4
556.416	1	2
557.606	1	11
558.796	1	3
559.986	1	16
561.175	1	1
562.365	1	2
563.555	1	-2
564.744	1	14
565.934	1	10
567.123	1	10
568.313	1	10
569.502	1	1
570.692	1	17
571.881	1	6
573.070	1	-3
574.260	1	16
575.449	1	19
576.638	1	15
577.827	1	3
579.016	1	3
580.205	1	-4
581.394	1	8
582.583	1	-1
583.772	1	-3
584.961	1	7
586.150	1	-7
587.339	1	7
588.528	1	7
589.717	1	6
590.905	1	12
592.094	1	5
593.283	1	7
594.471	1	13
595.660	1	0
596.848	1	10
598.037	1	6
599.225	1	11
600.413	1	-7
601.602	1	14
602.790	1	6
603.978	1	2
605.166	1	10
606.355	1	12
607.543	1	14
608.731	1	9
609.919	1	-5
611.107	1	-5
612.295	1	4
613.483	1	-4
614.671	1	11
615.858	1	1
617.046	1	-3
618.234	1	0
619.422	1	-1
620.609	1	8
621.797	1	3
622.985	1	5
624.172	1	4
625.360	1	7
626.547	1	-5
627.735	1	-11
628.922	1	-11
630.109	1	-3
631.297	1	-2
632.484	1	1
633.671	1	5
634.858	1	-3
636.045	1	13
637.232	1	8
638.419	1	-8
639.606	1	-2
640.793	1	5
641.980	1	-3
643.167	1	4
644.354	1	3
645.541	1	8
646.728	1	10
647.914	1	9
649.101	1	2
650.288	1	1
651.474	1	9
652.661	1	-1
653.847	1	0
655.034	1	-5
656.220	1	7
657.406	1	4
658.593	1	1
659.779	1	3
660.965	1	10
662.152	1	-5
663.338	1	7
664.524	1	6
665.710	1	9
666.896	1	0
668.082	1	3
669.268	1	-3
670.454	1	-10
671.640	1	8
672.826	1	2
674.011	1	2
675.197	1	11
676.383	1	4
677.569	1	-5
678.754	1	5
679.940	1	9
681.125	1	10
682.311	1	2
683.496	1	0
684.682	1	8
685.867	1	6
687.053	1	2
688.238	1	-3
688.746	1	-3

File: GaN_sample D_spot 18_UVVIS_170 K_200um_550 ms 2x2mm1_113.txt
340.368	1	-1
341.565	1	6
342.763	1	8
343.960	1	7
345.157	1	3
346.354	1	0
347.552	1	9
348.749	1	12
349.946	1	8
351.143	1	-2
352.340	1	4
353.537	1	16
354.734	1	7
355.931	1	4
357.127	1	11
358.324	1	9
359.521	1	18
360.718	1	7
361.914	1	21
363.111	1	34
364.308	1	43
365.504	1	42
366.701	1	60
367.897	1	65
369.093	1	66
370.290	1	68
371.486	1	52
372.682	1	51
373.879	1	50
375.075	1	47
376.271	1	37
377.467	1	36
378.663	1	24
379.859	1	33
381.055	1	13
382.251	1	12
383.447	1	23
384.643	1	17
385.839	1	5
387.035	1	6
388.230	1	10
389.426	1	13
390.622	1	1
391.817	1	7
393.013	1	6
394.208	1	7
395.404	1	10
396.599	1	-8
397.795	1	1
398.990	1	-5
400.186	1	-8
401.381	1	12
402.576	1	-2
403.771	1	12
404.967	1	9
406.162	1	9
407.357	1	3
408.552	1	-2
409.747	1	2
410.942	1	6
412.137	1	0
413.332	1	-3
414.526	1	3
415.721	1	-3
416.916	1	-7
418.111	1	12
419.305	1	3
420.500	1	1
421.695	1	-6
422.889	1	-3
424.084	1	10
425.278	1	3
426.472	1	12
427.667	1	10
428.861	1	4
430.055	1	2
431.250	1	10
432.444	1	3
433.638	1	12
434.832	1	3
436.026	1	4
437.220	1	10
438.414	1	0
439.608	1	-5
440.802	1	17
441.996	1	-3
443.190	1	4
444.384	1	7
445.578	1	15
446.771	1	0
447.965	1	12
449.159	1	3
450.352	1	-5
451.546	1	-10
452.739	1	6
453.933	1	-1
455.126	1	12
456.320	1	0
457.513	1	6
458.706	1	8
459.899	1	8
461.093	1	7
462.286	1	-1
463.479	1	-4
464.672	1	0
465.865	1	8
467.058	1	6
468.251	1	-2
469.444	1	1
470.637	1	1
471.830	1	2
473.023	1	3
474.215	1	5
475.408	1	1
476.601	1	7
477.793	1	5
478.986	1	-4
480.179	1	-3
481.371	1	3
482.564	1	3
483.756	1	9
484.948	1	-4
486.141	1	17
487.333	1	-3
488.525	1	12
489.718	1	13
490.910	1	9
492.102	1	7
493.294	1	3
494.486	1	14
495.678	1	2
496.870	1	0
498.062	1	12
499.254	1	15
500.446	1	2
501.638	1	2
502.829	1	14
504.021	1	15
505.213	1	0
506.404	1	9
507.596	1	11
508.788	1	7
509.979	1	17
511.171	1	9
512.362	1	-2
513.553	1	11
514.745	1	3
515.936	1	10
517.127	1	14
518.319	1	15
519.510	1	8
520.701	1	12
521.892	1	10
523.083	1	10
524.274	1	17
525.465	1	10
526.656	1	21
527.847	1	9
529.038	1	0
530.229	1	22
531.419	1	13
532.610	1	16
533.801	1	12
534.991	1	10
536.182	1	11
537.373	1	3
538.563	1	12
539.754	1	8
540.944	1	2
542.134	1	5
543.325	1	3
544.515	1	5
545.705	1	16
546.896	1	9
548.086	1	7
549.276	1	13
550.466	1	8
551.656	1	9
552.846	1	9
554.036	1	6
555.226	1	3
556.416	1	1
557.606	1	9
558.796	1	10
559.986	1	17
561.175	1	2
562.365	1	12
563.555	1	5
564.744	1	5
565.934	1	10
567.123	1	8
568.313	1	8
569.502	1	11
570.692	1	18
571.881	1	-1
573.070	1	9
574.260	1	8
575.449	1	11
576.638	1	7
577.827	1	1
579.016	1	11
580.205	1	0
581.394	1	7
582.583	1	7
583.772	1	2
584.961	1	1
586.150	1	6
587.339	1	7
588.528	1	1
589.717	1	10
590.905	1	13
592.094	1	11
593.283	1	10
594.471	1	4
595.660	1	4
596.848	1	6
598.037	1	5
599.225	1	4
600.413	1	-1
601.602	1	3
602.790	1	15
603.978	1	3
605.166	1	8
606.355	1	13
607.543	1	8
608.731	1	8
609.919	1	-3
611.107	1	5
612.295	1	-4
613.483	1	1
614.671	1	11
615.858	1	-3
617.046	1	-3
618.234	1	0
619.422	1	-3
620.609	1	10
621.797	1	3
622.985	1	9
624.172	1	1
625.360	1	0
626.547	1	-10
627.735	1	-7
628.922	1	-3
630.109	1	4
631.297	1	-1
632.484	1	0
633.671	1	12
634.858	1	2
636.045	1	7
637.232	1	-6
638.419	1	-14
639.606	1	-2
640.793	1	4
641.980	1	-4
643.167	1	-1
644.354	1	-1
645.541	1	3
646.728	1	6
647.914	1	5
649.101	1	6
650.288	1	-3
651.474	1	8
652.661	1	5
653.847	1	9
655.034	1	5
656.220	1	3
657.406	1	0
658.593	1	6
659.779	1	3
660.965	1	9
662.152	1	-1
663.338	1	12
664.524	1	2
665.710	1	0
666.896	1	2
668.082	1	9
669.268	1	-5
670.454	1	-5
671.640	1	4
672.826	1	-3
674.011	1	13
675.197	1	4
676.383	1	-3
677.569	1	-2
678.754	1	9
679.940	1	9
681.125	1	13
682.311	1	12
683.496	1	-1
684.682	1	8
685.867	1	5
687.053	1	-2
688.238	1	0
688.746	1	-3