Folder: cryo-il_analysis/Data/GaN_150K_450ms (part 14)

File: GaN_sample D_spot15_UVVIS_150 K_200um_450 ms 2x2mm1_117.txt
340.368	1	7
341.565	1	5
342.763	1	3
343.960	1	5
345.157	1	12
346.354	1	8
347.552	1	19
348.749	1	17
349.946	1	1
351.143	1	11
352.340	1	15
353.537	1	6
354.734	1	-1
355.931	1	15
357.127	1	12
358.324	1	12
359.521	1	18
360.718	1	14
361.914	1	23
363.111	1	34
364.308	1	44
365.504	1	43
366.701	1	54
367.897	1	58
369.093	1	69
370.290	1	57
371.486	1	59
372.682	1	45
373.879	1	39
375.075	1	29
376.271	1	27
377.467	1	37
378.663	1	26
379.859	1	20
381.055	1	23
382.251	1	6
383.447	1	14
384.643	1	5
385.839	1	14
387.035	1	17
388.230	1	16
389.426	1	0
390.622	1	11
391.817	1	0
393.013	1	16
394.208	1	2
395.404	1	17
396.599	1	13
397.795	1	14
398.990	1	26
400.186	1	10
401.381	1	3
402.576	1	13
403.771	1	6
404.967	1	18
406.162	1	6
407.357	1	11
408.552	1	9
409.747	1	5
410.942	1	14
412.137	1	13
413.332	1	9
414.526	1	9
415.721	1	11
416.916	1	-3
418.111	1	17
419.305	1	16
420.500	1	20
421.695	1	10
422.889	1	6
424.084	1	5
425.278	1	16
426.472	1	19
427.667	1	9
428.861	1	22
430.055	1	15
431.250	1	17
432.444	1	10
433.638	1	11
434.832	1	8
436.026	1	4
437.220	1	5
438.414	1	12
439.608	1	8
440.802	1	15
441.996	1	10
443.190	1	10
444.384	1	22
445.578	1	0
446.771	1	15
447.965	1	6
449.159	1	9
450.352	1	7
451.546	1	5
452.739	1	14
453.933	1	3
455.126	1	14
456.320	1	13
457.513	1	3
458.706	1	19
459.899	1	8
461.093	1	9
462.286	1	1
463.479	1	-1
464.672	1	3
465.865	1	10
467.058	1	7
468.251	1	-1
469.444	1	4
470.637	1	6
471.830	1	8
473.023	1	20
474.215	1	4
475.408	1	6
476.601	1	3
477.793	1	6
478.986	1	1
480.179	1	11
481.371	1	1
482.564	1	16
483.756	1	6
484.948	1	15
486.141	1	8
487.333	1	-7
488.525	1	1
489.718	1	-6
490.910	1	19
492.102	1	6
493.294	1	-1
494.486	1	13
495.678	1	9
496.870	1	5
498.062	1	9
499.254	1	7
500.446	1	3
501.638	1	14
502.829	1	8
504.021	1	10
505.213	1	4
506.404	1	19
507.596	1	16
508.788	1	20
509.979	1	4
511.171	1	28
512.362	1	12
513.553	1	19
514.745	1	11
515.936	1	17
517.127	1	25
518.319	1	21
519.510	1	13
520.701	1	24
521.892	1	21
523.083	1	13
524.274	1	12
525.465	1	31
526.656	1	10
527.847	1	19
529.038	1	13
530.229	1	18
531.419	1	22
532.610	1	17
533.801	1	14
534.991	1	17
536.182	1	5
537.373	1	16
538.563	1	22
539.754	1	20
540.944	1	15
542.134	1	16
543.325	1	24
544.515	1	14
545.705	1	18
546.896	1	22
548.086	1	20
549.276	1	19
550.466	1	14
551.656	1	17
552.846	1	17
554.036	1	20
555.226	1	9
556.416	1	25
557.606	1	9
558.796	1	19
559.986	1	9
561.175	1	15
562.365	1	8
563.555	1	16
564.744	1	18
565.934	1	24
567.123	1	11
568.313	1	13
569.502	1	10
570.692	1	12
571.881	1	6
573.070	1	5
574.260	1	15
575.449	1	1
576.638	1	13
577.827	1	7
579.016	1	11
580.205	1	10
581.394	1	7
582.583	1	13
583.772	1	10
584.961	1	9
586.150	1	16
587.339	1	11
588.528	1	-3
589.717	1	12
590.905	1	6
592.094	1	6
593.283	1	14
594.471	1	-5
595.660	1	12
596.848	1	7
598.037	1	11
599.225	1	13
600.413	1	8
601.602	1	3
602.790	1	15
603.978	1	13
605.166	1	6
606.355	1	1
607.543	1	4
608.731	1	-5
609.919	1	-3
611.107	1	8
612.295	1	12
613.483	1	-2
614.671	1	15
615.858	1	1
617.046	1	-4
618.234	1	-4
619.422	1	21
620.609	1	2
621.797	1	8
622.985	1	5
624.172	1	13
625.360	1	-1
626.547	1	4
627.735	1	8
628.922	1	-5
630.109	1	1
631.297	1	16
632.484	1	12
633.671	1	16
634.858	1	19
636.045	1	3
637.232	1	2
638.419	1	1
639.606	1	16
640.793	1	10
641.980	1	3
643.167	1	10
644.354	1	13
645.541	1	2
646.728	1	17
647.914	1	2
649.101	1	3
650.288	1	0
651.474	1	10
652.661	1	7
653.847	1	2
655.034	1	1
656.220	1	2
657.406	1	1
658.593	1	10
659.779	1	9
660.965	1	0
662.152	1	6
663.338	1	3
664.524	1	8
665.710	1	3
666.896	1	1
668.082	1	5
669.268	1	0
670.454	1	12
671.640	1	14
672.826	1	2
674.011	1	4
675.197	1	6
676.383	1	3
677.569	1	9
678.754	1	4
679.940	1	4
681.125	1	3
682.311	1	9
683.496	1	-1
684.682	1	11
685.867	1	0
687.053	1	22
688.238	1	12
688.746	1	-1

File: GaN_sample D_spot15_UVVIS_150 K_200um_450 ms 2x2mm1_118.txt
340.368	1	8
341.565	1	13
342.763	1	4
343.960	1	7
345.157	1	10
346.354	1	2
347.552	1	11
348.749	1	16
349.946	1	-2
351.143	1	-1
352.340	1	11
353.537	1	5
354.734	1	10
355.931	1	11
357.127	1	13
358.324	1	17
359.521	1	16
360.718	1	10
361.914	1	28
363.111	1	22
364.308	1	47
365.504	1	53
366.701	1	59
367.897	1	63
369.093	1	71
370.290	1	61
371.486	1	60
372.682	1	47
373.879	1	34
375.075	1	22
376.271	1	18
377.467	1	34
378.663	1	27
379.859	1	21
381.055	1	5
382.251	1	8
383.447	1	14
384.643	1	11
385.839	1	7
387.035	1	18
388.230	1	7
389.426	1	3
390.622	1	11
391.817	1	5
393.013	1	15
394.208	1	5
395.404	1	8
396.599	1	19
397.795	1	10
398.990	1	21
400.186	1	9
401.381	1	5
402.576	1	15
403.771	1	6
404.967	1	9
406.162	1	3
407.357	1	12
408.552	1	8
409.747	1	5
410.942	1	24
412.137	1	7
413.332	1	5
414.526	1	20
415.721	1	14
416.916	1	8
418.111	1	17
419.305	1	14
420.500	1	12
421.695	1	15
422.889	1	17
424.084	1	13
425.278	1	11
426.472	1	27
427.667	1	10
428.861	1	24
430.055	1	24
431.250	1	20
432.444	1	12
433.638	1	18
434.832	1	1
436.026	1	8
437.220	1	12
438.414	1	4
439.608	1	5
440.802	1	17
441.996	1	16
443.190	1	13
444.384	1	10
445.578	1	8
446.771	1	20
447.965	1	10
449.159	1	1
450.352	1	-5
451.546	1	15
452.739	1	6
453.933	1	2
455.126	1	8
456.320	1	11
457.513	1	10
458.706	1	19
459.899	1	2
461.093	1	16
462.286	1	8
463.479	1	0
464.672	1	18
465.865	1	2
467.058	1	8
468.251	1	7
469.444	1	3
470.637	1	10
471.830	1	9
473.023	1	12
474.215	1	8
475.408	1	8
476.601	1	6
477.793	1	6
478.986	1	15
480.179	1	21
481.371	1	-5
482.564	1	12
483.756	1	9
484.948	1	12
486.141	1	10
487.333	1	8
488.525	1	6
489.718	1	-1
490.910	1	19
492.102	1	10
493.294	1	-2
494.486	1	14
495.678	1	13
496.870	1	9
498.062	1	4
499.254	1	8
500.446	1	5
501.638	1	14
502.829	1	8
504.021	1	16
505.213	1	11
506.404	1	16
507.596	1	22
508.788	1	13
509.979	1	14
511.171	1	14
512.362	1	9
513.553	1	13
514.745	1	13
515.936	1	17
517.127	1	25
518.319	1	18
519.510	1	8
520.701	1	18
521.892	1	18
523.083	1	12
524.274	1	21
525.465	1	18
526.656	1	26
527.847	1	12
529.038	1	25
530.229	1	26
531.419	1	17
532.610	1	19
533.801	1	20
534.991	1	12
536.182	1	18
537.373	1	13
538.563	1	3
539.754	1	23
540.944	1	16
542.134	1	18
543.325	1	13
544.515	1	11
545.705	1	11
546.896	1	15
548.086	1	17
549.276	1	25
550.466	1	13
551.656	1	13
552.846	1	10
554.036	1	17
555.226	1	15
556.416	1	20
557.606	1	0
558.796	1	15
559.986	1	21
561.175	1	5
562.365	1	1
563.555	1	14
564.744	1	21
565.934	1	22
567.123	1	10
568.313	1	14
569.502	1	18
570.692	1	15
571.881	1	5
573.070	1	14
574.260	1	9
575.449	1	8
576.638	1	7
577.827	1	4
579.016	1	10
580.205	1	8
581.394	1	8
582.583	1	8
583.772	1	15
584.961	1	7
586.150	1	10
587.339	1	16
588.528	1	4
589.717	1	7
590.905	1	5
592.094	1	7
593.283	1	4
594.471	1	-2
595.660	1	14
596.848	1	12
598.037	1	3
599.225	1	0
600.413	1	14
601.602	1	6
602.790	1	5
603.978	1	8
605.166	1	1
606.355	1	-12
607.543	1	12
608.731	1	4
609.919	1	-8
611.107	1	10
612.295	1	11
613.483	1	10
614.671	1	7
615.858	1	-1
617.046	1	-3
618.234	1	6
619.422	1	13
620.609	1	5
621.797	1	0
622.985	1	8
624.172	1	1
625.360	1	10
626.547	1	4
627.735	1	9
628.922	1	14
630.109	1	-3
631.297	1	7
632.484	1	10
633.671	1	11
634.858	1	5
636.045	1	-3
637.232	1	10
638.419	1	5
639.606	1	11
640.793	1	-6
641.980	1	15
643.167	1	0
644.354	1	18
645.541	1	10
646.728	1	12
647.914	1	3
649.101	1	0
650.288	1	9
651.474	1	14
652.661	1	6
653.847	1	13
655.034	1	-1
656.220	1	0
657.406	1	-1
658.593	1	11
659.779	1	5
660.965	1	2
662.152	1	19
663.338	1	0
664.524	1	11
665.710	1	-3
666.896	1	7
668.082	1	3
669.268	1	3
670.454	1	10
671.640	1	11
672.826	1	-2
674.011	1	16
675.197	1	6
676.383	1	4
677.569	1	14
678.754	1	-1
679.940	1	0
681.125	1	4
682.311	1	7
683.496	1	-5
684.682	1	14
685.867	1	-2
687.053	1	20
688.238	1	5
688.746	1	1

File: GaN_sample D_spot15_UVVIS_150 K_200um_450 ms 2x2mm1_119.txt
340.368	1	7
341.565	1	3
342.763	1	3
343.960	1	14
345.157	1	3
346.354	1	1
347.552	1	18
348.749	1	12
349.946	1	3
351.143	1	1
352.340	1	11
353.537	1	5
354.734	1	2
355.931	1	6
357.127	1	20
358.324	1	8
359.521	1	16
360.718	1	23
361.914	1	21
363.111	1	11
364.308	1	41
365.504	1	43
366.701	1	61
367.897	1	61
369.093	1	54
370.290	1	56
371.486	1	49
372.682	1	44
373.879	1	23
375.075	1	20
376.271	1	35
377.467	1	23
378.663	1	28
379.859	1	13
381.055	1	4
382.251	1	5
383.447	1	25
384.643	1	11
385.839	1	16
387.035	1	11
388.230	1	11
389.426	1	7
390.622	1	5
391.817	1	-4
393.013	1	9
394.208	1	15
395.404	1	18
396.599	1	5
397.795	1	7
398.990	1	23
400.186	1	13
401.381	1	11
402.576	1	4
403.771	1	-5
404.967	1	16
406.162	1	2
407.357	1	18
408.552	1	1
409.747	1	2
410.942	1	19
412.137	1	5
413.332	1	18
414.526	1	10
415.721	1	12
416.916	1	11
418.111	1	17
419.305	1	17
420.500	1	19
421.695	1	25
422.889	1	10
424.084	1	14
425.278	1	16
426.472	1	20
427.667	1	11
428.861	1	17
430.055	1	25
431.250	1	18
432.444	1	9
433.638	1	9
434.832	1	12
436.026	1	8
437.220	1	15
438.414	1	18
439.608	1	4
440.802	1	12
441.996	1	5
443.190	1	9
444.384	1	8
445.578	1	1
446.771	1	4
447.965	1	16
449.159	1	2
450.352	1	-6
451.546	1	9
452.739	1	6
453.933	1	-1
455.126	1	4
456.320	1	13
457.513	1	12
458.706	1	19
459.899	1	4
461.093	1	9
462.286	1	3
463.479	1	8
464.672	1	6
465.865	1	9
467.058	1	8
468.251	1	2
469.444	1	7
470.637	1	0
471.830	1	9
473.023	1	6
474.215	1	2
475.408	1	7
476.601	1	6
477.793	1	-4
478.986	1	21
480.179	1	5
481.371	1	-4
482.564	1	11
483.756	1	14
484.948	1	10
486.141	1	15
487.333	1	-2
488.525	1	1
489.718	1	4
490.910	1	10
492.102	1	14
493.294	1	-2
494.486	1	3
495.678	1	0
496.870	1	1
498.062	1	11
499.254	1	4
500.446	1	4
501.638	1	12
502.829	1	2
504.021	1	10
505.213	1	8
506.404	1	18
507.596	1	15
508.788	1	15
509.979	1	14
511.171	1	20
512.362	1	15
513.553	1	16
514.745	1	9
515.936	1	10
517.127	1	22
518.319	1	16
519.510	1	3
520.701	1	20
521.892	1	24
523.083	1	9
524.274	1	10
525.465	1	26
526.656	1	15
527.847	1	6
529.038	1	14
530.229	1	23
531.419	1	6
532.610	1	23
533.801	1	20
534.991	1	3
536.182	1	12
537.373	1	5
538.563	1	15
539.754	1	26
540.944	1	12
542.134	1	16
543.325	1	20
544.515	1	12
545.705	1	15
546.896	1	15
548.086	1	15
549.276	1	12
550.466	1	9
551.656	1	17
552.846	1	24
554.036	1	19
555.226	1	14
556.416	1	24
557.606	1	6
558.796	1	28
559.986	1	8
561.175	1	8
562.365	1	11
563.555	1	14
564.744	1	18
565.934	1	12
567.123	1	9
568.313	1	15
569.502	1	12
570.692	1	17
571.881	1	5
573.070	1	8
574.260	1	11
575.449	1	6
576.638	1	18
577.827	1	5
579.016	1	13
580.205	1	11
581.394	1	8
582.583	1	8
583.772	1	14
584.961	1	7
586.150	1	8
587.339	1	4
588.528	1	2
589.717	1	10
590.905	1	2
592.094	1	19
593.283	1	-1
594.471	1	-5
595.660	1	15
596.848	1	13
598.037	1	4
599.225	1	3
600.413	1	15
601.602	1	4
602.790	1	17
603.978	1	7
605.166	1	9
606.355	1	-11
607.543	1	13
608.731	1	-2
609.919	1	-3
611.107	1	8
612.295	1	5
613.483	1	-1
614.671	1	1
615.858	1	-5
617.046	1	3
618.234	1	3
619.422	1	16
620.609	1	6
621.797	1	11
622.985	1	1
624.172	1	10
625.360	1	-4
626.547	1	-3
627.735	1	9
628.922	1	6
630.109	1	2
631.297	1	5
632.484	1	17
633.671	1	13
634.858	1	8
636.045	1	0
637.232	1	12
638.419	1	-2
639.606	1	5
640.793	1	8
641.980	1	13
643.167	1	7
644.354	1	5
645.541	1	5
646.728	1	5
647.914	1	9
649.101	1	10
650.288	1	9
651.474	1	16
652.661	1	10
653.847	1	12
655.034	1	-1
656.220	1	10
657.406	1	-6
658.593	1	6
659.779	1	14
660.965	1	6
662.152	1	0
663.338	1	3
664.524	1	7
665.710	1	13
666.896	1	6
668.082	1	7
669.268	1	12
670.454	1	11
671.640	1	12
672.826	1	3
674.011	1	5
675.197	1	3
676.383	1	-5
677.569	1	19
678.754	1	12
679.940	1	1
681.125	1	11
682.311	1	5
683.496	1	-2
684.682	1	13
685.867	1	4
687.053	1	20
688.238	1	10
688.746	1	0

File: GaN_sample D_spot15_UVVIS_150 K_200um_450 ms 2x2mm1_120.txt
340.368	1	12
341.565	1	12
342.763	1	8
343.960	1	1
345.157	1	16
346.354	1	3
347.552	1	25
348.749	1	12
349.946	1	-3
351.143	1	3
352.340	1	17
353.537	1	4
354.734	1	16
355.931	1	13
357.127	1	9
358.324	1	5
359.521	1	22
360.718	1	17
361.914	1	26
363.111	1	27
364.308	1	34
365.504	1	39
366.701	1	58
367.897	1	66
369.093	1	62
370.290	1	66
371.486	1	49
372.682	1	51
373.879	1	47
375.075	1	33
376.271	1	24
377.467	1	27
378.663	1	16
379.859	1	17
381.055	1	13
382.251	1	14
383.447	1	17
384.643	1	8
385.839	1	8
387.035	1	15
388.230	1	5
389.426	1	6
390.622	1	1
391.817	1	0
393.013	1	4
394.208	1	19
395.404	1	9
396.599	1	16
397.795	1	7
398.990	1	15
400.186	1	13
401.381	1	3
402.576	1	4
403.771	1	-1
404.967	1	9
406.162	1	-2
407.357	1	9
408.552	1	6
409.747	1	14
410.942	1	23
412.137	1	7
413.332	1	11
414.526	1	7
415.721	1	13
416.916	1	14
418.111	1	13
419.305	1	5
420.500	1	14
421.695	1	19
422.889	1	15
424.084	1	19
425.278	1	17
426.472	1	16
427.667	1	6
428.861	1	19
430.055	1	18
431.250	1	20
432.444	1	9
433.638	1	18
434.832	1	8
436.026	1	8
437.220	1	17
438.414	1	18
439.608	1	7
440.802	1	10
441.996	1	12
443.190	1	7
444.384	1	13
445.578	1	4
446.771	1	8
447.965	1	15
449.159	1	3
450.352	1	6
451.546	1	8
452.739	1	4
453.933	1	-1
455.126	1	17
456.320	1	8
457.513	1	5
458.706	1	13
459.899	1	6
461.093	1	13
462.286	1	5
463.479	1	-1
464.672	1	-2
465.865	1	3
467.058	1	4
468.251	1	-3
469.444	1	6
470.637	1	7
471.830	1	9
473.023	1	9
474.215	1	9
475.408	1	0
476.601	1	11
477.793	1	7
478.986	1	7
480.179	1	11
481.371	1	0
482.564	1	8
483.756	1	12
484.948	1	16
486.141	1	4
487.333	1	6
488.525	1	8
489.718	1	2
490.910	1	12
492.102	1	7
493.294	1	-3
494.486	1	1
495.678	1	-4
496.870	1	6
498.062	1	12
499.254	1	-3
500.446	1	6
501.638	1	17
502.829	1	2
504.021	1	15
505.213	1	8
506.404	1	5
507.596	1	14
508.788	1	18
509.979	1	5
511.171	1	20
512.362	1	17
513.553	1	12
514.745	1	20
515.936	1	15
517.127	1	36
518.319	1	6
519.510	1	6
520.701	1	27
521.892	1	14
523.083	1	9
524.274	1	11
525.465	1	27
526.656	1	19
527.847	1	14
529.038	1	19
530.229	1	14
531.419	1	22
532.610	1	30
533.801	1	13
534.991	1	14
536.182	1	18
537.373	1	16
538.563	1	7
539.754	1	4
540.944	1	24
542.134	1	12
543.325	1	17
544.515	1	13
545.705	1	14
546.896	1	7
548.086	1	25
549.276	1	22
550.466	1	5
551.656	1	13
552.846	1	12
554.036	1	18
555.226	1	18
556.416	1	15
557.606	1	-3
558.796	1	27
559.986	1	13
561.175	1	13
562.365	1	6
563.555	1	13
564.744	1	15
565.934	1	17
567.123	1	5
568.313	1	15
569.502	1	10
570.692	1	15
571.881	1	5
573.070	1	14
574.260	1	9
575.449	1	2
576.638	1	16
577.827	1	9
579.016	1	5
580.205	1	6
581.394	1	17
582.583	1	8
583.772	1	16
584.961	1	4
586.150	1	11
587.339	1	13
588.528	1	14
589.717	1	-1
590.905	1	9
592.094	1	19
593.283	1	7
594.471	1	0
595.660	1	16
596.848	1	5
598.037	1	2
599.225	1	6
600.413	1	7
601.602	1	8
602.790	1	2
603.978	1	3
605.166	1	5
606.355	1	1
607.543	1	11
608.731	1	-5
609.919	1	-11
611.107	1	15
612.295	1	9
613.483	1	2
614.671	1	11
615.858	1	-3
617.046	1	4
618.234	1	3
619.422	1	22
620.609	1	2
621.797	1	9
622.985	1	5
624.172	1	9
625.360	1	5
626.547	1	5
627.735	1	6
628.922	1	7
630.109	1	4
631.297	1	3
632.484	1	9
633.671	1	16
634.858	1	4
636.045	1	0
637.232	1	8
638.419	1	9
639.606	1	10
640.793	1	6
641.980	1	9
643.167	1	4
644.354	1	18
645.541	1	8
646.728	1	15
647.914	1	5
649.101	1	2
650.288	1	10
651.474	1	17
652.661	1	12
653.847	1	10
655.034	1	1
656.220	1	5
657.406	1	2
658.593	1	14
659.779	1	16
660.965	1	1
662.152	1	8
663.338	1	1
664.524	1	11
665.710	1	1
666.896	1	14
668.082	1	12
669.268	1	-1
670.454	1	6
671.640	1	13
672.826	1	2
674.011	1	10
675.197	1	14
676.383	1	5
677.569	1	17
678.754	1	-3
679.940	1	5
681.125	1	7
682.311	1	5
683.496	1	0
684.682	1	11
685.867	1	3
687.053	1	11
688.238	1	8
688.746	1	7

File: GaN_sample D_spot15_UVVIS_150 K_200um_450 ms 2x2mm1_121.txt
340.368	1	11
341.565	1	3
342.763	1	10
343.960	1	6
345.157	1	15
346.354	1	1
347.552	1	15
348.749	1	7
349.946	1	4
351.143	1	1
352.340	1	7
353.537	1	1
354.734	1	8
355.931	1	10
357.127	1	16
358.324	1	12
359.521	1	28
360.718	1	13
361.914	1	18
363.111	1	16
364.308	1	34
365.504	1	34
366.701	1	41
367.897	1	61
369.093	1	62
370.290	1	56
371.486	1	54
372.682	1	44
373.879	1	28
375.075	1	25
376.271	1	27
377.467	1	32
378.663	1	17
379.859	1	10
381.055	1	9
382.251	1	8
383.447	1	10
384.643	1	10
385.839	1	16
387.035	1	10
388.230	1	7
389.426	1	9
390.622	1	1
391.817	1	5
393.013	1	8
394.208	1	3
395.404	1	10
396.599	1	15
397.795	1	1
398.990	1	14
400.186	1	17
401.381	1	12
402.576	1	15
403.771	1	1
404.967	1	9
406.162	1	8
407.357	1	16
408.552	1	11
409.747	1	0
410.942	1	16
412.137	1	-1
413.332	1	9
414.526	1	7
415.721	1	14
416.916	1	12
418.111	1	15
419.305	1	17
420.500	1	9
421.695	1	19
422.889	1	14
424.084	1	10
425.278	1	6
426.472	1	14
427.667	1	8
428.861	1	20
430.055	1	19
431.250	1	13
432.444	1	9
433.638	1	18
434.832	1	15
436.026	1	10
437.220	1	12
438.414	1	15
439.608	1	8
440.802	1	9
441.996	1	9
443.190	1	11
444.384	1	15
445.578	1	6
446.771	1	11
447.965	1	15
449.159	1	5
450.352	1	8
451.546	1	4
452.739	1	17
453.933	1	5
455.126	1	6
456.320	1	12
457.513	1	2
458.706	1	18
459.899	1	2
461.093	1	10
462.286	1	4
463.479	1	2
464.672	1	6
465.865	1	4
467.058	1	6
468.251	1	0
469.444	1	5
470.637	1	-2
471.830	1	2
473.023	1	8
474.215	1	9
475.408	1	9
476.601	1	14
477.793	1	8
478.986	1	14
480.179	1	17
481.371	1	-7
482.564	1	8
483.756	1	15
484.948	1	11
486.141	1	11
487.333	1	0
488.525	1	-2
489.718	1	2
490.910	1	13
492.102	1	18
493.294	1	-1
494.486	1	7
495.678	1	5
496.870	1	9
498.062	1	5
499.254	1	10
500.446	1	2
501.638	1	12
502.829	1	7
504.021	1	15
505.213	1	11
506.404	1	13
507.596	1	18
508.788	1	12
509.979	1	7
511.171	1	18
512.362	1	9
513.553	1	11
514.745	1	11
515.936	1	13
517.127	1	20
518.319	1	18
519.510	1	10
520.701	1	17
521.892	1	17
523.083	1	11
524.274	1	14
525.465	1	17
526.656	1	23
527.847	1	3
529.038	1	14
530.229	1	13
531.419	1	24
532.610	1	18
533.801	1	17
534.991	1	17
536.182	1	9
537.373	1	12
538.563	1	12
539.754	1	9
540.944	1	25
542.134	1	17
543.325	1	13
544.515	1	13
545.705	1	23
546.896	1	17
548.086	1	12
549.276	1	19
550.466	1	7
551.656	1	10
552.846	1	14
554.036	1	21
555.226	1	8
556.416	1	14
557.606	1	10
558.796	1	17
559.986	1	11
561.175	1	7
562.365	1	9
563.555	1	12
564.744	1	17
565.934	1	21
567.123	1	6
568.313	1	18
569.502	1	16
570.692	1	12
571.881	1	6
573.070	1	9
574.260	1	5
575.449	1	9
576.638	1	16
577.827	1	3
579.016	1	4
580.205	1	15
581.394	1	8
582.583	1	4
583.772	1	12
584.961	1	8
586.150	1	13
587.339	1	8
588.528	1	-3
589.717	1	10
590.905	1	2
592.094	1	17
593.283	1	4
594.471	1	4
595.660	1	10
596.848	1	10
598.037	1	6
599.225	1	-2
600.413	1	10
601.602	1	10
602.790	1	8
603.978	1	6
605.166	1	4
606.355	1	-5
607.543	1	-1
608.731	1	-7
609.919	1	-8
611.107	1	18
612.295	1	8
613.483	1	3
614.671	1	0
615.858	1	3
617.046	1	4
618.234	1	-3
619.422	1	17
620.609	1	8
621.797	1	-5
622.985	1	2
624.172	1	9
625.360	1	7
626.547	1	2
627.735	1	6
628.922	1	10
630.109	1	-4
631.297	1	6
632.484	1	12
633.671	1	7
634.858	1	0
636.045	1	-2
637.232	1	3
638.419	1	-3
639.606	1	10
640.793	1	4
641.980	1	13
643.167	1	0
644.354	1	8
645.541	1	7
646.728	1	6
647.914	1	-5
649.101	1	5
650.288	1	10
651.474	1	15
652.661	1	11
653.847	1	12
655.034	1	-3
656.220	1	6
657.406	1	7
658.593	1	6
659.779	1	9
660.965	1	6
662.152	1	8
663.338	1	12
664.524	1	9
665.710	1	10
666.896	1	11
668.082	1	5
669.268	1	1
670.454	1	13
671.640	1	4
672.826	1	11
674.011	1	7
675.197	1	5
676.383	1	-2
677.569	1	17
678.754	1	10
679.940	1	1
681.125	1	8
682.311	1	7
683.496	1	-2
684.682	1	11
685.867	1	5
687.053	1	20
688.238	1	16
688.746	1	4

File: GaN_sample D_spot15_UVVIS_150 K_200um_450 ms 2x2mm1_122.txt
340.368	1	12
341.565	1	7
342.763	1	6
343.960	1	13
345.157	1	9
346.354	1	8
347.552	1	19
348.749	1	10
349.946	1	-4
351.143	1	11
352.340	1	12
353.537	1	-3
354.734	1	4
355.931	1	13
357.127	1	14
358.324	1	14
359.521	1	26
360.718	1	7
361.914	1	25
363.111	1	34
364.308	1	41
365.504	1	38
366.701	1	54
367.897	1	59
369.093	1	66
370.290	1	64
371.486	1	55
372.682	1	40
373.879	1	34
375.075	1	20
376.271	1	28
377.467	1	26
378.663	1	24
379.859	1	17
381.055	1	18
382.251	1	-1
383.447	1	16
384.643	1	7
385.839	1	14
387.035	1	14
388.230	1	12
389.426	1	-9
390.622	1	8
391.817	1	1
393.013	1	11
394.208	1	9
395.404	1	10
396.599	1	0
397.795	1	3
398.990	1	23
400.186	1	7
401.381	1	7
402.576	1	8
403.771	1	2
404.967	1	6
406.162	1	7
407.357	1	11
408.552	1	7
409.747	1	10
410.942	1	23
412.137	1	12
413.332	1	10
414.526	1	-1
415.721	1	19
416.916	1	10
418.111	1	19
419.305	1	18
420.500	1	13
421.695	1	21
422.889	1	15
424.084	1	7
425.278	1	18
426.472	1	13
427.667	1	11
428.861	1	19
430.055	1	16
431.250	1	17
432.444	1	15
433.638	1	27
434.832	1	16
436.026	1	6
437.220	1	26
438.414	1	14
439.608	1	6
440.802	1	16
441.996	1	1
443.190	1	2
444.384	1	15
445.578	1	0
446.771	1	7
447.965	1	5
449.159	1	0
450.352	1	5
451.546	1	3
452.739	1	5
453.933	1	-1
455.126	1	13
456.320	1	10
457.513	1	9
458.706	1	17
459.899	1	5
461.093	1	12
462.286	1	7
463.479	1	5
464.672	1	17
465.865	1	2
467.058	1	9
468.251	1	-2
469.444	1	9
470.637	1	4
471.830	1	2
473.023	1	9
474.215	1	7
475.408	1	5
476.601	1	8
477.793	1	9
478.986	1	6
480.179	1	17
481.371	1	2
482.564	1	10
483.756	1	12
484.948	1	8
486.141	1	16
487.333	1	0
488.525	1	-3
489.718	1	6
490.910	1	17
492.102	1	10
493.294	1	0
494.486	1	6
495.678	1	3
496.870	1	6
498.062	1	14
499.254	1	0
500.446	1	8
501.638	1	9
502.829	1	9
504.021	1	15
505.213	1	3
506.404	1	15
507.596	1	18
508.788	1	5
509.979	1	0
511.171	1	8
512.362	1	19
513.553	1	22
514.745	1	6
515.936	1	13
517.127	1	19
518.319	1	7
519.510	1	8
520.701	1	19
521.892	1	16
523.083	1	11
524.274	1	21
525.465	1	23
526.656	1	25
527.847	1	0
529.038	1	19
530.229	1	13
531.419	1	16
532.610	1	26
533.801	1	14
534.991	1	15
536.182	1	8
537.373	1	9
538.563	1	16
539.754	1	18
540.944	1	12
542.134	1	11
543.325	1	19
544.515	1	8
545.705	1	12
546.896	1	10
548.086	1	12
549.276	1	16
550.466	1	15
551.656	1	16
552.846	1	9
554.036	1	21
555.226	1	10
556.416	1	14
557.606	1	5
558.796	1	19
559.986	1	19
561.175	1	8
562.365	1	17
563.555	1	10
564.744	1	18
565.934	1	18
567.123	1	12
568.313	1	7
569.502	1	14
570.692	1	11
571.881	1	11
573.070	1	12
574.260	1	15
575.449	1	0
576.638	1	10
577.827	1	12
579.016	1	8
580.205	1	1
581.394	1	-4
582.583	1	4
583.772	1	9
584.961	1	-1
586.150	1	16
587.339	1	15
588.528	1	1
589.717	1	8
590.905	1	2
592.094	1	12
593.283	1	5
594.471	1	-2
595.660	1	6
596.848	1	8
598.037	1	5
599.225	1	4
600.413	1	12
601.602	1	6
602.790	1	11
603.978	1	11
605.166	1	9
606.355	1	-9
607.543	1	8
608.731	1	-3
609.919	1	-5
611.107	1	14
612.295	1	2
613.483	1	-3
614.671	1	6
615.858	1	-10
617.046	1	-1
618.234	1	-10
619.422	1	12
620.609	1	10
621.797	1	-1
622.985	1	2
624.172	1	9
625.360	1	5
626.547	1	-1
627.735	1	7
628.922	1	11
630.109	1	-3
631.297	1	8
632.484	1	6
633.671	1	12
634.858	1	18
636.045	1	-3
637.232	1	7
638.419	1	3
639.606	1	14
640.793	1	4
641.980	1	8
643.167	1	6
644.354	1	5
645.541	1	2
646.728	1	9
647.914	1	4
649.101	1	5
650.288	1	11
651.474	1	0
652.661	1	12
653.847	1	9
655.034	1	-2
656.220	1	9
657.406	1	2
658.593	1	10
659.779	1	8
660.965	1	-4
662.152	1	1
663.338	1	8
664.524	1	10
665.710	1	0
666.896	1	11
668.082	1	5
669.268	1	-1
670.454	1	12
671.640	1	8
672.826	1	2
674.011	1	12
675.197	1	16
676.383	1	2
677.569	1	16
678.754	1	8
679.940	1	1
681.125	1	-2
682.311	1	16
683.496	1	4
684.682	1	9
685.867	1	0
687.053	1	23
688.238	1	13
688.746	1	2