Folder: cryo-il_analysis/Data/GaN_170K_550ms (part 18)

File: GaN_sample D_spot 18_UVVIS_170 K_200um_550 ms 2x2mm1_194.txt
340.368	1	1
341.565	1	4
342.763	1	-2
343.960	1	-5
345.157	1	6
346.354	1	-4
347.552	1	5
348.749	1	10
349.946	1	10
351.143	1	4
352.340	1	-3
353.537	1	-3
354.734	1	3
355.931	1	-2
357.127	1	4
358.324	1	5
359.521	1	10
360.718	1	8
361.914	1	19
363.111	1	17
364.308	1	6
365.504	1	11
366.701	1	27
367.897	1	17
369.093	1	20
370.290	1	9
371.486	1	20
372.682	1	13
373.879	1	16
375.075	1	10
376.271	1	13
377.467	1	5
378.663	1	6
379.859	1	7
381.055	1	8
382.251	1	7
383.447	1	9
384.643	1	-4
385.839	1	3
387.035	1	-4
388.230	1	3
389.426	1	2
390.622	1	-2
391.817	1	4
393.013	1	-5
394.208	1	11
395.404	1	11
396.599	1	-1
397.795	1	4
398.990	1	-5
400.186	1	-5
401.381	1	15
402.576	1	-1
403.771	1	-1
404.967	1	3
406.162	1	17
407.357	1	-1
408.552	1	4
409.747	1	-1
410.942	1	0
412.137	1	-3
413.332	1	5
414.526	1	7
415.721	1	3
416.916	1	-3
418.111	1	10
419.305	1	2
420.500	1	1
421.695	1	-5
422.889	1	-11
424.084	1	20
425.278	1	1
426.472	1	1
427.667	1	0
428.861	1	7
430.055	1	8
431.250	1	12
432.444	1	4
433.638	1	11
434.832	1	6
436.026	1	-2
437.220	1	7
438.414	1	-7
439.608	1	4
440.802	1	19
441.996	1	-1
443.190	1	0
444.384	1	-7
445.578	1	6
446.771	1	-8
447.965	1	1
449.159	1	2
450.352	1	-12
451.546	1	-6
452.739	1	1
453.933	1	8
455.126	1	10
456.320	1	-3
457.513	1	10
458.706	1	13
459.899	1	0
461.093	1	11
462.286	1	-1
463.479	1	-1
464.672	1	9
465.865	1	5
467.058	1	4
468.251	1	8
469.444	1	-3
470.637	1	1
471.830	1	7
473.023	1	2
474.215	1	3
475.408	1	-8
476.601	1	5
477.793	1	15
478.986	1	2
480.179	1	-4
481.371	1	2
482.564	1	5
483.756	1	-4
484.948	1	-5
486.141	1	0
487.333	1	-1
488.525	1	9
489.718	1	12
490.910	1	4
492.102	1	6
493.294	1	2
494.486	1	2
495.678	1	5
496.870	1	-5
498.062	1	6
499.254	1	10
500.446	1	3
501.638	1	-3
502.829	1	-2
504.021	1	4
505.213	1	3
506.404	1	7
507.596	1	15
508.788	1	-6
509.979	1	4
511.171	1	2
512.362	1	-2
513.553	1	-2
514.745	1	-2
515.936	1	8
517.127	1	5
518.319	1	12
519.510	1	7
520.701	1	1
521.892	1	3
523.083	1	1
524.274	1	2
525.465	1	8
526.656	1	8
527.847	1	-6
529.038	1	6
530.229	1	17
531.419	1	14
532.610	1	0
533.801	1	14
534.991	1	-1
536.182	1	9
537.373	1	-7
538.563	1	12
539.754	1	1
540.944	1	-7
542.134	1	-3
543.325	1	19
544.515	1	4
545.705	1	4
546.896	1	6
548.086	1	7
549.276	1	6
550.466	1	-3
551.656	1	10
552.846	1	-4
554.036	1	-3
555.226	1	7
556.416	1	0
557.606	1	1
558.796	1	7
559.986	1	10
561.175	1	-8
562.365	1	0
563.555	1	4
564.744	1	12
565.934	1	2
567.123	1	11
568.313	1	-3
569.502	1	6
570.692	1	6
571.881	1	-3
573.070	1	-3
574.260	1	18
575.449	1	3
576.638	1	9
577.827	1	8
579.016	1	2
580.205	1	-2
581.394	1	3
582.583	1	-1
583.772	1	4
584.961	1	-6
586.150	1	0
587.339	1	5
588.528	1	-1
589.717	1	8
590.905	1	5
592.094	1	6
593.283	1	8
594.471	1	6
595.660	1	2
596.848	1	6
598.037	1	4
599.225	1	4
600.413	1	-6
601.602	1	3
602.790	1	4
603.978	1	8
605.166	1	-1
606.355	1	-1
607.543	1	11
608.731	1	5
609.919	1	-6
611.107	1	1
612.295	1	1
613.483	1	-4
614.671	1	8
615.858	1	-4
617.046	1	-2
618.234	1	1
619.422	1	3
620.609	1	10
621.797	1	7
622.985	1	1
624.172	1	1
625.360	1	6
626.547	1	-3
627.735	1	-10
628.922	1	-4
630.109	1	1
631.297	1	-4
632.484	1	-1
633.671	1	7
634.858	1	3
636.045	1	2
637.232	1	4
638.419	1	-7
639.606	1	0
640.793	1	6
641.980	1	3
643.167	1	-3
644.354	1	0
645.541	1	4
646.728	1	5
647.914	1	-3
649.101	1	7
650.288	1	-1
651.474	1	8
652.661	1	8
653.847	1	2
655.034	1	-6
656.220	1	6
657.406	1	-6
658.593	1	3
659.779	1	1
660.965	1	15
662.152	1	-3
663.338	1	4
664.524	1	7
665.710	1	3
666.896	1	-2
668.082	1	8
669.268	1	1
670.454	1	-5
671.640	1	5
672.826	1	-6
674.011	1	7
675.197	1	12
676.383	1	4
677.569	1	-1
678.754	1	1
679.940	1	3
681.125	1	8
682.311	1	-2
683.496	1	-3
684.682	1	3
685.867	1	4
687.053	1	-4
688.238	1	-2
688.746	1	-4

File: GaN_sample D_spot 18_UVVIS_170 K_200um_550 ms 2x2mm1_199.txt
340.368	1	7
341.565	1	2
342.763	1	9
343.960	1	2
345.157	1	5
346.354	1	-3
347.552	1	16
348.749	1	3
349.946	1	9
351.143	1	-2
352.340	1	1
353.537	1	3
354.734	1	5
355.931	1	8
357.127	1	1
358.324	1	9
359.521	1	9
360.718	1	8
361.914	1	13
363.111	1	10
364.308	1	1
365.504	1	11
366.701	1	19
367.897	1	19
369.093	1	6
370.290	1	6
371.486	1	15
372.682	1	21
373.879	1	20
375.075	1	8
376.271	1	10
377.467	1	12
378.663	1	15
379.859	1	8
381.055	1	7
382.251	1	5
383.447	1	9
384.643	1	-1
385.839	1	5
387.035	1	6
388.230	1	6
389.426	1	7
390.622	1	-6
391.817	1	1
393.013	1	-1
394.208	1	12
395.404	1	10
396.599	1	-5
397.795	1	1
398.990	1	-3
400.186	1	6
401.381	1	6
402.576	1	6
403.771	1	0
404.967	1	-1
406.162	1	11
407.357	1	6
408.552	1	7
409.747	1	-6
410.942	1	14
412.137	1	2
413.332	1	-2
414.526	1	6
415.721	1	1
416.916	1	1
418.111	1	11
419.305	1	-2
420.500	1	-2
421.695	1	-7
422.889	1	9
424.084	1	15
425.278	1	-3
426.472	1	7
427.667	1	5
428.861	1	0
430.055	1	-3
431.250	1	12
432.444	1	1
433.638	1	6
434.832	1	5
436.026	1	5
437.220	1	-4
438.414	1	-4
439.608	1	-1
440.802	1	13
441.996	1	-4
443.190	1	7
444.384	1	4
445.578	1	6
446.771	1	-9
447.965	1	-1
449.159	1	1
450.352	1	0
451.546	1	5
452.739	1	-5
453.933	1	2
455.126	1	17
456.320	1	-3
457.513	1	17
458.706	1	13
459.899	1	-5
461.093	1	6
462.286	1	-10
463.479	1	1
464.672	1	3
465.865	1	-1
467.058	1	0
468.251	1	-4
469.444	1	1
470.637	1	-4
471.830	1	-2
473.023	1	3
474.215	1	7
475.408	1	-5
476.601	1	2
477.793	1	13
478.986	1	-1
480.179	1	-5
481.371	1	-3
482.564	1	1
483.756	1	-3
484.948	1	2
486.141	1	9
487.333	1	1
488.525	1	4
489.718	1	8
490.910	1	-1
492.102	1	1
493.294	1	-5
494.486	1	10
495.678	1	-2
496.870	1	-3
498.062	1	6
499.254	1	16
500.446	1	-2
501.638	1	-10
502.829	1	1
504.021	1	5
505.213	1	-1
506.404	1	3
507.596	1	14
508.788	1	-3
509.979	1	0
511.171	1	5
512.362	1	2
513.553	1	5
514.745	1	3
515.936	1	4
517.127	1	10
518.319	1	14
519.510	1	9
520.701	1	12
521.892	1	11
523.083	1	5
524.274	1	6
525.465	1	4
526.656	1	8
527.847	1	0
529.038	1	-1
530.229	1	17
531.419	1	13
532.610	1	0
533.801	1	12
534.991	1	5
536.182	1	1
537.373	1	2
538.563	1	12
539.754	1	-1
540.944	1	3
542.134	1	-2
543.325	1	8
544.515	1	0
545.705	1	8
546.896	1	1
548.086	1	-3
549.276	1	4
550.466	1	4
551.656	1	3
552.846	1	-2
554.036	1	4
555.226	1	-5
556.416	1	-2
557.606	1	2
558.796	1	0
559.986	1	2
561.175	1	-7
562.365	1	-6
563.555	1	6
564.744	1	3
565.934	1	7
567.123	1	8
568.313	1	-4
569.502	1	1
570.692	1	11
571.881	1	3
573.070	1	-10
574.260	1	8
575.449	1	7
576.638	1	2
577.827	1	-7
579.016	1	4
580.205	1	-6
581.394	1	4
582.583	1	2
583.772	1	-2
584.961	1	-5
586.150	1	8
587.339	1	-2
588.528	1	-1
589.717	1	14
590.905	1	-1
592.094	1	5
593.283	1	12
594.471	1	9
595.660	1	2
596.848	1	0
598.037	1	6
599.225	1	10
600.413	1	-9
601.602	1	2
602.790	1	7
603.978	1	6
605.166	1	4
606.355	1	5
607.543	1	10
608.731	1	1
609.919	1	-8
611.107	1	-10
612.295	1	-1
613.483	1	-6
614.671	1	8
615.858	1	2
617.046	1	0
618.234	1	12
619.422	1	-4
620.609	1	4
621.797	1	0
622.985	1	11
624.172	1	-4
625.360	1	2
626.547	1	-1
627.735	1	0
628.922	1	-4
630.109	1	-10
631.297	1	-1
632.484	1	-3
633.671	1	7
634.858	1	5
636.045	1	13
637.232	1	3
638.419	1	0
639.606	1	-1
640.793	1	0
641.980	1	3
643.167	1	0
644.354	1	2
645.541	1	3
646.728	1	1
647.914	1	-3
649.101	1	4
650.288	1	-1
651.474	1	6
652.661	1	7
653.847	1	5
655.034	1	0
656.220	1	0
657.406	1	4
658.593	1	-2
659.779	1	4
660.965	1	13
662.152	1	0
663.338	1	-3
664.524	1	5
665.710	1	2
666.896	1	2
668.082	1	4
669.268	1	8
670.454	1	-8
671.640	1	-1
672.826	1	2
674.011	1	9
675.197	1	9
676.383	1	2
677.569	1	-9
678.754	1	-5
679.940	1	9
681.125	1	11
682.311	1	4
683.496	1	2
684.682	1	6
685.867	1	12
687.053	1	-8
688.238	1	12
688.746	1	-5

File: GaN_sample D_spot 18_UVVIS_170 K_200um_550 ms 2x2mm1_201.txt
340.368	1	-1
341.565	1	3
342.763	1	8
343.960	1	2
345.157	1	-8
346.354	1	-2
347.552	1	8
348.749	1	9
349.946	1	14
351.143	1	-2
352.340	1	10
353.537	1	7
354.734	1	2
355.931	1	3
357.127	1	3
358.324	1	12
359.521	1	9
360.718	1	1
361.914	1	10
363.111	1	19
364.308	1	9
365.504	1	10
366.701	1	10
367.897	1	21
369.093	1	14
370.290	1	10
371.486	1	17
372.682	1	26
373.879	1	4
375.075	1	17
376.271	1	17
377.467	1	15
378.663	1	4
379.859	1	10
381.055	1	9
382.251	1	12
383.447	1	14
384.643	1	2
385.839	1	0
387.035	1	6
388.230	1	5
389.426	1	9
390.622	1	7
391.817	1	1
393.013	1	2
394.208	1	8
395.404	1	5
396.599	1	-9
397.795	1	-1
398.990	1	-7
400.186	1	4
401.381	1	10
402.576	1	-9
403.771	1	-5
404.967	1	10
406.162	1	5
407.357	1	3
408.552	1	-9
409.747	1	2
410.942	1	4
412.137	1	-2
413.332	1	1
414.526	1	4
415.721	1	-7
416.916	1	-3
418.111	1	1
419.305	1	-3
420.500	1	-1
421.695	1	-11
422.889	1	0
424.084	1	17
425.278	1	-2
426.472	1	-4
427.667	1	5
428.861	1	5
430.055	1	3
431.250	1	14
432.444	1	2
433.638	1	12
434.832	1	2
436.026	1	3
437.220	1	3
438.414	1	-3
439.608	1	-5
440.802	1	11
441.996	1	-5
443.190	1	-6
444.384	1	-2
445.578	1	-4
446.771	1	-11
447.965	1	-2
449.159	1	2
450.352	1	-11
451.546	1	-9
452.739	1	-3
453.933	1	6
455.126	1	7
456.320	1	7
457.513	1	11
458.706	1	-1
459.899	1	2
461.093	1	8
462.286	1	-11
463.479	1	3
464.672	1	-2
465.865	1	10
467.058	1	2
468.251	1	-9
469.444	1	3
470.637	1	1
471.830	1	4
473.023	1	4
474.215	1	1
475.408	1	-8
476.601	1	-3
477.793	1	4
478.986	1	-5
480.179	1	-8
481.371	1	0
482.564	1	1
483.756	1	5
484.948	1	-1
486.141	1	4
487.333	1	-1
488.525	1	7
489.718	1	8
490.910	1	11
492.102	1	1
493.294	1	-1
494.486	1	11
495.678	1	0
496.870	1	-2
498.062	1	5
499.254	1	4
500.446	1	3
501.638	1	-2
502.829	1	-3
504.021	1	1
505.213	1	-6
506.404	1	1
507.596	1	2
508.788	1	-8
509.979	1	6
511.171	1	4
512.362	1	-1
513.553	1	6
514.745	1	7
515.936	1	1
517.127	1	11
518.319	1	12
519.510	1	4
520.701	1	7
521.892	1	8
523.083	1	2
524.274	1	4
525.465	1	2
526.656	1	9
527.847	1	3
529.038	1	0
530.229	1	16
531.419	1	9
532.610	1	-1
533.801	1	10
534.991	1	3
536.182	1	2
537.373	1	2
538.563	1	1
539.754	1	5
540.944	1	2
542.134	1	-3
543.325	1	3
544.515	1	4
545.705	1	8
546.896	1	4
548.086	1	1
549.276	1	7
550.466	1	12
551.656	1	10
552.846	1	0
554.036	1	9
555.226	1	-7
556.416	1	2
557.606	1	5
558.796	1	-1
559.986	1	5
561.175	1	-3
562.365	1	4
563.555	1	1
564.744	1	5
565.934	1	3
567.123	1	-6
568.313	1	-1
569.502	1	6
570.692	1	6
571.881	1	0
573.070	1	-4
574.260	1	12
575.449	1	3
576.638	1	9
577.827	1	-9
579.016	1	10
580.205	1	0
581.394	1	5
582.583	1	-6
583.772	1	0
584.961	1	2
586.150	1	1
587.339	1	2
588.528	1	4
589.717	1	7
590.905	1	6
592.094	1	5
593.283	1	4
594.471	1	9
595.660	1	4
596.848	1	-2
598.037	1	-2
599.225	1	9
600.413	1	-4
601.602	1	-4
602.790	1	11
603.978	1	8
605.166	1	10
606.355	1	4
607.543	1	7
608.731	1	8
609.919	1	-5
611.107	1	0
612.295	1	0
613.483	1	-5
614.671	1	9
615.858	1	0
617.046	1	-5
618.234	1	-1
619.422	1	-13
620.609	1	8
621.797	1	10
622.985	1	-4
624.172	1	6
625.360	1	7
626.547	1	-5
627.735	1	-6
628.922	1	-6
630.109	1	5
631.297	1	-3
632.484	1	-3
633.671	1	12
634.858	1	-2
636.045	1	6
637.232	1	1
638.419	1	-1
639.606	1	-8
640.793	1	1
641.980	1	2
643.167	1	1
644.354	1	1
645.541	1	2
646.728	1	-1
647.914	1	0
649.101	1	8
650.288	1	-3
651.474	1	11
652.661	1	-3
653.847	1	4
655.034	1	0
656.220	1	3
657.406	1	5
658.593	1	5
659.779	1	2
660.965	1	4
662.152	1	10
663.338	1	0
664.524	1	7
665.710	1	6
666.896	1	1
668.082	1	8
669.268	1	0
670.454	1	-8
671.640	1	3
672.826	1	2
674.011	1	12
675.197	1	5
676.383	1	-4
677.569	1	-2
678.754	1	-5
679.940	1	10
681.125	1	4
682.311	1	5
683.496	1	-1
684.682	1	7
685.867	1	8
687.053	1	-5
688.238	1	-2
688.746	1	-9

File: GaN_sample D_spot 18_UVVIS_170 K_200um_550 ms 2x2mm1_204.txt
340.368	1	7
341.565	1	5
342.763	1	2
343.960	1	-2
345.157	1	-9
346.354	1	-2
347.552	1	9
348.749	1	8
349.946	1	7
351.143	1	-1
352.340	1	9
353.537	1	8
354.734	1	5
355.931	1	-7
357.127	1	1
358.324	1	10
359.521	1	9
360.718	1	7
361.914	1	2
363.111	1	23
364.308	1	6
365.504	1	18
366.701	1	13
367.897	1	16
369.093	1	11
370.290	1	18
371.486	1	8
372.682	1	17
373.879	1	14
375.075	1	8
376.271	1	8
377.467	1	17
378.663	1	2
379.859	1	4
381.055	1	10
382.251	1	7
383.447	1	18
384.643	1	3
385.839	1	-3
387.035	1	9
388.230	1	4
389.426	1	8
390.622	1	-1
391.817	1	6
393.013	1	-3
394.208	1	13
395.404	1	14
396.599	1	0
397.795	1	-3
398.990	1	-2
400.186	1	-3
401.381	1	9
402.576	1	2
403.771	1	3
404.967	1	2
406.162	1	7
407.357	1	2
408.552	1	-2
409.747	1	-2
410.942	1	15
412.137	1	-3
413.332	1	-5
414.526	1	7
415.721	1	3
416.916	1	-9
418.111	1	8
419.305	1	-7
420.500	1	1
421.695	1	-2
422.889	1	-6
424.084	1	17
425.278	1	-3
426.472	1	-3
427.667	1	5
428.861	1	-2
430.055	1	1
431.250	1	16
432.444	1	7
433.638	1	6
434.832	1	5
436.026	1	0
437.220	1	-2
438.414	1	-10
439.608	1	1
440.802	1	4
441.996	1	-5
443.190	1	-3
444.384	1	-2
445.578	1	4
446.771	1	-3
447.965	1	-4
449.159	1	4
450.352	1	-3
451.546	1	-6
452.739	1	2
453.933	1	-3
455.126	1	8
456.320	1	4
457.513	1	11
458.706	1	-7
459.899	1	-3
461.093	1	3
462.286	1	-4
463.479	1	3
464.672	1	-1
465.865	1	1
467.058	1	6
468.251	1	7
469.444	1	3
470.637	1	0
471.830	1	-5
473.023	1	9
474.215	1	-3
475.408	1	-9
476.601	1	2
477.793	1	-2
478.986	1	-6
480.179	1	-6
481.371	1	-6
482.564	1	4
483.756	1	4
484.948	1	-7
486.141	1	6
487.333	1	-6
488.525	1	7
489.718	1	3
490.910	1	-3
492.102	1	2
493.294	1	-4
494.486	1	12
495.678	1	2
496.870	1	-2
498.062	1	1
499.254	1	7
500.446	1	9
501.638	1	-4
502.829	1	9
504.021	1	0
505.213	1	3
506.404	1	9
507.596	1	4
508.788	1	-1
509.979	1	8
511.171	1	5
512.362	1	-3
513.553	1	3
514.745	1	0
515.936	1	3
517.127	1	7
518.319	1	8
519.510	1	13
520.701	1	4
521.892	1	6
523.083	1	4
524.274	1	2
525.465	1	1
526.656	1	9
527.847	1	-11
529.038	1	7
530.229	1	21
531.419	1	16
532.610	1	5
533.801	1	4
534.991	1	-1
536.182	1	2
537.373	1	-5
538.563	1	1
539.754	1	0
540.944	1	-6
542.134	1	4
543.325	1	6
544.515	1	6
545.705	1	14
546.896	1	7
548.086	1	0
549.276	1	3
550.466	1	2
551.656	1	5
552.846	1	5
554.036	1	1
555.226	1	-4
556.416	1	-4
557.606	1	-1
558.796	1	1
559.986	1	4
561.175	1	-4
562.365	1	3
563.555	1	5
564.744	1	5
565.934	1	4
567.123	1	-2
568.313	1	7
569.502	1	1
570.692	1	8
571.881	1	-9
573.070	1	1
574.260	1	5
575.449	1	-1
576.638	1	10
577.827	1	0
579.016	1	13
580.205	1	-3
581.394	1	5
582.583	1	2
583.772	1	-5
584.961	1	-1
586.150	1	-2
587.339	1	9
588.528	1	-7
589.717	1	-1
590.905	1	18
592.094	1	1
593.283	1	8
594.471	1	12
595.660	1	5
596.848	1	5
598.037	1	3
599.225	1	5
600.413	1	-5
601.602	1	3
602.790	1	9
603.978	1	6
605.166	1	8
606.355	1	14
607.543	1	10
608.731	1	9
609.919	1	-3
611.107	1	-3
612.295	1	3
613.483	1	-5
614.671	1	6
615.858	1	7
617.046	1	-3
618.234	1	3
619.422	1	-5
620.609	1	5
621.797	1	2
622.985	1	1
624.172	1	6
625.360	1	1
626.547	1	-13
627.735	1	-8
628.922	1	-6
630.109	1	2
631.297	1	0
632.484	1	-3
633.671	1	10
634.858	1	5
636.045	1	2
637.232	1	2
638.419	1	-9
639.606	1	0
640.793	1	-1
641.980	1	1
643.167	1	-3
644.354	1	5
645.541	1	6
646.728	1	-3
647.914	1	-3
649.101	1	3
650.288	1	1
651.474	1	4
652.661	1	3
653.847	1	4
655.034	1	-5
656.220	1	4
657.406	1	7
658.593	1	5
659.779	1	-2
660.965	1	13
662.152	1	1
663.338	1	5
664.524	1	5
665.710	1	-1
666.896	1	9
668.082	1	11
669.268	1	-5
670.454	1	-10
671.640	1	2
672.826	1	-1
674.011	1	14
675.197	1	5
676.383	1	0
677.569	1	-6
678.754	1	1
679.940	1	12
681.125	1	5
682.311	1	-7
683.496	1	4
684.682	1	8
685.867	1	10
687.053	1	-8
688.238	1	-3
688.746	1	-4

File: GaN_sample D_spot 18_UVVIS_170 K_200um_550 ms 2x2mm1_206.txt
340.368	1	2
341.565	1	6
342.763	1	14
343.960	1	-7
345.157	1	8
346.354	1	2
347.552	1	7
348.749	1	7
349.946	1	9
351.143	1	0
352.340	1	9
353.537	1	4
354.734	1	7
355.931	1	-1
357.127	1	-1
358.324	1	11
359.521	1	5
360.718	1	8
361.914	1	9
363.111	1	20
364.308	1	11
365.504	1	23
366.701	1	18
367.897	1	19
369.093	1	16
370.290	1	14
371.486	1	13
372.682	1	16
373.879	1	16
375.075	1	13
376.271	1	12
377.467	1	9
378.663	1	7
379.859	1	12
381.055	1	7
382.251	1	-7
383.447	1	6
384.643	1	0
385.839	1	0
387.035	1	6
388.230	1	2
389.426	1	2
390.622	1	4
391.817	1	2
393.013	1	6
394.208	1	6
395.404	1	4
396.599	1	2
397.795	1	0
398.990	1	-9
400.186	1	-1
401.381	1	12
402.576	1	3
403.771	1	8
404.967	1	8
406.162	1	7
407.357	1	-3
408.552	1	3
409.747	1	0
410.942	1	-1
412.137	1	2
413.332	1	-2
414.526	1	6
415.721	1	1
416.916	1	-6
418.111	1	10
419.305	1	7
420.500	1	0
421.695	1	-9
422.889	1	0
424.084	1	19
425.278	1	-5
426.472	1	1
427.667	1	-4
428.861	1	11
430.055	1	0
431.250	1	18
432.444	1	4
433.638	1	13
434.832	1	-1
436.026	1	3
437.220	1	6
438.414	1	-10
439.608	1	0
440.802	1	6
441.996	1	0
443.190	1	6
444.384	1	8
445.578	1	3
446.771	1	-11
447.965	1	-4
449.159	1	-3
450.352	1	3
451.546	1	-5
452.739	1	6
453.933	1	1
455.126	1	11
456.320	1	2
457.513	1	12
458.706	1	2
459.899	1	0
461.093	1	8
462.286	1	-8
463.479	1	-2
464.672	1	-5
465.865	1	2
467.058	1	1
468.251	1	7
469.444	1	-4
470.637	1	3
471.830	1	-5
473.023	1	0
474.215	1	2
475.408	1	2
476.601	1	2
477.793	1	3
478.986	1	-2
480.179	1	-4
481.371	1	3
482.564	1	0
483.756	1	8
484.948	1	-10
486.141	1	12
487.333	1	-2
488.525	1	14
489.718	1	5
490.910	1	4
492.102	1	0
493.294	1	4
494.486	1	10
495.678	1	3
496.870	1	3
498.062	1	11
499.254	1	12
500.446	1	-2
501.638	1	-6
502.829	1	1
504.021	1	4
505.213	1	4
506.404	1	0
507.596	1	1
508.788	1	-12
509.979	1	12
511.171	1	2
512.362	1	-2
513.553	1	10
514.745	1	-7
515.936	1	2
517.127	1	5
518.319	1	8
519.510	1	7
520.701	1	5
521.892	1	-1
523.083	1	10
524.274	1	1
525.465	1	5
526.656	1	6
527.847	1	-4
529.038	1	3
530.229	1	14
531.419	1	2
532.610	1	11
533.801	1	6
534.991	1	6
536.182	1	-1
537.373	1	6
538.563	1	10
539.754	1	8
540.944	1	-3
542.134	1	-3
543.325	1	4
544.515	1	1
545.705	1	11
546.896	1	3
548.086	1	-2
549.276	1	10
550.466	1	2
551.656	1	9
552.846	1	5
554.036	1	3
555.226	1	-8
556.416	1	-1
557.606	1	-4
558.796	1	3
559.986	1	1
561.175	1	2
562.365	1	5
563.555	1	3
564.744	1	9
565.934	1	-3
567.123	1	3
568.313	1	1
569.502	1	7
570.692	1	8
571.881	1	1
573.070	1	0
574.260	1	-2
575.449	1	15
576.638	1	7
577.827	1	-2
579.016	1	8
580.205	1	0
581.394	1	5
582.583	1	2
583.772	1	6
584.961	1	2
586.150	1	0
587.339	1	2
588.528	1	-2
589.717	1	8
590.905	1	4
592.094	1	7
593.283	1	8
594.471	1	10
595.660	1	3
596.848	1	-1
598.037	1	0
599.225	1	1
600.413	1	0
601.602	1	7
602.790	1	14
603.978	1	5
605.166	1	6
606.355	1	3
607.543	1	11
608.731	1	4
609.919	1	-6
611.107	1	-6
612.295	1	-1
613.483	1	-2
614.671	1	0
615.858	1	-1
617.046	1	0
618.234	1	1
619.422	1	-4
620.609	1	0
621.797	1	-6
622.985	1	4
624.172	1	2
625.360	1	4
626.547	1	-1
627.735	1	-2
628.922	1	3
630.109	1	4
631.297	1	9
632.484	1	-7
633.671	1	-4
634.858	1	8
636.045	1	15
637.232	1	0
638.419	1	-3
639.606	1	-6
640.793	1	2
641.980	1	-3
643.167	1	1
644.354	1	2
645.541	1	4
646.728	1	9
647.914	1	6
649.101	1	1
650.288	1	8
651.474	1	10
652.661	1	-6
653.847	1	1
655.034	1	-12
656.220	1	1
657.406	1	2
658.593	1	1
659.779	1	0
660.965	1	12
662.152	1	5
663.338	1	8
664.524	1	-3
665.710	1	1
666.896	1	-2
668.082	1	17
669.268	1	-8
670.454	1	-6
671.640	1	4
672.826	1	2
674.011	1	6
675.197	1	5
676.383	1	4
677.569	1	-9
678.754	1	2
679.940	1	18
681.125	1	12
682.311	1	1
683.496	1	2
684.682	1	1
685.867	1	8
687.053	1	-10
688.238	1	1
688.746	1	-8

File: GaN_sample D_spot 18_UVVIS_170 K_200um_550 ms 2x2mm1_207.txt
340.368	1	2
341.565	1	8
342.763	1	6
343.960	1	-4
345.157	1	-5
346.354	1	-7
347.552	1	7
348.749	1	6
349.946	1	6
351.143	1	2
352.340	1	2
353.537	1	-1
354.734	1	2
355.931	1	-8
357.127	1	0
358.324	1	5
359.521	1	1
360.718	1	-1
361.914	1	3
363.111	1	22
364.308	1	16
365.504	1	17
366.701	1	13
367.897	1	14
369.093	1	10
370.290	1	22
371.486	1	10
372.682	1	19
373.879	1	15
375.075	1	9
376.271	1	6
377.467	1	3
378.663	1	8
379.859	1	2
381.055	1	5
382.251	1	-4
383.447	1	19
384.643	1	1
385.839	1	1
387.035	1	5
388.230	1	5
389.426	1	2
390.622	1	-3
391.817	1	-2
393.013	1	-3
394.208	1	2
395.404	1	8
396.599	1	2
397.795	1	-3
398.990	1	-11
400.186	1	0
401.381	1	13
402.576	1	6
403.771	1	5
404.967	1	4
406.162	1	3
407.357	1	-1
408.552	1	-4
409.747	1	-1
410.942	1	7
412.137	1	-3
413.332	1	-4
414.526	1	5
415.721	1	0
416.916	1	-10
418.111	1	8
419.305	1	-2
420.500	1	0
421.695	1	-20
422.889	1	-6
424.084	1	22
425.278	1	-6
426.472	1	-2
427.667	1	1
428.861	1	7
430.055	1	-5
431.250	1	14
432.444	1	3
433.638	1	2
434.832	1	12
436.026	1	12
437.220	1	-2
438.414	1	-2
439.608	1	4
440.802	1	6
441.996	1	7
443.190	1	1
444.384	1	3
445.578	1	8
446.771	1	-12
447.965	1	4
449.159	1	0
450.352	1	2
451.546	1	-7
452.739	1	5
453.933	1	-1
455.126	1	8
456.320	1	7
457.513	1	10
458.706	1	3
459.899	1	1
461.093	1	13
462.286	1	0
463.479	1	-6
464.672	1	-4
465.865	1	4
467.058	1	0
468.251	1	6
469.444	1	0
470.637	1	-1
471.830	1	1
473.023	1	1
474.215	1	6
475.408	1	-9
476.601	1	-3
477.793	1	-4
478.986	1	-2
480.179	1	-8
481.371	1	-8
482.564	1	1
483.756	1	-4
484.948	1	1
486.141	1	12
487.333	1	-15
488.525	1	9
489.718	1	11
490.910	1	7
492.102	1	1
493.294	1	-5
494.486	1	10
495.678	1	0
496.870	1	6
498.062	1	-6
499.254	1	9
500.446	1	5
501.638	1	-3
502.829	1	0
504.021	1	4
505.213	1	-6
506.404	1	-3
507.596	1	-2
508.788	1	0
509.979	1	5
511.171	1	8
512.362	1	-3
513.553	1	-2
514.745	1	3
515.936	1	3
517.127	1	6
518.319	1	6
519.510	1	7
520.701	1	4
521.892	1	-3
523.083	1	-3
524.274	1	2
525.465	1	1
526.656	1	18
527.847	1	-1
529.038	1	0
530.229	1	15
531.419	1	13
532.610	1	5
533.801	1	9
534.991	1	2
536.182	1	4
537.373	1	2
538.563	1	2
539.754	1	-6
540.944	1	2
542.134	1	-5
543.325	1	7
544.515	1	6
545.705	1	9
546.896	1	-2
548.086	1	4
549.276	1	11
550.466	1	-2
551.656	1	-5
552.846	1	4
554.036	1	-6
555.226	1	-3
556.416	1	1
557.606	1	8
558.796	1	1
559.986	1	4
561.175	1	-14
562.365	1	9
563.555	1	1
564.744	1	3
565.934	1	3
567.123	1	-3
568.313	1	-4
569.502	1	9
570.692	1	16
571.881	1	-3
573.070	1	9
574.260	1	14
575.449	1	4
576.638	1	11
577.827	1	-2
579.016	1	3
580.205	1	-6
581.394	1	7
582.583	1	-1
583.772	1	-5
584.961	1	7
586.150	1	-11
587.339	1	-8
588.528	1	-6
589.717	1	4
590.905	1	3
592.094	1	3
593.283	1	-3
594.471	1	11
595.660	1	5
596.848	1	3
598.037	1	-6
599.225	1	1
600.413	1	-2
601.602	1	0
602.790	1	-1
603.978	1	4
605.166	1	2
606.355	1	-3
607.543	1	17
608.731	1	9
609.919	1	2
611.107	1	3
612.295	1	5
613.483	1	0
614.671	1	1
615.858	1	-5
617.046	1	-6
618.234	1	4
619.422	1	0
620.609	1	8
621.797	1	8
622.985	1	3
624.172	1	-2
625.360	1	1
626.547	1	-4
627.735	1	-8
628.922	1	-5
630.109	1	0
631.297	1	1
632.484	1	-3
633.671	1	7
634.858	1	-7
636.045	1	6
637.232	1	2
638.419	1	0
639.606	1	5
640.793	1	5
641.980	1	-7
643.167	1	-1
644.354	1	0
645.541	1	0
646.728	1	-1
647.914	1	0
649.101	1	-10
650.288	1	-3
651.474	1	6
652.661	1	7
653.847	1	5
655.034	1	-8
656.220	1	-2
657.406	1	-1
658.593	1	1
659.779	1	5
660.965	1	12
662.152	1	0
663.338	1	10
664.524	1	3
665.710	1	7
666.896	1	2
668.082	1	18
669.268	1	-9
670.454	1	-7
671.640	1	14
672.826	1	6
674.011	1	9
675.197	1	4
676.383	1	-1
677.569	1	-7
678.754	1	4
679.940	1	11
681.125	1	0
682.311	1	-1
683.496	1	-3
684.682	1	5
685.867	1	6
687.053	1	-2
688.238	1	2
688.746	1	-6