Folder: cryo-il_analysis/Data/GaN_150K_450ms (part 2)

File: GaN_sample D_spot15_UVVIS_150 K_200um_450 ms 2x2mm1_28.txt
340.368	1	-1
341.565	1	5
342.763	1	7
343.960	1	3
345.157	1	12
346.354	1	5
347.552	1	15
348.749	1	1
349.946	1	3
351.143	1	6
352.340	1	4
353.537	1	-8
354.734	1	3
355.931	1	4
357.127	1	4
358.324	1	0
359.521	1	9
360.718	1	1
361.914	1	6
363.111	1	-5
364.308	1	-1
365.504	1	-1
366.701	1	0
367.897	1	-6
369.093	1	-6
370.290	1	4
371.486	1	6
372.682	1	11
373.879	1	-1
375.075	1	-9
376.271	1	-6
377.467	1	13
378.663	1	5
379.859	1	-7
381.055	1	-7
382.251	1	-14
383.447	1	-4
384.643	1	2
385.839	1	5
387.035	1	2
388.230	1	0
389.426	1	3
390.622	1	-6
391.817	1	-1
393.013	1	8
394.208	1	2
395.404	1	2
396.599	1	8
397.795	1	-3
398.990	1	11
400.186	1	-11
401.381	1	5
402.576	1	7
403.771	1	-7
404.967	1	10
406.162	1	-9
407.357	1	7
408.552	1	-3
409.747	1	-2
410.942	1	14
412.137	1	-1
413.332	1	7
414.526	1	-10
415.721	1	3
416.916	1	-9
418.111	1	5
419.305	1	6
420.500	1	4
421.695	1	4
422.889	1	3
424.084	1	5
425.278	1	-2
426.472	1	1
427.667	1	5
428.861	1	1
430.055	1	1
431.250	1	1
432.444	1	1
433.638	1	3
434.832	1	-2
436.026	1	-9
437.220	1	5
438.414	1	5
439.608	1	-3
440.802	1	5
441.996	1	-3
443.190	1	9
444.384	1	4
445.578	1	-3
446.771	1	3
447.965	1	-4
449.159	1	-2
450.352	1	5
451.546	1	-1
452.739	1	1
453.933	1	-1
455.126	1	4
456.320	1	15
457.513	1	2
458.706	1	11
459.899	1	3
461.093	1	9
462.286	1	-1
463.479	1	2
464.672	1	3
465.865	1	1
467.058	1	2
468.251	1	5
469.444	1	2
470.637	1	1
471.830	1	1
473.023	1	7
474.215	1	7
475.408	1	4
476.601	1	1
477.793	1	4
478.986	1	6
480.179	1	0
481.371	1	-2
482.564	1	18
483.756	1	9
484.948	1	9
486.141	1	0
487.333	1	-8
488.525	1	-6
489.718	1	-7
490.910	1	5
492.102	1	4
493.294	1	-5
494.486	1	1
495.678	1	-7
496.870	1	-3
498.062	1	-1
499.254	1	-6
500.446	1	-4
501.638	1	-2
502.829	1	-7
504.021	1	7
505.213	1	-8
506.404	1	-2
507.596	1	9
508.788	1	-1
509.979	1	1
511.171	1	8
512.362	1	8
513.553	1	7
514.745	1	8
515.936	1	-8
517.127	1	7
518.319	1	-2
519.510	1	1
520.701	1	7
521.892	1	1
523.083	1	-7
524.274	1	6
525.465	1	8
526.656	1	3
527.847	1	-15
529.038	1	0
530.229	1	6
531.419	1	7
532.610	1	8
533.801	1	0
534.991	1	-5
536.182	1	-2
537.373	1	9
538.563	1	2
539.754	1	3
540.944	1	-2
542.134	1	4
543.325	1	7
544.515	1	8
545.705	1	7
546.896	1	0
548.086	1	8
549.276	1	7
550.466	1	-6
551.656	1	1
552.846	1	4
554.036	1	6
555.226	1	5
556.416	1	7
557.606	1	-9
558.796	1	1
559.986	1	-4
561.175	1	-4
562.365	1	0
563.555	1	3
564.744	1	10
565.934	1	12
567.123	1	1
568.313	1	-8
569.502	1	-3
570.692	1	7
571.881	1	-6
573.070	1	-2
574.260	1	6
575.449	1	-3
576.638	1	0
577.827	1	-3
579.016	1	12
580.205	1	-3
581.394	1	1
582.583	1	5
583.772	1	-7
584.961	1	-13
586.150	1	-3
587.339	1	-2
588.528	1	-7
589.717	1	-2
590.905	1	-5
592.094	1	13
593.283	1	12
594.471	1	2
595.660	1	10
596.848	1	7
598.037	1	-1
599.225	1	7
600.413	1	1
601.602	1	-2
602.790	1	6
603.978	1	0
605.166	1	0
606.355	1	-9
607.543	1	4
608.731	1	-6
609.919	1	-6
611.107	1	14
612.295	1	1
613.483	1	-2
614.671	1	-3
615.858	1	-11
617.046	1	-6
618.234	1	-3
619.422	1	6
620.609	1	3
621.797	1	-4
622.985	1	-2
624.172	1	-2
625.360	1	2
626.547	1	-6
627.735	1	6
628.922	1	6
630.109	1	-3
631.297	1	-2
632.484	1	10
633.671	1	3
634.858	1	2
636.045	1	-5
637.232	1	4
638.419	1	-1
639.606	1	12
640.793	1	1
641.980	1	5
643.167	1	6
644.354	1	2
645.541	1	-5
646.728	1	8
647.914	1	9
649.101	1	-9
650.288	1	5
651.474	1	8
652.661	1	6
653.847	1	1
655.034	1	-5
656.220	1	2
657.406	1	-6
658.593	1	2
659.779	1	2
660.965	1	7
662.152	1	5
663.338	1	-9
664.524	1	4
665.710	1	2
666.896	1	10
668.082	1	0
669.268	1	-4
670.454	1	2
671.640	1	5
672.826	1	-1
674.011	1	-2
675.197	1	-2
676.383	1	-4
677.569	1	10
678.754	1	-4
679.940	1	-12
681.125	1	-5
682.311	1	9
683.496	1	-1
684.682	1	4
685.867	1	-3
687.053	1	14
688.238	1	6
688.746	1	-7

File: GaN_sample D_spot15_UVVIS_150 K_200um_450 ms 2x2mm1_31.txt
340.368	1	1
341.565	1	3
342.763	1	5
343.960	1	9
345.157	1	5
346.354	1	-6
347.552	1	16
348.749	1	11
349.946	1	-2
351.143	1	1
352.340	1	4
353.537	1	-7
354.734	1	-10
355.931	1	9
357.127	1	3
358.324	1	7
359.521	1	-1
360.718	1	-4
361.914	1	9
363.111	1	5
364.308	1	1
365.504	1	3
366.701	1	2
367.897	1	-2
369.093	1	-4
370.290	1	4
371.486	1	8
372.682	1	2
373.879	1	-1
375.075	1	-5
376.271	1	0
377.467	1	12
378.663	1	6
379.859	1	-2
381.055	1	-2
382.251	1	-10
383.447	1	3
384.643	1	-4
385.839	1	-5
387.035	1	12
388.230	1	0
389.426	1	-3
390.622	1	-3
391.817	1	0
393.013	1	7
394.208	1	4
395.404	1	-1
396.599	1	-2
397.795	1	-2
398.990	1	9
400.186	1	2
401.381	1	4
402.576	1	0
403.771	1	-4
404.967	1	7
406.162	1	3
407.357	1	8
408.552	1	-1
409.747	1	8
410.942	1	1
412.137	1	-4
413.332	1	6
414.526	1	-4
415.721	1	11
416.916	1	-6
418.111	1	3
419.305	1	0
420.500	1	-1
421.695	1	10
422.889	1	3
424.084	1	2
425.278	1	-2
426.472	1	2
427.667	1	-1
428.861	1	5
430.055	1	8
431.250	1	-1
432.444	1	-2
433.638	1	8
434.832	1	-2
436.026	1	-3
437.220	1	2
438.414	1	7
439.608	1	-8
440.802	1	8
441.996	1	0
443.190	1	6
444.384	1	7
445.578	1	-5
446.771	1	3
447.965	1	8
449.159	1	-7
450.352	1	-6
451.546	1	-1
452.739	1	-2
453.933	1	-1
455.126	1	-2
456.320	1	2
457.513	1	-5
458.706	1	0
459.899	1	-4
461.093	1	4
462.286	1	-4
463.479	1	14
464.672	1	5
465.865	1	2
467.058	1	-3
468.251	1	0
469.444	1	3
470.637	1	4
471.830	1	-4
473.023	1	5
474.215	1	1
475.408	1	9
476.601	1	4
477.793	1	2
478.986	1	7
480.179	1	-2
481.371	1	-6
482.564	1	4
483.756	1	5
484.948	1	5
486.141	1	1
487.333	1	-10
488.525	1	-7
489.718	1	-7
490.910	1	3
492.102	1	-2
493.294	1	-6
494.486	1	1
495.678	1	4
496.870	1	2
498.062	1	-3
499.254	1	1
500.446	1	-4
501.638	1	6
502.829	1	-7
504.021	1	-4
505.213	1	-11
506.404	1	9
507.596	1	5
508.788	1	6
509.979	1	5
511.171	1	-3
512.362	1	7
513.553	1	3
514.745	1	3
515.936	1	7
517.127	1	4
518.319	1	-5
519.510	1	-8
520.701	1	-1
521.892	1	2
523.083	1	1
524.274	1	-3
525.465	1	11
526.656	1	3
527.847	1	-7
529.038	1	4
530.229	1	2
531.419	1	6
532.610	1	15
533.801	1	15
534.991	1	-9
536.182	1	2
537.373	1	-4
538.563	1	-1
539.754	1	6
540.944	1	0
542.134	1	7
543.325	1	4
544.515	1	2
545.705	1	1
546.896	1	12
548.086	1	12
549.276	1	8
550.466	1	-4
551.656	1	-1
552.846	1	4
554.036	1	2
555.226	1	-2
556.416	1	-1
557.606	1	-8
558.796	1	2
559.986	1	5
561.175	1	2
562.365	1	0
563.555	1	9
564.744	1	10
565.934	1	9
567.123	1	-1
568.313	1	-5
569.502	1	9
570.692	1	5
571.881	1	-11
573.070	1	10
574.260	1	2
575.449	1	-1
576.638	1	4
577.827	1	-3
579.016	1	-1
580.205	1	5
581.394	1	7
582.583	1	1
583.772	1	7
584.961	1	-6
586.150	1	13
587.339	1	-1
588.528	1	-3
589.717	1	5
590.905	1	4
592.094	1	8
593.283	1	5
594.471	1	-6
595.660	1	7
596.848	1	4
598.037	1	-5
599.225	1	-4
600.413	1	-7
601.602	1	4
602.790	1	1
603.978	1	-1
605.166	1	10
606.355	1	-14
607.543	1	9
608.731	1	-8
609.919	1	-6
611.107	1	12
612.295	1	11
613.483	1	3
614.671	1	-5
615.858	1	-6
617.046	1	-3
618.234	1	-2
619.422	1	13
620.609	1	-4
621.797	1	6
622.985	1	1
624.172	1	-4
625.360	1	2
626.547	1	-7
627.735	1	0
628.922	1	3
630.109	1	-1
631.297	1	2
632.484	1	3
633.671	1	9
634.858	1	-4
636.045	1	-16
637.232	1	7
638.419	1	-4
639.606	1	10
640.793	1	3
641.980	1	4
643.167	1	5
644.354	1	2
645.541	1	1
646.728	1	3
647.914	1	-1
649.101	1	6
650.288	1	2
651.474	1	2
652.661	1	5
653.847	1	8
655.034	1	-11
656.220	1	0
657.406	1	1
658.593	1	3
659.779	1	5
660.965	1	-2
662.152	1	0
663.338	1	-10
664.524	1	13
665.710	1	3
666.896	1	5
668.082	1	1
669.268	1	-9
670.454	1	6
671.640	1	3
672.826	1	1
674.011	1	9
675.197	1	3
676.383	1	-8
677.569	1	19
678.754	1	5
679.940	1	-1
681.125	1	-3
682.311	1	10
683.496	1	3
684.682	1	10
685.867	1	-2
687.053	1	15
688.238	1	7
688.746	1	-5

File: GaN_sample D_spot15_UVVIS_150 K_200um_450 ms 2x2mm1_37.txt
340.368	1	-3
341.565	1	1
342.763	1	1
343.960	1	5
345.157	1	14
346.354	1	5
347.552	1	22
348.749	1	8
349.946	1	5
351.143	1	-2
352.340	1	9
353.537	1	-2
354.734	1	4
355.931	1	9
357.127	1	11
358.324	1	2
359.521	1	10
360.718	1	-3
361.914	1	5
363.111	1	3
364.308	1	-2
365.504	1	-6
366.701	1	0
367.897	1	11
369.093	1	2
370.290	1	7
371.486	1	13
372.682	1	3
373.879	1	-2
375.075	1	-1
376.271	1	3
377.467	1	8
378.663	1	2
379.859	1	4
381.055	1	-2
382.251	1	0
383.447	1	6
384.643	1	-4
385.839	1	0
387.035	1	2
388.230	1	-6
389.426	1	-11
390.622	1	-7
391.817	1	-4
393.013	1	6
394.208	1	-3
395.404	1	7
396.599	1	1
397.795	1	-7
398.990	1	10
400.186	1	1
401.381	1	2
402.576	1	7
403.771	1	-2
404.967	1	2
406.162	1	-2
407.357	1	4
408.552	1	-8
409.747	1	-5
410.942	1	7
412.137	1	0
413.332	1	7
414.526	1	-10
415.721	1	1
416.916	1	9
418.111	1	1
419.305	1	9
420.500	1	2
421.695	1	3
422.889	1	0
424.084	1	8
425.278	1	2
426.472	1	6
427.667	1	-6
428.861	1	-3
430.055	1	6
431.250	1	8
432.444	1	1
433.638	1	9
434.832	1	1
436.026	1	4
437.220	1	-1
438.414	1	7
439.608	1	4
440.802	1	-2
441.996	1	-5
443.190	1	5
444.384	1	-4
445.578	1	-9
446.771	1	-1
447.965	1	-7
449.159	1	-8
450.352	1	3
451.546	1	1
452.739	1	2
453.933	1	-5
455.126	1	7
456.320	1	7
457.513	1	-5
458.706	1	7
459.899	1	-1
461.093	1	7
462.286	1	-1
463.479	1	-7
464.672	1	0
465.865	1	2
467.058	1	7
468.251	1	-2
469.444	1	-7
470.637	1	2
471.830	1	1
473.023	1	4
474.215	1	-5
475.408	1	1
476.601	1	4
477.793	1	9
478.986	1	4
480.179	1	12
481.371	1	-10
482.564	1	5
483.756	1	-5
484.948	1	7
486.141	1	9
487.333	1	-10
488.525	1	1
489.718	1	-8
490.910	1	3
492.102	1	3
493.294	1	-7
494.486	1	-2
495.678	1	2
496.870	1	2
498.062	1	0
499.254	1	0
500.446	1	5
501.638	1	6
502.829	1	-2
504.021	1	8
505.213	1	-3
506.404	1	1
507.596	1	12
508.788	1	1
509.979	1	-2
511.171	1	0
512.362	1	13
513.553	1	4
514.745	1	0
515.936	1	-7
517.127	1	9
518.319	1	2
519.510	1	-1
520.701	1	6
521.892	1	-7
523.083	1	-6
524.274	1	4
525.465	1	3
526.656	1	-4
527.847	1	-13
529.038	1	8
530.229	1	10
531.419	1	2
532.610	1	2
533.801	1	6
534.991	1	-2
536.182	1	-1
537.373	1	0
538.563	1	5
539.754	1	2
540.944	1	11
542.134	1	-1
543.325	1	14
544.515	1	-1
545.705	1	3
546.896	1	7
548.086	1	2
549.276	1	2
550.466	1	-2
551.656	1	7
552.846	1	13
554.036	1	4
555.226	1	4
556.416	1	4
557.606	1	-9
558.796	1	14
559.986	1	7
561.175	1	1
562.365	1	1
563.555	1	10
564.744	1	14
565.934	1	2
567.123	1	-4
568.313	1	7
569.502	1	4
570.692	1	-1
571.881	1	-4
573.070	1	-4
574.260	1	3
575.449	1	-5
576.638	1	12
577.827	1	-8
579.016	1	2
580.205	1	2
581.394	1	7
582.583	1	7
583.772	1	6
584.961	1	-5
586.150	1	3
587.339	1	-3
588.528	1	-9
589.717	1	1
590.905	1	2
592.094	1	0
593.283	1	5
594.471	1	-8
595.660	1	3
596.848	1	6
598.037	1	6
599.225	1	-5
600.413	1	4
601.602	1	13
602.790	1	5
603.978	1	2
605.166	1	4
606.355	1	-14
607.543	1	-3
608.731	1	-7
609.919	1	-10
611.107	1	9
612.295	1	-2
613.483	1	1
614.671	1	3
615.858	1	-7
617.046	1	1
618.234	1	-10
619.422	1	15
620.609	1	9
621.797	1	1
622.985	1	-5
624.172	1	7
625.360	1	-3
626.547	1	2
627.735	1	-5
628.922	1	4
630.109	1	-6
631.297	1	1
632.484	1	4
633.671	1	-2
634.858	1	6
636.045	1	-13
637.232	1	-1
638.419	1	-14
639.606	1	8
640.793	1	-3
641.980	1	11
643.167	1	2
644.354	1	11
645.541	1	2
646.728	1	4
647.914	1	3
649.101	1	-15
650.288	1	1
651.474	1	2
652.661	1	2
653.847	1	6
655.034	1	-2
656.220	1	6
657.406	1	0
658.593	1	6
659.779	1	0
660.965	1	4
662.152	1	-2
663.338	1	-1
664.524	1	13
665.710	1	3
666.896	1	2
668.082	1	1
669.268	1	1
670.454	1	6
671.640	1	1
672.826	1	3
674.011	1	3
675.197	1	2
676.383	1	4
677.569	1	10
678.754	1	5
679.940	1	-2
681.125	1	-1
682.311	1	-1
683.496	1	2
684.682	1	8
685.867	1	-9
687.053	1	11
688.238	1	0
688.746	1	-5

File: GaN_sample D_spot15_UVVIS_150 K_200um_450 ms 2x2mm1_39.txt
340.368	1	-2
341.565	1	3
342.763	1	2
343.960	1	8
345.157	1	2
346.354	1	-6
347.552	1	18
348.749	1	10
349.946	1	-2
351.143	1	11
352.340	1	13
353.537	1	0
354.734	1	0
355.931	1	1
357.127	1	8
358.324	1	0
359.521	1	8
360.718	1	5
361.914	1	5
363.111	1	1
364.308	1	-6
365.504	1	-3
366.701	1	-4
367.897	1	1
369.093	1	1
370.290	1	10
371.486	1	9
372.682	1	4
373.879	1	-4
375.075	1	-5
376.271	1	-1
377.467	1	6
378.663	1	6
379.859	1	2
381.055	1	2
382.251	1	-5
383.447	1	-1
384.643	1	2
385.839	1	2
387.035	1	1
388.230	1	6
389.426	1	-5
390.622	1	0
391.817	1	-11
393.013	1	6
394.208	1	3
395.404	1	8
396.599	1	0
397.795	1	2
398.990	1	5
400.186	1	3
401.381	1	4
402.576	1	-1
403.771	1	-7
404.967	1	-5
406.162	1	0
407.357	1	4
408.552	1	-9
409.747	1	-2
410.942	1	10
412.137	1	1
413.332	1	6
414.526	1	-5
415.721	1	-7
416.916	1	1
418.111	1	-4
419.305	1	4
420.500	1	1
421.695	1	8
422.889	1	2
424.084	1	8
425.278	1	-3
426.472	1	12
427.667	1	-7
428.861	1	9
430.055	1	1
431.250	1	6
432.444	1	2
433.638	1	2
434.832	1	3
436.026	1	-9
437.220	1	6
438.414	1	7
439.608	1	-9
440.802	1	-4
441.996	1	-1
443.190	1	7
444.384	1	8
445.578	1	-9
446.771	1	3
447.965	1	-5
449.159	1	-12
450.352	1	-2
451.546	1	-3
452.739	1	3
453.933	1	-10
455.126	1	8
456.320	1	3
457.513	1	-3
458.706	1	3
459.899	1	-5
461.093	1	3
462.286	1	-8
463.479	1	3
464.672	1	4
465.865	1	5
467.058	1	0
468.251	1	0
469.444	1	6
470.637	1	3
471.830	1	6
473.023	1	8
474.215	1	0
475.408	1	-1
476.601	1	0
477.793	1	7
478.986	1	4
480.179	1	15
481.371	1	-3
482.564	1	12
483.756	1	3
484.948	1	0
486.141	1	6
487.333	1	-9
488.525	1	-5
489.718	1	-4
490.910	1	0
492.102	1	1
493.294	1	-1
494.486	1	-4
495.678	1	5
496.870	1	1
498.062	1	-1
499.254	1	-5
500.446	1	-3
501.638	1	-1
502.829	1	-2
504.021	1	-4
505.213	1	-4
506.404	1	4
507.596	1	8
508.788	1	6
509.979	1	-2
511.171	1	6
512.362	1	15
513.553	1	2
514.745	1	-3
515.936	1	2
517.127	1	2
518.319	1	-6
519.510	1	1
520.701	1	5
521.892	1	5
523.083	1	2
524.274	1	3
525.465	1	6
526.656	1	-6
527.847	1	-6
529.038	1	3
530.229	1	10
531.419	1	6
532.610	1	6
533.801	1	6
534.991	1	1
536.182	1	-5
537.373	1	-6
538.563	1	2
539.754	1	4
540.944	1	9
542.134	1	9
543.325	1	8
544.515	1	10
545.705	1	14
546.896	1	4
548.086	1	6
549.276	1	4
550.466	1	1
551.656	1	5
552.846	1	7
554.036	1	10
555.226	1	4
556.416	1	1
557.606	1	-2
558.796	1	11
559.986	1	9
561.175	1	-11
562.365	1	-5
563.555	1	9
564.744	1	1
565.934	1	8
567.123	1	-2
568.313	1	2
569.502	1	9
570.692	1	6
571.881	1	-5
573.070	1	5
574.260	1	3
575.449	1	-14
576.638	1	10
577.827	1	4
579.016	1	2
580.205	1	0
581.394	1	3
582.583	1	-2
583.772	1	0
584.961	1	-11
586.150	1	6
587.339	1	2
588.528	1	7
589.717	1	6
590.905	1	-1
592.094	1	8
593.283	1	0
594.471	1	-5
595.660	1	7
596.848	1	11
598.037	1	-1
599.225	1	-4
600.413	1	10
601.602	1	13
602.790	1	9
603.978	1	-1
605.166	1	4
606.355	1	-7
607.543	1	4
608.731	1	-7
609.919	1	-9
611.107	1	2
612.295	1	2
613.483	1	1
614.671	1	5
615.858	1	-7
617.046	1	-4
618.234	1	1
619.422	1	14
620.609	1	-3
621.797	1	0
622.985	1	-3
624.172	1	-2
625.360	1	1
626.547	1	-2
627.735	1	3
628.922	1	-2
630.109	1	-7
631.297	1	6
632.484	1	8
633.671	1	8
634.858	1	-2
636.045	1	-3
637.232	1	0
638.419	1	-1
639.606	1	15
640.793	1	-1
641.980	1	10
643.167	1	3
644.354	1	-1
645.541	1	-3
646.728	1	7
647.914	1	-2
649.101	1	0
650.288	1	6
651.474	1	11
652.661	1	7
653.847	1	2
655.034	1	-1
656.220	1	11
657.406	1	0
658.593	1	0
659.779	1	7
660.965	1	8
662.152	1	-3
663.338	1	0
664.524	1	10
665.710	1	11
666.896	1	14
668.082	1	9
669.268	1	-7
670.454	1	11
671.640	1	7
672.826	1	8
674.011	1	4
675.197	1	-4
676.383	1	-8
677.569	1	5
678.754	1	4
679.940	1	0
681.125	1	2
682.311	1	12
683.496	1	3
684.682	1	10
685.867	1	1
687.053	1	18
688.238	1	11
688.746	1	-9

File: GaN_sample D_spot15_UVVIS_150 K_200um_450 ms 2x2mm1_41.txt
340.368	1	6
341.565	1	-1
342.763	1	4
343.960	1	2
345.157	1	14
346.354	1	0
347.552	1	12
348.749	1	14
349.946	1	-5
351.143	1	10
352.340	1	7
353.537	1	-7
354.734	1	-1
355.931	1	7
357.127	1	12
358.324	1	10
359.521	1	9
360.718	1	2
361.914	1	12
363.111	1	0
364.308	1	-8
365.504	1	-6
366.701	1	-2
367.897	1	-1
369.093	1	6
370.290	1	1
371.486	1	6
372.682	1	0
373.879	1	-1
375.075	1	-13
376.271	1	-4
377.467	1	3
378.663	1	4
379.859	1	-3
381.055	1	0
382.251	1	-12
383.447	1	-12
384.643	1	6
385.839	1	4
387.035	1	4
388.230	1	2
389.426	1	-2
390.622	1	-4
391.817	1	-5
393.013	1	4
394.208	1	2
395.404	1	6
396.599	1	12
397.795	1	3
398.990	1	3
400.186	1	1
401.381	1	-2
402.576	1	-10
403.771	1	-9
404.967	1	-2
406.162	1	-3
407.357	1	11
408.552	1	-4
409.747	1	0
410.942	1	6
412.137	1	7
413.332	1	11
414.526	1	-3
415.721	1	6
416.916	1	-2
418.111	1	4
419.305	1	9
420.500	1	6
421.695	1	7
422.889	1	3
424.084	1	5
425.278	1	0
426.472	1	17
427.667	1	1
428.861	1	6
430.055	1	2
431.250	1	3
432.444	1	-1
433.638	1	6
434.832	1	-3
436.026	1	-11
437.220	1	13
438.414	1	-3
439.608	1	-4
440.802	1	0
441.996	1	-1
443.190	1	0
444.384	1	2
445.578	1	-9
446.771	1	4
447.965	1	-3
449.159	1	-10
450.352	1	-1
451.546	1	3
452.739	1	4
453.933	1	-9
455.126	1	-5
456.320	1	5
457.513	1	-1
458.706	1	6
459.899	1	-5
461.093	1	11
462.286	1	-11
463.479	1	8
464.672	1	-1
465.865	1	2
467.058	1	6
468.251	1	-7
469.444	1	3
470.637	1	6
471.830	1	-4
473.023	1	6
474.215	1	-3
475.408	1	3
476.601	1	3
477.793	1	6
478.986	1	-1
480.179	1	9
481.371	1	-5
482.564	1	11
483.756	1	7
484.948	1	4
486.141	1	-1
487.333	1	-7
488.525	1	-4
489.718	1	-8
490.910	1	9
492.102	1	7
493.294	1	-8
494.486	1	0
495.678	1	3
496.870	1	-1
498.062	1	2
499.254	1	3
500.446	1	-6
501.638	1	4
502.829	1	0
504.021	1	9
505.213	1	-5
506.404	1	5
507.596	1	6
508.788	1	4
509.979	1	2
511.171	1	-1
512.362	1	6
513.553	1	4
514.745	1	-3
515.936	1	2
517.127	1	7
518.319	1	0
519.510	1	-3
520.701	1	3
521.892	1	-3
523.083	1	4
524.274	1	4
525.465	1	5
526.656	1	4
527.847	1	-9
529.038	1	6
530.229	1	12
531.419	1	5
532.610	1	5
533.801	1	3
534.991	1	3
536.182	1	-3
537.373	1	-4
538.563	1	-2
539.754	1	2
540.944	1	5
542.134	1	3
543.325	1	11
544.515	1	-4
545.705	1	2
546.896	1	5
548.086	1	11
549.276	1	6
550.466	1	-5
551.656	1	-4
552.846	1	6
554.036	1	2
555.226	1	-4
556.416	1	6
557.606	1	-6
558.796	1	6
559.986	1	-1
561.175	1	9
562.365	1	5
563.555	1	2
564.744	1	10
565.934	1	8
567.123	1	1
568.313	1	3
569.502	1	11
570.692	1	-2
571.881	1	5
573.070	1	3
574.260	1	0
575.449	1	-3
576.638	1	10
577.827	1	-4
579.016	1	3
580.205	1	-1
581.394	1	2
582.583	1	5
583.772	1	10
584.961	1	-13
586.150	1	12
587.339	1	-1
588.528	1	0
589.717	1	-4
590.905	1	2
592.094	1	11
593.283	1	1
594.471	1	-7
595.660	1	7
596.848	1	6
598.037	1	5
599.225	1	-8
600.413	1	0
601.602	1	-5
602.790	1	-1
603.978	1	1
605.166	1	0
606.355	1	-4
607.543	1	1
608.731	1	-10
609.919	1	-9
611.107	1	13
612.295	1	3
613.483	1	-6
614.671	1	-1
615.858	1	-6
617.046	1	0
618.234	1	1
619.422	1	8
620.609	1	0
621.797	1	2
622.985	1	-2
624.172	1	4
625.360	1	-3
626.547	1	-7
627.735	1	1
628.922	1	2
630.109	1	3
631.297	1	5
632.484	1	17
633.671	1	2
634.858	1	1
636.045	1	-5
637.232	1	-2
638.419	1	1
639.606	1	11
640.793	1	0
641.980	1	9
643.167	1	0
644.354	1	6
645.541	1	7
646.728	1	7
647.914	1	3
649.101	1	-9
650.288	1	9
651.474	1	4
652.661	1	-3
653.847	1	11
655.034	1	-10
656.220	1	6
657.406	1	-7
658.593	1	-1
659.779	1	8
660.965	1	1
662.152	1	-3
663.338	1	0
664.524	1	9
665.710	1	-4
666.896	1	2
668.082	1	-2
669.268	1	-12
670.454	1	4
671.640	1	2
672.826	1	-1
674.011	1	13
675.197	1	7
676.383	1	-4
677.569	1	12
678.754	1	0
679.940	1	-7
681.125	1	-4
682.311	1	5
683.496	1	-5
684.682	1	11
685.867	1	4
687.053	1	11
688.238	1	2
688.746	1	-4

File: GaN_sample D_spot15_UVVIS_150 K_200um_450 ms 2x2mm1_46.txt
340.368	1	1
341.565	1	-2
342.763	1	1
343.960	1	8
345.157	1	8
346.354	1	4
347.552	1	7
348.749	1	2
349.946	1	6
351.143	1	5
352.340	1	1
353.537	1	-1
354.734	1	5
355.931	1	-2
357.127	1	8
358.324	1	4
359.521	1	3
360.718	1	0
361.914	1	-2
363.111	1	-1
364.308	1	1
365.504	1	-16
366.701	1	-2
367.897	1	6
369.093	1	4
370.290	1	2
371.486	1	5
372.682	1	9
373.879	1	1
375.075	1	-9
376.271	1	1
377.467	1	5
378.663	1	3
379.859	1	-1
381.055	1	-11
382.251	1	2
383.447	1	0
384.643	1	7
385.839	1	3
387.035	1	5
388.230	1	-2
389.426	1	1
390.622	1	-3
391.817	1	-10
393.013	1	3
394.208	1	4
395.404	1	11
396.599	1	1
397.795	1	-2
398.990	1	7
400.186	1	-1
401.381	1	-2
402.576	1	-3
403.771	1	-3
404.967	1	3
406.162	1	-13
407.357	1	-2
408.552	1	2
409.747	1	-1
410.942	1	5
412.137	1	-2
413.332	1	-4
414.526	1	-15
415.721	1	-1
416.916	1	2
418.111	1	1
419.305	1	1
420.500	1	-3
421.695	1	17
422.889	1	6
424.084	1	3
425.278	1	-3
426.472	1	-1
427.667	1	3
428.861	1	-2
430.055	1	7
431.250	1	7
432.444	1	5
433.638	1	4
434.832	1	-8
436.026	1	0
437.220	1	6
438.414	1	4
439.608	1	1
440.802	1	9
441.996	1	3
443.190	1	1
444.384	1	7
445.578	1	-3
446.771	1	4
447.965	1	0
449.159	1	-8
450.352	1	0
451.546	1	-9
452.739	1	-1
453.933	1	2
455.126	1	6
456.320	1	9
457.513	1	-2
458.706	1	15
459.899	1	-8
461.093	1	8
462.286	1	-6
463.479	1	2
464.672	1	9
465.865	1	-1
467.058	1	8
468.251	1	0
469.444	1	7
470.637	1	4
471.830	1	3
473.023	1	8
474.215	1	-8
475.408	1	-7
476.601	1	7
477.793	1	2
478.986	1	8
480.179	1	10
481.371	1	-7
482.564	1	4
483.756	1	5
484.948	1	4
486.141	1	4
487.333	1	4
488.525	1	-12
489.718	1	-3
490.910	1	-1
492.102	1	-1
493.294	1	-11
494.486	1	5
495.678	1	-1
496.870	1	7
498.062	1	0
499.254	1	3
500.446	1	-1
501.638	1	6
502.829	1	-5
504.021	1	-3
505.213	1	-4
506.404	1	5
507.596	1	1
508.788	1	4
509.979	1	-8
511.171	1	-3
512.362	1	2
513.553	1	8
514.745	1	-1
515.936	1	-3
517.127	1	6
518.319	1	-6
519.510	1	-1
520.701	1	7
521.892	1	-5
523.083	1	-6
524.274	1	2
525.465	1	6
526.656	1	6
527.847	1	-6
529.038	1	-3
530.229	1	2
531.419	1	2
532.610	1	9
533.801	1	-1
534.991	1	-5
536.182	1	-2
537.373	1	-4
538.563	1	-12
539.754	1	8
540.944	1	5
542.134	1	2
543.325	1	5
544.515	1	4
545.705	1	4
546.896	1	7
548.086	1	-1
549.276	1	8
550.466	1	0
551.656	1	-2
552.846	1	4
554.036	1	11
555.226	1	0
556.416	1	2
557.606	1	-7
558.796	1	12
559.986	1	2
561.175	1	4
562.365	1	0
563.555	1	7
564.744	1	15
565.934	1	20
567.123	1	-1
568.313	1	5
569.502	1	3
570.692	1	6
571.881	1	2
573.070	1	14
574.260	1	-1
575.449	1	-4
576.638	1	2
577.827	1	0
579.016	1	1
580.205	1	6
581.394	1	8
582.583	1	7
583.772	1	11
584.961	1	-7
586.150	1	5
587.339	1	1
588.528	1	1
589.717	1	2
590.905	1	0
592.094	1	11
593.283	1	-5
594.471	1	5
595.660	1	7
596.848	1	3
598.037	1	1
599.225	1	-2
600.413	1	6
601.602	1	2
602.790	1	5
603.978	1	4
605.166	1	-4
606.355	1	-12
607.543	1	4
608.731	1	-6
609.919	1	-9
611.107	1	9
612.295	1	-5
613.483	1	0
614.671	1	8
615.858	1	-10
617.046	1	3
618.234	1	-2
619.422	1	12
620.609	1	1
621.797	1	4
622.985	1	1
624.172	1	-4
625.360	1	0
626.547	1	-6
627.735	1	2
628.922	1	0
630.109	1	0
631.297	1	-2
632.484	1	8
633.671	1	4
634.858	1	0
636.045	1	-1
637.232	1	-2
638.419	1	-4
639.606	1	3
640.793	1	5
641.980	1	9
643.167	1	6
644.354	1	12
645.541	1	7
646.728	1	4
647.914	1	7
649.101	1	-5
650.288	1	8
651.474	1	8
652.661	1	0
653.847	1	9
655.034	1	2
656.220	1	5
657.406	1	-9
658.593	1	11
659.779	1	-4
660.965	1	-3
662.152	1	3
663.338	1	-4
664.524	1	9
665.710	1	-1
666.896	1	-1
668.082	1	4
669.268	1	-9
670.454	1	8
671.640	1	6
672.826	1	-1
674.011	1	-2
675.197	1	7
676.383	1	5
677.569	1	6
678.754	1	6
679.940	1	-3
681.125	1	-5
682.311	1	3
683.496	1	2
684.682	1	7
685.867	1	-3
687.053	1	14
688.238	1	6
688.746	1	-1