Folder: cryo-il_analysis/Data/GaN_150K_450ms (part 23)

File: GaN_sample D_spot15_UVVIS_150 K_200um_450 ms 2x2mm1_191.txt
340.368	1	4
341.565	1	-4
342.763	1	0
343.960	1	4
345.157	1	2
346.354	1	0
347.552	1	20
348.749	1	13
349.946	1	1
351.143	1	0
352.340	1	10
353.537	1	2
354.734	1	9
355.931	1	7
357.127	1	11
358.324	1	-1
359.521	1	15
360.718	1	10
361.914	1	12
363.111	1	13
364.308	1	13
365.504	1	7
366.701	1	19
367.897	1	22
369.093	1	17
370.290	1	25
371.486	1	27
372.682	1	16
373.879	1	12
375.075	1	7
376.271	1	4
377.467	1	20
378.663	1	12
379.859	1	4
381.055	1	-2
382.251	1	-2
383.447	1	4
384.643	1	5
385.839	1	8
387.035	1	4
388.230	1	5
389.426	1	-2
390.622	1	0
391.817	1	8
393.013	1	4
394.208	1	3
395.404	1	12
396.599	1	4
397.795	1	7
398.990	1	6
400.186	1	3
401.381	1	7
402.576	1	6
403.771	1	3
404.967	1	10
406.162	1	-1
407.357	1	12
408.552	1	3
409.747	1	10
410.942	1	10
412.137	1	6
413.332	1	8
414.526	1	-3
415.721	1	4
416.916	1	-3
418.111	1	10
419.305	1	6
420.500	1	13
421.695	1	12
422.889	1	3
424.084	1	6
425.278	1	15
426.472	1	3
427.667	1	0
428.861	1	18
430.055	1	13
431.250	1	13
432.444	1	1
433.638	1	8
434.832	1	9
436.026	1	5
437.220	1	8
438.414	1	4
439.608	1	6
440.802	1	3
441.996	1	2
443.190	1	4
444.384	1	10
445.578	1	2
446.771	1	-1
447.965	1	0
449.159	1	-7
450.352	1	7
451.546	1	6
452.739	1	0
453.933	1	-3
455.126	1	6
456.320	1	4
457.513	1	7
458.706	1	10
459.899	1	-5
461.093	1	4
462.286	1	-2
463.479	1	-2
464.672	1	4
465.865	1	5
467.058	1	5
468.251	1	8
469.444	1	0
470.637	1	6
471.830	1	9
473.023	1	7
474.215	1	2
475.408	1	4
476.601	1	5
477.793	1	2
478.986	1	0
480.179	1	10
481.371	1	-5
482.564	1	4
483.756	1	14
484.948	1	8
486.141	1	6
487.333	1	-11
488.525	1	-6
489.718	1	-6
490.910	1	5
492.102	1	3
493.294	1	-6
494.486	1	4
495.678	1	-2
496.870	1	2
498.062	1	5
499.254	1	13
500.446	1	8
501.638	1	9
502.829	1	0
504.021	1	4
505.213	1	0
506.404	1	9
507.596	1	14
508.788	1	13
509.979	1	9
511.171	1	10
512.362	1	9
513.553	1	19
514.745	1	-1
515.936	1	9
517.127	1	13
518.319	1	11
519.510	1	3
520.701	1	10
521.892	1	7
523.083	1	6
524.274	1	9
525.465	1	3
526.656	1	18
527.847	1	-6
529.038	1	11
530.229	1	17
531.419	1	4
532.610	1	17
533.801	1	6
534.991	1	2
536.182	1	5
537.373	1	3
538.563	1	4
539.754	1	6
540.944	1	4
542.134	1	11
543.325	1	2
544.515	1	8
545.705	1	-2
546.896	1	4
548.086	1	17
549.276	1	14
550.466	1	6
551.656	1	-3
552.846	1	5
554.036	1	4
555.226	1	6
556.416	1	4
557.606	1	0
558.796	1	6
559.986	1	7
561.175	1	9
562.365	1	11
563.555	1	10
564.744	1	9
565.934	1	2
567.123	1	0
568.313	1	10
569.502	1	19
570.692	1	4
571.881	1	5
573.070	1	15
574.260	1	18
575.449	1	3
576.638	1	12
577.827	1	0
579.016	1	10
580.205	1	0
581.394	1	7
582.583	1	8
583.772	1	11
584.961	1	-3
586.150	1	4
587.339	1	3
588.528	1	-3
589.717	1	1
590.905	1	5
592.094	1	7
593.283	1	3
594.471	1	-6
595.660	1	7
596.848	1	7
598.037	1	1
599.225	1	8
600.413	1	9
601.602	1	9
602.790	1	2
603.978	1	5
605.166	1	9
606.355	1	-12
607.543	1	3
608.731	1	5
609.919	1	1
611.107	1	14
612.295	1	3
613.483	1	3
614.671	1	3
615.858	1	-1
617.046	1	-2
618.234	1	-9
619.422	1	19
620.609	1	3
621.797	1	8
622.985	1	6
624.172	1	10
625.360	1	-5
626.547	1	-4
627.735	1	3
628.922	1	7
630.109	1	-2
631.297	1	5
632.484	1	4
633.671	1	4
634.858	1	2
636.045	1	2
637.232	1	0
638.419	1	1
639.606	1	5
640.793	1	-3
641.980	1	11
643.167	1	5
644.354	1	9
645.541	1	10
646.728	1	7
647.914	1	7
649.101	1	-2
650.288	1	8
651.474	1	8
652.661	1	9
653.847	1	4
655.034	1	-6
656.220	1	12
657.406	1	-1
658.593	1	14
659.779	1	8
660.965	1	1
662.152	1	4
663.338	1	0
664.524	1	1
665.710	1	10
666.896	1	11
668.082	1	4
669.268	1	5
670.454	1	16
671.640	1	0
672.826	1	6
674.011	1	1
675.197	1	8
676.383	1	4
677.569	1	11
678.754	1	0
679.940	1	2
681.125	1	2
682.311	1	1
683.496	1	2
684.682	1	5
685.867	1	5
687.053	1	17
688.238	1	10
688.746	1	4

File: GaN_sample D_spot15_UVVIS_150 K_200um_450 ms 2x2mm1_196.txt
340.368	1	4
341.565	1	-1
342.763	1	5
343.960	1	3
345.157	1	8
346.354	1	2
347.552	1	15
348.749	1	10
349.946	1	-8
351.143	1	9
352.340	1	13
353.537	1	-5
354.734	1	7
355.931	1	14
357.127	1	11
358.324	1	16
359.521	1	16
360.718	1	11
361.914	1	6
363.111	1	9
364.308	1	21
365.504	1	14
366.701	1	11
367.897	1	24
369.093	1	35
370.290	1	21
371.486	1	19
372.682	1	19
373.879	1	13
375.075	1	6
376.271	1	14
377.467	1	22
378.663	1	16
379.859	1	6
381.055	1	9
382.251	1	0
383.447	1	4
384.643	1	9
385.839	1	10
387.035	1	5
388.230	1	5
389.426	1	0
390.622	1	-5
391.817	1	1
393.013	1	12
394.208	1	3
395.404	1	12
396.599	1	7
397.795	1	-1
398.990	1	10
400.186	1	5
401.381	1	4
402.576	1	9
403.771	1	-8
404.967	1	8
406.162	1	0
407.357	1	11
408.552	1	11
409.747	1	6
410.942	1	10
412.137	1	-3
413.332	1	8
414.526	1	7
415.721	1	9
416.916	1	13
418.111	1	2
419.305	1	8
420.500	1	12
421.695	1	12
422.889	1	8
424.084	1	5
425.278	1	2
426.472	1	10
427.667	1	-3
428.861	1	12
430.055	1	12
431.250	1	13
432.444	1	9
433.638	1	10
434.832	1	9
436.026	1	0
437.220	1	5
438.414	1	5
439.608	1	-4
440.802	1	1
441.996	1	12
443.190	1	6
444.384	1	7
445.578	1	-5
446.771	1	2
447.965	1	8
449.159	1	-3
450.352	1	-3
451.546	1	5
452.739	1	2
453.933	1	-2
455.126	1	5
456.320	1	3
457.513	1	-3
458.706	1	9
459.899	1	-1
461.093	1	1
462.286	1	-7
463.479	1	5
464.672	1	8
465.865	1	6
467.058	1	9
468.251	1	-2
469.444	1	5
470.637	1	11
471.830	1	5
473.023	1	0
474.215	1	-2
475.408	1	4
476.601	1	2
477.793	1	2
478.986	1	7
480.179	1	10
481.371	1	-12
482.564	1	4
483.756	1	6
484.948	1	5
486.141	1	7
487.333	1	-7
488.525	1	-1
489.718	1	-5
490.910	1	15
492.102	1	0
493.294	1	-8
494.486	1	-1
495.678	1	5
496.870	1	9
498.062	1	-1
499.254	1	-4
500.446	1	4
501.638	1	8
502.829	1	2
504.021	1	3
505.213	1	2
506.404	1	4
507.596	1	14
508.788	1	0
509.979	1	6
511.171	1	3
512.362	1	10
513.553	1	9
514.745	1	5
515.936	1	5
517.127	1	16
518.319	1	0
519.510	1	3
520.701	1	4
521.892	1	6
523.083	1	0
524.274	1	3
525.465	1	13
526.656	1	2
527.847	1	3
529.038	1	0
530.229	1	9
531.419	1	12
532.610	1	15
533.801	1	7
534.991	1	6
536.182	1	2
537.373	1	7
538.563	1	6
539.754	1	2
540.944	1	6
542.134	1	8
543.325	1	7
544.515	1	12
545.705	1	2
546.896	1	3
548.086	1	8
549.276	1	4
550.466	1	1
551.656	1	4
552.846	1	11
554.036	1	17
555.226	1	7
556.416	1	13
557.606	1	-4
558.796	1	5
559.986	1	10
561.175	1	10
562.365	1	-3
563.555	1	10
564.744	1	6
565.934	1	17
567.123	1	6
568.313	1	3
569.502	1	6
570.692	1	4
571.881	1	11
573.070	1	5
574.260	1	6
575.449	1	2
576.638	1	2
577.827	1	4
579.016	1	3
580.205	1	0
581.394	1	5
582.583	1	3
583.772	1	15
584.961	1	-1
586.150	1	5
587.339	1	0
588.528	1	7
589.717	1	5
590.905	1	3
592.094	1	4
593.283	1	2
594.471	1	-3
595.660	1	5
596.848	1	7
598.037	1	2
599.225	1	0
600.413	1	7
601.602	1	12
602.790	1	6
603.978	1	6
605.166	1	5
606.355	1	-7
607.543	1	11
608.731	1	-4
609.919	1	-6
611.107	1	16
612.295	1	4
613.483	1	4
614.671	1	14
615.858	1	-7
617.046	1	2
618.234	1	-4
619.422	1	16
620.609	1	-1
621.797	1	1
622.985	1	3
624.172	1	8
625.360	1	5
626.547	1	-1
627.735	1	-1
628.922	1	3
630.109	1	-11
631.297	1	0
632.484	1	12
633.671	1	4
634.858	1	12
636.045	1	-1
637.232	1	0
638.419	1	1
639.606	1	12
640.793	1	4
641.980	1	10
643.167	1	11
644.354	1	12
645.541	1	7
646.728	1	-4
647.914	1	1
649.101	1	4
650.288	1	6
651.474	1	4
652.661	1	8
653.847	1	0
655.034	1	-5
656.220	1	5
657.406	1	3
658.593	1	-3
659.779	1	8
660.965	1	1
662.152	1	5
663.338	1	-6
664.524	1	5
665.710	1	9
666.896	1	5
668.082	1	5
669.268	1	-3
670.454	1	11
671.640	1	4
672.826	1	1
674.011	1	6
675.197	1	11
676.383	1	2
677.569	1	13
678.754	1	2
679.940	1	-1
681.125	1	0
682.311	1	12
683.496	1	0
684.682	1	7
685.867	1	9
687.053	1	17
688.238	1	3
688.746	1	0

File: GaN_sample D_spot15_UVVIS_150 K_200um_450 ms 2x2mm1_201.txt
340.368	1	7
341.565	1	11
342.763	1	11
343.960	1	5
345.157	1	13
346.354	1	9
347.552	1	14
348.749	1	14
349.946	1	6
351.143	1	6
352.340	1	7
353.537	1	-3
354.734	1	5
355.931	1	10
357.127	1	16
358.324	1	1
359.521	1	9
360.718	1	10
361.914	1	12
363.111	1	1
364.308	1	18
365.504	1	13
366.701	1	17
367.897	1	13
369.093	1	15
370.290	1	20
371.486	1	24
372.682	1	27
373.879	1	12
375.075	1	10
376.271	1	2
377.467	1	14
378.663	1	4
379.859	1	6
381.055	1	5
382.251	1	2
383.447	1	11
384.643	1	8
385.839	1	10
387.035	1	16
388.230	1	7
389.426	1	5
390.622	1	-5
391.817	1	2
393.013	1	10
394.208	1	1
395.404	1	5
396.599	1	7
397.795	1	8
398.990	1	13
400.186	1	10
401.381	1	3
402.576	1	5
403.771	1	-5
404.967	1	6
406.162	1	-6
407.357	1	2
408.552	1	5
409.747	1	5
410.942	1	3
412.137	1	5
413.332	1	7
414.526	1	2
415.721	1	0
416.916	1	1
418.111	1	14
419.305	1	12
420.500	1	6
421.695	1	15
422.889	1	6
424.084	1	9
425.278	1	0
426.472	1	7
427.667	1	3
428.861	1	14
430.055	1	4
431.250	1	5
432.444	1	6
433.638	1	5
434.832	1	-2
436.026	1	10
437.220	1	11
438.414	1	14
439.608	1	0
440.802	1	14
441.996	1	-9
443.190	1	8
444.384	1	10
445.578	1	3
446.771	1	9
447.965	1	6
449.159	1	1
450.352	1	4
451.546	1	-2
452.739	1	4
453.933	1	-9
455.126	1	0
456.320	1	2
457.513	1	3
458.706	1	8
459.899	1	-4
461.093	1	11
462.286	1	4
463.479	1	1
464.672	1	8
465.865	1	0
467.058	1	1
468.251	1	0
469.444	1	5
470.637	1	4
471.830	1	9
473.023	1	3
474.215	1	-1
475.408	1	2
476.601	1	-3
477.793	1	1
478.986	1	8
480.179	1	6
481.371	1	-1
482.564	1	4
483.756	1	9
484.948	1	8
486.141	1	5
487.333	1	0
488.525	1	-2
489.718	1	4
490.910	1	2
492.102	1	2
493.294	1	-7
494.486	1	11
495.678	1	0
496.870	1	-2
498.062	1	7
499.254	1	-1
500.446	1	-5
501.638	1	7
502.829	1	9
504.021	1	6
505.213	1	6
506.404	1	10
507.596	1	10
508.788	1	9
509.979	1	3
511.171	1	8
512.362	1	13
513.553	1	2
514.745	1	-2
515.936	1	3
517.127	1	17
518.319	1	-2
519.510	1	1
520.701	1	0
521.892	1	0
523.083	1	10
524.274	1	2
525.465	1	2
526.656	1	12
527.847	1	5
529.038	1	4
530.229	1	14
531.419	1	0
532.610	1	8
533.801	1	9
534.991	1	2
536.182	1	3
537.373	1	8
538.563	1	8
539.754	1	5
540.944	1	4
542.134	1	-5
543.325	1	9
544.515	1	8
545.705	1	8
546.896	1	3
548.086	1	8
549.276	1	4
550.466	1	10
551.656	1	13
552.846	1	6
554.036	1	14
555.226	1	12
556.416	1	15
557.606	1	1
558.796	1	2
559.986	1	15
561.175	1	-3
562.365	1	3
563.555	1	12
564.744	1	11
565.934	1	12
567.123	1	0
568.313	1	-2
569.502	1	2
570.692	1	1
571.881	1	-4
573.070	1	4
574.260	1	3
575.449	1	3
576.638	1	7
577.827	1	-7
579.016	1	2
580.205	1	5
581.394	1	7
582.583	1	3
583.772	1	17
584.961	1	-6
586.150	1	1
587.339	1	6
588.528	1	-1
589.717	1	5
590.905	1	-1
592.094	1	7
593.283	1	2
594.471	1	-2
595.660	1	-2
596.848	1	6
598.037	1	-3
599.225	1	5
600.413	1	0
601.602	1	7
602.790	1	3
603.978	1	-3
605.166	1	7
606.355	1	-12
607.543	1	1
608.731	1	-10
609.919	1	-11
611.107	1	12
612.295	1	-2
613.483	1	4
614.671	1	3
615.858	1	-10
617.046	1	8
618.234	1	3
619.422	1	12
620.609	1	-3
621.797	1	5
622.985	1	1
624.172	1	2
625.360	1	5
626.547	1	-5
627.735	1	5
628.922	1	10
630.109	1	-7
631.297	1	7
632.484	1	12
633.671	1	13
634.858	1	8
636.045	1	-5
637.232	1	1
638.419	1	-7
639.606	1	15
640.793	1	6
641.980	1	6
643.167	1	3
644.354	1	11
645.541	1	2
646.728	1	5
647.914	1	-1
649.101	1	0
650.288	1	10
651.474	1	12
652.661	1	3
653.847	1	0
655.034	1	-8
656.220	1	5
657.406	1	-2
658.593	1	4
659.779	1	6
660.965	1	12
662.152	1	-1
663.338	1	-12
664.524	1	7
665.710	1	3
666.896	1	9
668.082	1	0
669.268	1	-2
670.454	1	11
671.640	1	5
672.826	1	1
674.011	1	2
675.197	1	11
676.383	1	5
677.569	1	9
678.754	1	3
679.940	1	5
681.125	1	3
682.311	1	6
683.496	1	-5
684.682	1	8
685.867	1	2
687.053	1	15
688.238	1	0
688.746	1	3

File: GaN_sample D_spot15_UVVIS_150 K_200um_450 ms 2x2mm1_203.txt
340.368	1	-1
341.565	1	6
342.763	1	1
343.960	1	8
345.157	1	10
346.354	1	1
347.552	1	13
348.749	1	15
349.946	1	0
351.143	1	5
352.340	1	6
353.537	1	-1
354.734	1	5
355.931	1	12
357.127	1	10
358.324	1	15
359.521	1	10
360.718	1	10
361.914	1	11
363.111	1	5
364.308	1	19
365.504	1	24
366.701	1	17
367.897	1	26
369.093	1	31
370.290	1	26
371.486	1	20
372.682	1	14
373.879	1	20
375.075	1	5
376.271	1	10
377.467	1	21
378.663	1	4
379.859	1	15
381.055	1	8
382.251	1	4
383.447	1	6
384.643	1	-4
385.839	1	7
387.035	1	8
388.230	1	2
389.426	1	-3
390.622	1	-9
391.817	1	-12
393.013	1	12
394.208	1	-1
395.404	1	6
396.599	1	6
397.795	1	0
398.990	1	17
400.186	1	1
401.381	1	-5
402.576	1	8
403.771	1	-11
404.967	1	8
406.162	1	-4
407.357	1	2
408.552	1	1
409.747	1	-1
410.942	1	12
412.137	1	7
413.332	1	2
414.526	1	-1
415.721	1	12
416.916	1	-6
418.111	1	4
419.305	1	7
420.500	1	2
421.695	1	-1
422.889	1	3
424.084	1	11
425.278	1	2
426.472	1	13
427.667	1	1
428.861	1	6
430.055	1	15
431.250	1	12
432.444	1	9
433.638	1	13
434.832	1	-4
436.026	1	4
437.220	1	11
438.414	1	0
439.608	1	8
440.802	1	7
441.996	1	5
443.190	1	10
444.384	1	14
445.578	1	5
446.771	1	-2
447.965	1	7
449.159	1	-4
450.352	1	1
451.546	1	4
452.739	1	10
453.933	1	2
455.126	1	1
456.320	1	15
457.513	1	5
458.706	1	9
459.899	1	3
461.093	1	8
462.286	1	0
463.479	1	6
464.672	1	2
465.865	1	2
467.058	1	8
468.251	1	-4
469.444	1	2
470.637	1	-2
471.830	1	5
473.023	1	4
474.215	1	2
475.408	1	-2
476.601	1	3
477.793	1	2
478.986	1	5
480.179	1	6
481.371	1	-11
482.564	1	10
483.756	1	5
484.948	1	6
486.141	1	2
487.333	1	-7
488.525	1	-5
489.718	1	3
490.910	1	16
492.102	1	-1
493.294	1	-8
494.486	1	6
495.678	1	1
496.870	1	3
498.062	1	-1
499.254	1	1
500.446	1	-7
501.638	1	5
502.829	1	4
504.021	1	6
505.213	1	3
506.404	1	6
507.596	1	12
508.788	1	5
509.979	1	6
511.171	1	7
512.362	1	12
513.553	1	6
514.745	1	5
515.936	1	3
517.127	1	8
518.319	1	11
519.510	1	0
520.701	1	3
521.892	1	9
523.083	1	1
524.274	1	4
525.465	1	7
526.656	1	4
527.847	1	-3
529.038	1	9
530.229	1	13
531.419	1	2
532.610	1	5
533.801	1	5
534.991	1	10
536.182	1	10
537.373	1	4
538.563	1	5
539.754	1	14
540.944	1	7
542.134	1	11
543.325	1	6
544.515	1	12
545.705	1	12
546.896	1	10
548.086	1	2
549.276	1	2
550.466	1	5
551.656	1	9
552.846	1	5
554.036	1	10
555.226	1	5
556.416	1	11
557.606	1	-4
558.796	1	4
559.986	1	10
561.175	1	4
562.365	1	6
563.555	1	6
564.744	1	15
565.934	1	14
567.123	1	5
568.313	1	5
569.502	1	4
570.692	1	11
571.881	1	-4
573.070	1	-2
574.260	1	7
575.449	1	-5
576.638	1	7
577.827	1	1
579.016	1	-1
580.205	1	7
581.394	1	3
582.583	1	-1
583.772	1	9
584.961	1	4
586.150	1	3
587.339	1	13
588.528	1	-6
589.717	1	1
590.905	1	0
592.094	1	7
593.283	1	6
594.471	1	-5
595.660	1	7
596.848	1	8
598.037	1	-2
599.225	1	4
600.413	1	5
601.602	1	6
602.790	1	2
603.978	1	4
605.166	1	12
606.355	1	-13
607.543	1	7
608.731	1	1
609.919	1	-5
611.107	1	-1
612.295	1	5
613.483	1	6
614.671	1	-1
615.858	1	-9
617.046	1	6
618.234	1	-11
619.422	1	21
620.609	1	5
621.797	1	7
622.985	1	-7
624.172	1	-1
625.360	1	-1
626.547	1	-5
627.735	1	6
628.922	1	14
630.109	1	-8
631.297	1	0
632.484	1	5
633.671	1	3
634.858	1	8
636.045	1	0
637.232	1	7
638.419	1	-12
639.606	1	5
640.793	1	3
641.980	1	4
643.167	1	3
644.354	1	9
645.541	1	1
646.728	1	0
647.914	1	1
649.101	1	4
650.288	1	7
651.474	1	2
652.661	1	7
653.847	1	9
655.034	1	-3
656.220	1	10
657.406	1	-3
658.593	1	8
659.779	1	8
660.965	1	7
662.152	1	-8
663.338	1	-7
664.524	1	14
665.710	1	2
666.896	1	16
668.082	1	3
669.268	1	-4
670.454	1	5
671.640	1	-1
672.826	1	6
674.011	1	5
675.197	1	0
676.383	1	-8
677.569	1	8
678.754	1	4
679.940	1	-10
681.125	1	-1
682.311	1	6
683.496	1	6
684.682	1	7
685.867	1	-3
687.053	1	22
688.238	1	9
688.746	1	-7

File: GaN_sample D_spot15_UVVIS_150 K_200um_450 ms 2x2mm1_204.txt
340.368	1	3
341.565	1	5
342.763	1	6
343.960	1	7
345.157	1	16
346.354	1	-1
347.552	1	9
348.749	1	19
349.946	1	5
351.143	1	10
352.340	1	12
353.537	1	1
354.734	1	-5
355.931	1	2
357.127	1	6
358.324	1	1
359.521	1	12
360.718	1	-3
361.914	1	5
363.111	1	5
364.308	1	20
365.504	1	11
366.701	1	11
367.897	1	28
369.093	1	26
370.290	1	24
371.486	1	20
372.682	1	16
373.879	1	18
375.075	1	-6
376.271	1	7
377.467	1	13
378.663	1	5
379.859	1	7
381.055	1	6
382.251	1	1
383.447	1	6
384.643	1	4
385.839	1	1
387.035	1	7
388.230	1	5
389.426	1	2
390.622	1	-10
391.817	1	-1
393.013	1	8
394.208	1	1
395.404	1	2
396.599	1	11
397.795	1	1
398.990	1	9
400.186	1	6
401.381	1	5
402.576	1	15
403.771	1	-10
404.967	1	1
406.162	1	5
407.357	1	6
408.552	1	2
409.747	1	2
410.942	1	11
412.137	1	5
413.332	1	4
414.526	1	-3
415.721	1	6
416.916	1	2
418.111	1	4
419.305	1	12
420.500	1	6
421.695	1	14
422.889	1	6
424.084	1	-3
425.278	1	-1
426.472	1	15
427.667	1	-2
428.861	1	14
430.055	1	8
431.250	1	14
432.444	1	7
433.638	1	16
434.832	1	10
436.026	1	1
437.220	1	14
438.414	1	16
439.608	1	-4
440.802	1	6
441.996	1	-1
443.190	1	1
444.384	1	5
445.578	1	-1
446.771	1	9
447.965	1	11
449.159	1	-1
450.352	1	2
451.546	1	2
452.739	1	14
453.933	1	-1
455.126	1	6
456.320	1	15
457.513	1	9
458.706	1	3
459.899	1	1
461.093	1	10
462.286	1	-3
463.479	1	1
464.672	1	8
465.865	1	10
467.058	1	6
468.251	1	-6
469.444	1	7
470.637	1	6
471.830	1	9
473.023	1	5
474.215	1	2
475.408	1	4
476.601	1	4
477.793	1	-1
478.986	1	2
480.179	1	8
481.371	1	1
482.564	1	5
483.756	1	11
484.948	1	-1
486.141	1	3
487.333	1	-2
488.525	1	-5
489.718	1	-8
490.910	1	-2
492.102	1	3
493.294	1	-9
494.486	1	3
495.678	1	5
496.870	1	6
498.062	1	1
499.254	1	-1
500.446	1	-2
501.638	1	14
502.829	1	-3
504.021	1	4
505.213	1	2
506.404	1	2
507.596	1	13
508.788	1	-2
509.979	1	2
511.171	1	0
512.362	1	9
513.553	1	13
514.745	1	3
515.936	1	4
517.127	1	8
518.319	1	2
519.510	1	7
520.701	1	10
521.892	1	11
523.083	1	9
524.274	1	7
525.465	1	12
526.656	1	10
527.847	1	-1
529.038	1	7
530.229	1	14
531.419	1	12
532.610	1	11
533.801	1	5
534.991	1	4
536.182	1	7
537.373	1	9
538.563	1	1
539.754	1	1
540.944	1	10
542.134	1	2
543.325	1	17
544.515	1	9
545.705	1	5
546.896	1	9
548.086	1	16
549.276	1	9
550.466	1	2
551.656	1	1
552.846	1	10
554.036	1	11
555.226	1	-5
556.416	1	6
557.606	1	-12
558.796	1	10
559.986	1	3
561.175	1	9
562.365	1	3
563.555	1	12
564.744	1	9
565.934	1	13
567.123	1	9
568.313	1	0
569.502	1	8
570.692	1	10
571.881	1	3
573.070	1	3
574.260	1	12
575.449	1	6
576.638	1	12
577.827	1	7
579.016	1	5
580.205	1	4
581.394	1	8
582.583	1	5
583.772	1	7
584.961	1	-1
586.150	1	7
587.339	1	6
588.528	1	-11
589.717	1	10
590.905	1	-3
592.094	1	9
593.283	1	6
594.471	1	-5
595.660	1	1
596.848	1	6
598.037	1	-1
599.225	1	-1
600.413	1	7
601.602	1	7
602.790	1	8
603.978	1	7
605.166	1	8
606.355	1	-5
607.543	1	8
608.731	1	-11
609.919	1	-3
611.107	1	9
612.295	1	1
613.483	1	3
614.671	1	3
615.858	1	-9
617.046	1	-2
618.234	1	-2
619.422	1	18
620.609	1	8
621.797	1	9
622.985	1	4
624.172	1	3
625.360	1	1
626.547	1	-4
627.735	1	5
628.922	1	11
630.109	1	-4
631.297	1	14
632.484	1	4
633.671	1	9
634.858	1	7
636.045	1	-1
637.232	1	1
638.419	1	2
639.606	1	5
640.793	1	2
641.980	1	6
643.167	1	5
644.354	1	11
645.541	1	2
646.728	1	6
647.914	1	10
649.101	1	11
650.288	1	5
651.474	1	10
652.661	1	13
653.847	1	0
655.034	1	-1
656.220	1	-4
657.406	1	-3
658.593	1	3
659.779	1	14
660.965	1	0
662.152	1	4
663.338	1	1
664.524	1	9
665.710	1	11
666.896	1	10
668.082	1	6
669.268	1	0
670.454	1	7
671.640	1	16
672.826	1	-4
674.011	1	4
675.197	1	11
676.383	1	7
677.569	1	11
678.754	1	-2
679.940	1	3
681.125	1	1
682.311	1	4
683.496	1	2
684.682	1	8
685.867	1	2
687.053	1	20
688.238	1	8
688.746	1	6

File: GaN_sample D_spot15_UVVIS_150 K_200um_450 ms 2x2mm1_205.txt
340.368	1	5
341.565	1	2
342.763	1	8
343.960	1	11
345.157	1	11
346.354	1	-1
347.552	1	17
348.749	1	19
349.946	1	3
351.143	1	0
352.340	1	3
353.537	1	-1
354.734	1	4
355.931	1	12
357.127	1	11
358.324	1	12
359.521	1	14
360.718	1	7
361.914	1	8
363.111	1	2
364.308	1	14
365.504	1	8
366.701	1	13
367.897	1	27
369.093	1	19
370.290	1	21
371.486	1	26
372.682	1	17
373.879	1	8
375.075	1	-5
376.271	1	11
377.467	1	23
378.663	1	7
379.859	1	11
381.055	1	4
382.251	1	-3
383.447	1	3
384.643	1	1
385.839	1	2
387.035	1	3
388.230	1	3
389.426	1	1
390.622	1	-2
391.817	1	2
393.013	1	20
394.208	1	1
395.404	1	12
396.599	1	11
397.795	1	3
398.990	1	7
400.186	1	1
401.381	1	3
402.576	1	1
403.771	1	-3
404.967	1	4
406.162	1	-5
407.357	1	4
408.552	1	6
409.747	1	4
410.942	1	9
412.137	1	4
413.332	1	14
414.526	1	-2
415.721	1	5
416.916	1	-3
418.111	1	7
419.305	1	14
420.500	1	5
421.695	1	7
422.889	1	3
424.084	1	7
425.278	1	7
426.472	1	18
427.667	1	10
428.861	1	11
430.055	1	5
431.250	1	11
432.444	1	6
433.638	1	8
434.832	1	0
436.026	1	7
437.220	1	12
438.414	1	17
439.608	1	3
440.802	1	7
441.996	1	8
443.190	1	0
444.384	1	3
445.578	1	4
446.771	1	4
447.965	1	8
449.159	1	-2
450.352	1	-3
451.546	1	4
452.739	1	8
453.933	1	-2
455.126	1	6
456.320	1	12
457.513	1	2
458.706	1	13
459.899	1	3
461.093	1	2
462.286	1	3
463.479	1	5
464.672	1	5
465.865	1	-6
467.058	1	10
468.251	1	-5
469.444	1	-1
470.637	1	-1
471.830	1	4
473.023	1	4
474.215	1	3
475.408	1	6
476.601	1	2
477.793	1	5
478.986	1	11
480.179	1	10
481.371	1	-8
482.564	1	6
483.756	1	12
484.948	1	-3
486.141	1	13
487.333	1	-1
488.525	1	-2
489.718	1	-4
490.910	1	5
492.102	1	2
493.294	1	3
494.486	1	4
495.678	1	5
496.870	1	2
498.062	1	-6
499.254	1	-6
500.446	1	1
501.638	1	5
502.829	1	1
504.021	1	4
505.213	1	-3
506.404	1	-7
507.596	1	9
508.788	1	5
509.979	1	-1
511.171	1	-1
512.362	1	16
513.553	1	6
514.745	1	2
515.936	1	4
517.127	1	17
518.319	1	1
519.510	1	-6
520.701	1	13
521.892	1	2
523.083	1	-5
524.274	1	12
525.465	1	8
526.656	1	11
527.847	1	7
529.038	1	3
530.229	1	8
531.419	1	5
532.610	1	18
533.801	1	-2
534.991	1	5
536.182	1	9
537.373	1	10
538.563	1	4
539.754	1	0
540.944	1	2
542.134	1	8
543.325	1	8
544.515	1	7
545.705	1	11
546.896	1	5
548.086	1	8
549.276	1	11
550.466	1	1
551.656	1	3
552.846	1	16
554.036	1	13
555.226	1	7
556.416	1	10
557.606	1	-12
558.796	1	17
559.986	1	3
561.175	1	-3
562.365	1	-6
563.555	1	15
564.744	1	7
565.934	1	21
567.123	1	4
568.313	1	3
569.502	1	8
570.692	1	3
571.881	1	-8
573.070	1	8
574.260	1	4
575.449	1	6
576.638	1	10
577.827	1	-4
579.016	1	4
580.205	1	4
581.394	1	2
582.583	1	12
583.772	1	4
584.961	1	-13
586.150	1	14
587.339	1	-3
588.528	1	6
589.717	1	6
590.905	1	-4
592.094	1	1
593.283	1	3
594.471	1	-11
595.660	1	6
596.848	1	12
598.037	1	4
599.225	1	-1
600.413	1	5
601.602	1	4
602.790	1	7
603.978	1	2
605.166	1	4
606.355	1	-5
607.543	1	5
608.731	1	4
609.919	1	-8
611.107	1	16
612.295	1	15
613.483	1	1
614.671	1	3
615.858	1	-8
617.046	1	0
618.234	1	-2
619.422	1	5
620.609	1	6
621.797	1	17
622.985	1	0
624.172	1	11
625.360	1	5
626.547	1	-5
627.735	1	-2
628.922	1	2
630.109	1	0
631.297	1	4
632.484	1	7
633.671	1	13
634.858	1	11
636.045	1	2
637.232	1	5
638.419	1	0
639.606	1	8
640.793	1	2
641.980	1	8
643.167	1	-2
644.354	1	8
645.541	1	4
646.728	1	6
647.914	1	0
649.101	1	2
650.288	1	6
651.474	1	9
652.661	1	12
653.847	1	7
655.034	1	6
656.220	1	10
657.406	1	-9
658.593	1	4
659.779	1	0
660.965	1	0
662.152	1	8
663.338	1	3
664.524	1	11
665.710	1	9
666.896	1	11
668.082	1	8
669.268	1	5
670.454	1	2
671.640	1	19
672.826	1	11
674.011	1	-5
675.197	1	4
676.383	1	9
677.569	1	7
678.754	1	-2
679.940	1	-5
681.125	1	4
682.311	1	0
683.496	1	-8
684.682	1	10
685.867	1	6
687.053	1	20
688.238	1	4
688.746	1	2