Folder: cryo-il_analysis/Data/GaN_200K_800ms (part 37)

File: GaN_sample F_spot 12_UVVIS_200 K_200um_800 ms 2x2mm1_404.txt
340.368	1	2
341.565	1	-12
342.763	1	1
343.960	1	15
345.157	1	-8
346.354	1	-3
347.552	1	-11
348.749	1	-13
349.946	1	-4
351.143	1	2
352.340	1	1
353.537	1	-1
354.734	1	0
355.931	1	-8
357.127	1	3
358.324	1	6
359.521	1	4
360.718	1	4
361.914	1	1
363.111	1	1
364.308	1	9
365.504	1	14
366.701	1	0
367.897	1	12
369.093	1	13
370.290	1	15
371.486	1	9
372.682	1	-1
373.879	1	9
375.075	1	7
376.271	1	11
377.467	1	-4
378.663	1	0
379.859	1	-2
381.055	1	10
382.251	1	-3
383.447	1	-4
384.643	1	4
385.839	1	4
387.035	1	-2
388.230	1	11
389.426	1	-1
390.622	1	-6
391.817	1	-5
393.013	1	-2
394.208	1	3
395.404	1	-9
396.599	1	0
397.795	1	3
398.990	1	2
400.186	1	3
401.381	1	-5
402.576	1	-5
403.771	1	3
404.967	1	0
406.162	1	1
407.357	1	-3
408.552	1	3
409.747	1	-3
410.942	1	6
412.137	1	1
413.332	1	-4
414.526	1	1
415.721	1	-1
416.916	1	-5
418.111	1	8
419.305	1	0
420.500	1	-7
421.695	1	-3
422.889	1	-8
424.084	1	4
425.278	1	10
426.472	1	-2
427.667	1	5
428.861	1	-6
430.055	1	-3
431.250	1	-7
432.444	1	-3
433.638	1	-2
434.832	1	0
436.026	1	5
437.220	1	-3
438.414	1	-15
439.608	1	-9
440.802	1	3
441.996	1	8
443.190	1	-1
444.384	1	-10
445.578	1	-10
446.771	1	3
447.965	1	-2
449.159	1	-4
450.352	1	-2
451.546	1	1
452.739	1	4
453.933	1	-2
455.126	1	-3
456.320	1	-9
457.513	1	-3
458.706	1	-3
459.899	1	4
461.093	1	-6
462.286	1	4
463.479	1	-7
464.672	1	-3
465.865	1	-4
467.058	1	-2
468.251	1	-7
469.444	1	-4
470.637	1	2
471.830	1	-10
473.023	1	3
474.215	1	9
475.408	1	-1
476.601	1	-3
477.793	1	-2
478.986	1	1
480.179	1	1
481.371	1	0
482.564	1	5
483.756	1	10
484.948	1	-3
486.141	1	-8
487.333	1	-6
488.525	1	-4
489.718	1	-5
490.910	1	-2
492.102	1	-7
493.294	1	-5
494.486	1	7
495.678	1	-4
496.870	1	6
498.062	1	-1
499.254	1	6
500.446	1	-8
501.638	1	3
502.829	1	0
504.021	1	-7
505.213	1	11
506.404	1	6
507.596	1	3
508.788	1	19
509.979	1	-5
511.171	1	-1
512.362	1	-7
513.553	1	-10
514.745	1	-4
515.936	1	-9
517.127	1	-3
518.319	1	2
519.510	1	-6
520.701	1	0
521.892	1	-4
523.083	1	-3
524.274	1	0
525.465	1	9
526.656	1	3
527.847	1	1
529.038	1	-4
530.229	1	2
531.419	1	-1
532.610	1	-4
533.801	1	12
534.991	1	1
536.182	1	-8
537.373	1	1
538.563	1	3
539.754	1	-1
540.944	1	-7
542.134	1	7
543.325	1	-8
544.515	1	-4
545.705	1	-6
546.896	1	-4
548.086	1	0
549.276	1	-6
550.466	1	-1
551.656	1	2
552.846	1	3
554.036	1	-1
555.226	1	-6
556.416	1	-8
557.606	1	8
558.796	1	12
559.986	1	0
561.175	1	10
562.365	1	9
563.555	1	3
564.744	1	0
565.934	1	5
567.123	1	3
568.313	1	7
569.502	1	1
570.692	1	13
571.881	1	4
573.070	1	0
574.260	1	1
575.449	1	-6
576.638	1	-4
577.827	1	-8
579.016	1	9
580.205	1	1
581.394	1	-8
582.583	1	7
583.772	1	10
584.961	1	-5
586.150	1	0
587.339	1	-7
588.528	1	1
589.717	1	1
590.905	1	-8
592.094	1	2
593.283	1	3
594.471	1	4
595.660	1	1
596.848	1	2
598.037	1	0
599.225	1	-10
600.413	1	6
601.602	1	15
602.790	1	2
603.978	1	-6
605.166	1	1
606.355	1	4
607.543	1	-3
608.731	1	6
609.919	1	10
611.107	1	-7
612.295	1	-7
613.483	1	7
614.671	1	6
615.858	1	1
617.046	1	1
618.234	1	-2
619.422	1	-17
620.609	1	12
621.797	1	-3
622.985	1	7
624.172	1	-4
625.360	1	-1
626.547	1	-3
627.735	1	-2
628.922	1	5
630.109	1	-11
631.297	1	3
632.484	1	-5
633.671	1	0
634.858	1	-6
636.045	1	13
637.232	1	-5
638.419	1	-11
639.606	1	2
640.793	1	7
641.980	1	3
643.167	1	-5
644.354	1	-4
645.541	1	1
646.728	1	0
647.914	1	-3
649.101	1	-2
650.288	1	10
651.474	1	-2
652.661	1	-8
653.847	1	6
655.034	1	-2
656.220	1	-3
657.406	1	0
658.593	1	3
659.779	1	5
660.965	1	-3
662.152	1	-3
663.338	1	6
664.524	1	-5
665.710	1	8
666.896	1	-1
668.082	1	9
669.268	1	-3
670.454	1	-1
671.640	1	0
672.826	1	-2
674.011	1	-3
675.197	1	-11
676.383	1	0
677.569	1	-9
678.754	1	-3
679.940	1	0
681.125	1	5
682.311	1	2
683.496	1	9
684.682	1	-11
685.867	1	1
687.053	1	3
688.238	1	0
688.746	1	-6

File: GaN_sample F_spot 12_UVVIS_200 K_200um_800 ms 2x2mm1_406.txt
340.368	1	7
341.565	1	-5
342.763	1	9
343.960	1	3
345.157	1	-7
346.354	1	-2
347.552	1	-13
348.749	1	-5
349.946	1	-6
351.143	1	2
352.340	1	-2
353.537	1	-6
354.734	1	0
355.931	1	-1
357.127	1	-3
358.324	1	0
359.521	1	7
360.718	1	-5
361.914	1	13
363.111	1	-2
364.308	1	5
365.504	1	17
366.701	1	10
367.897	1	4
369.093	1	3
370.290	1	16
371.486	1	17
372.682	1	17
373.879	1	4
375.075	1	3
376.271	1	9
377.467	1	8
378.663	1	-1
379.859	1	8
381.055	1	12
382.251	1	-4
383.447	1	4
384.643	1	5
385.839	1	-4
387.035	1	3
388.230	1	15
389.426	1	-1
390.622	1	-1
391.817	1	3
393.013	1	-2
394.208	1	-4
395.404	1	-9
396.599	1	-10
397.795	1	-4
398.990	1	-3
400.186	1	-4
401.381	1	-6
402.576	1	1
403.771	1	8
404.967	1	8
406.162	1	5
407.357	1	-3
408.552	1	-1
409.747	1	-5
410.942	1	2
412.137	1	-2
413.332	1	8
414.526	1	-1
415.721	1	-1
416.916	1	2
418.111	1	-5
419.305	1	-2
420.500	1	0
421.695	1	-2
422.889	1	-3
424.084	1	-1
425.278	1	10
426.472	1	9
427.667	1	4
428.861	1	-5
430.055	1	-3
431.250	1	2
432.444	1	11
433.638	1	-1
434.832	1	2
436.026	1	-5
437.220	1	3
438.414	1	-1
439.608	1	-12
440.802	1	-8
441.996	1	-3
443.190	1	-1
444.384	1	-7
445.578	1	-10
446.771	1	6
447.965	1	-4
449.159	1	-9
450.352	1	-2
451.546	1	2
452.739	1	4
453.933	1	-2
455.126	1	-7
456.320	1	-5
457.513	1	3
458.706	1	-3
459.899	1	-2
461.093	1	-3
462.286	1	4
463.479	1	-3
464.672	1	1
465.865	1	-3
467.058	1	0
468.251	1	1
469.444	1	1
470.637	1	8
471.830	1	-3
473.023	1	1
474.215	1	3
475.408	1	1
476.601	1	2
477.793	1	-3
478.986	1	-1
480.179	1	-3
481.371	1	1
482.564	1	3
483.756	1	3
484.948	1	-2
486.141	1	-2
487.333	1	-3
488.525	1	-3
489.718	1	-1
490.910	1	-5
492.102	1	-4
493.294	1	1
494.486	1	-1
495.678	1	-3
496.870	1	2
498.062	1	-3
499.254	1	-4
500.446	1	-10
501.638	1	-9
502.829	1	-8
504.021	1	-2
505.213	1	-1
506.404	1	7
507.596	1	5
508.788	1	15
509.979	1	-6
511.171	1	5
512.362	1	1
513.553	1	-15
514.745	1	-4
515.936	1	-1
517.127	1	-5
518.319	1	-4
519.510	1	-1
520.701	1	5
521.892	1	4
523.083	1	1
524.274	1	1
525.465	1	6
526.656	1	-5
527.847	1	3
529.038	1	0
530.229	1	11
531.419	1	9
532.610	1	0
533.801	1	14
534.991	1	-2
536.182	1	0
537.373	1	8
538.563	1	-1
539.754	1	2
540.944	1	-3
542.134	1	-3
543.325	1	5
544.515	1	1
545.705	1	0
546.896	1	-2
548.086	1	-4
549.276	1	-8
550.466	1	-1
551.656	1	5
552.846	1	5
554.036	1	-2
555.226	1	-9
556.416	1	-5
557.606	1	2
558.796	1	-1
559.986	1	2
561.175	1	0
562.365	1	5
563.555	1	6
564.744	1	3
565.934	1	11
567.123	1	2
568.313	1	7
569.502	1	0
570.692	1	0
571.881	1	17
573.070	1	4
574.260	1	8
575.449	1	5
576.638	1	-4
577.827	1	4
579.016	1	14
580.205	1	-6
581.394	1	5
582.583	1	11
583.772	1	13
584.961	1	9
586.150	1	-7
587.339	1	-5
588.528	1	5
589.717	1	2
590.905	1	3
592.094	1	2
593.283	1	6
594.471	1	7
595.660	1	-2
596.848	1	-1
598.037	1	3
599.225	1	-6
600.413	1	8
601.602	1	8
602.790	1	-2
603.978	1	-1
605.166	1	-1
606.355	1	8
607.543	1	-8
608.731	1	5
609.919	1	13
611.107	1	-5
612.295	1	-2
613.483	1	0
614.671	1	-1
615.858	1	7
617.046	1	0
618.234	1	-2
619.422	1	-5
620.609	1	1
621.797	1	-7
622.985	1	1
624.172	1	2
625.360	1	2
626.547	1	6
627.735	1	8
628.922	1	1
630.109	1	-7
631.297	1	-3
632.484	1	1
633.671	1	-3
634.858	1	-4
636.045	1	13
637.232	1	-6
638.419	1	-1
639.606	1	6
640.793	1	10
641.980	1	12
643.167	1	-7
644.354	1	2
645.541	1	-8
646.728	1	8
647.914	1	-7
649.101	1	-9
650.288	1	-1
651.474	1	0
652.661	1	-11
653.847	1	4
655.034	1	4
656.220	1	-6
657.406	1	2
658.593	1	0
659.779	1	0
660.965	1	6
662.152	1	6
663.338	1	4
664.524	1	5
665.710	1	3
666.896	1	-13
668.082	1	6
669.268	1	-2
670.454	1	-2
671.640	1	0
672.826	1	0
674.011	1	2
675.197	1	-9
676.383	1	-3
677.569	1	-3
678.754	1	-11
679.940	1	-4
681.125	1	5
682.311	1	-2
683.496	1	6
684.682	1	-14
685.867	1	2
687.053	1	-6
688.238	1	4
688.746	1	2

File: GaN_sample F_spot 12_UVVIS_200 K_200um_800 ms 2x2mm1_408.txt
340.368	1	5
341.565	1	-8
342.763	1	4
343.960	1	-1
345.157	1	-11
346.354	1	-2
347.552	1	-7
348.749	1	-8
349.946	1	-10
351.143	1	-6
352.340	1	0
353.537	1	-6
354.734	1	7
355.931	1	-3
357.127	1	6
358.324	1	-4
359.521	1	5
360.718	1	5
361.914	1	4
363.111	1	-8
364.308	1	0
365.504	1	9
366.701	1	3
367.897	1	2
369.093	1	7
370.290	1	8
371.486	1	18
372.682	1	10
373.879	1	0
375.075	1	10
376.271	1	21
377.467	1	-4
378.663	1	-3
379.859	1	4
381.055	1	7
382.251	1	-1
383.447	1	1
384.643	1	23
385.839	1	4
387.035	1	-2
388.230	1	-3
389.426	1	-4
390.622	1	-8
391.817	1	3
393.013	1	-1
394.208	1	2
395.404	1	-2
396.599	1	-5
397.795	1	-2
398.990	1	-3
400.186	1	-10
401.381	1	-7
402.576	1	-1
403.771	1	-3
404.967	1	3
406.162	1	3
407.357	1	-4
408.552	1	-2
409.747	1	-2
410.942	1	2
412.137	1	1
413.332	1	0
414.526	1	-2
415.721	1	-1
416.916	1	-11
418.111	1	4
419.305	1	3
420.500	1	-6
421.695	1	-14
422.889	1	-8
424.084	1	3
425.278	1	12
426.472	1	6
427.667	1	3
428.861	1	1
430.055	1	2
431.250	1	-3
432.444	1	6
433.638	1	0
434.832	1	5
436.026	1	5
437.220	1	8
438.414	1	-9
439.608	1	-7
440.802	1	-2
441.996	1	-2
443.190	1	1
444.384	1	-15
445.578	1	-3
446.771	1	11
447.965	1	1
449.159	1	-11
450.352	1	0
451.546	1	5
452.739	1	4
453.933	1	-2
455.126	1	-4
456.320	1	-1
457.513	1	4
458.706	1	1
459.899	1	2
461.093	1	0
462.286	1	-2
463.479	1	3
464.672	1	-3
465.865	1	-7
467.058	1	7
468.251	1	-6
469.444	1	-7
470.637	1	1
471.830	1	-1
473.023	1	-3
474.215	1	-2
475.408	1	-4
476.601	1	-3
477.793	1	0
478.986	1	-4
480.179	1	-7
481.371	1	-1
482.564	1	-4
483.756	1	-2
484.948	1	-5
486.141	1	2
487.333	1	5
488.525	1	-6
489.718	1	4
490.910	1	-1
492.102	1	-4
493.294	1	-7
494.486	1	8
495.678	1	-7
496.870	1	0
498.062	1	-1
499.254	1	-7
500.446	1	-4
501.638	1	-3
502.829	1	2
504.021	1	0
505.213	1	1
506.404	1	5
507.596	1	2
508.788	1	16
509.979	1	-3
511.171	1	-5
512.362	1	-7
513.553	1	-7
514.745	1	4
515.936	1	-4
517.127	1	-3
518.319	1	0
519.510	1	-7
520.701	1	3
521.892	1	-1
523.083	1	-6
524.274	1	-3
525.465	1	5
526.656	1	9
527.847	1	0
529.038	1	2
530.229	1	5
531.419	1	-6
532.610	1	-2
533.801	1	12
534.991	1	0
536.182	1	-4
537.373	1	7
538.563	1	6
539.754	1	0
540.944	1	-5
542.134	1	3
543.325	1	-5
544.515	1	-5
545.705	1	-3
546.896	1	-2
548.086	1	-2
549.276	1	4
550.466	1	-4
551.656	1	1
552.846	1	-2
554.036	1	-6
555.226	1	-3
556.416	1	-5
557.606	1	2
558.796	1	-1
559.986	1	-4
561.175	1	11
562.365	1	4
563.555	1	-9
564.744	1	-4
565.934	1	2
567.123	1	5
568.313	1	2
569.502	1	-3
570.692	1	7
571.881	1	13
573.070	1	2
574.260	1	14
575.449	1	-7
576.638	1	-6
577.827	1	-3
579.016	1	8
580.205	1	-4
581.394	1	-7
582.583	1	10
583.772	1	8
584.961	1	-5
586.150	1	-10
587.339	1	2
588.528	1	1
589.717	1	-3
590.905	1	-5
592.094	1	-1
593.283	1	-10
594.471	1	2
595.660	1	4
596.848	1	-1
598.037	1	-1
599.225	1	-12
600.413	1	13
601.602	1	13
602.790	1	4
603.978	1	-7
605.166	1	-2
606.355	1	-1
607.543	1	0
608.731	1	0
609.919	1	1
611.107	1	-1
612.295	1	-1
613.483	1	-4
614.671	1	-5
615.858	1	-3
617.046	1	5
618.234	1	-2
619.422	1	-14
620.609	1	-3
621.797	1	2
622.985	1	-9
624.172	1	3
625.360	1	-2
626.547	1	-2
627.735	1	2
628.922	1	2
630.109	1	-9
631.297	1	-2
632.484	1	2
633.671	1	-7
634.858	1	-8
636.045	1	4
637.232	1	-8
638.419	1	-7
639.606	1	11
640.793	1	12
641.980	1	4
643.167	1	-8
644.354	1	-4
645.541	1	9
646.728	1	2
647.914	1	-1
649.101	1	-5
650.288	1	-4
651.474	1	-7
652.661	1	-7
653.847	1	6
655.034	1	0
656.220	1	-8
657.406	1	6
658.593	1	3
659.779	1	7
660.965	1	6
662.152	1	5
663.338	1	3
664.524	1	-8
665.710	1	-5
666.896	1	1
668.082	1	-1
669.268	1	-3
670.454	1	5
671.640	1	3
672.826	1	-4
674.011	1	0
675.197	1	-8
676.383	1	-2
677.569	1	-4
678.754	1	-8
679.940	1	-7
681.125	1	0
682.311	1	5
683.496	1	7
684.682	1	-6
685.867	1	1
687.053	1	-6
688.238	1	7
688.746	1	0

File: GaN_sample F_spot 12_UVVIS_200 K_200um_800 ms 2x2mm1_410.txt
340.368	1	5
341.565	1	-8
342.763	1	6
343.960	1	-3
345.157	1	-13
346.354	1	-1
347.552	1	-1
348.749	1	-5
349.946	1	-8
351.143	1	5
352.340	1	7
353.537	1	-6
354.734	1	-4
355.931	1	6
357.127	1	-1
358.324	1	-7
359.521	1	13
360.718	1	4
361.914	1	-3
363.111	1	7
364.308	1	0
365.504	1	10
366.701	1	13
367.897	1	7
369.093	1	-3
370.290	1	5
371.486	1	13
372.682	1	8
373.879	1	7
375.075	1	-2
376.271	1	6
377.467	1	-1
378.663	1	-3
379.859	1	-3
381.055	1	9
382.251	1	-8
383.447	1	-2
384.643	1	15
385.839	1	2
387.035	1	7
388.230	1	7
389.426	1	7
390.622	1	-2
391.817	1	2
393.013	1	-8
394.208	1	3
395.404	1	-2
396.599	1	-4
397.795	1	-4
398.990	1	4
400.186	1	-4
401.381	1	-3
402.576	1	-2
403.771	1	0
404.967	1	3
406.162	1	10
407.357	1	-6
408.552	1	-11
409.747	1	-5
410.942	1	12
412.137	1	0
413.332	1	-2
414.526	1	-2
415.721	1	-6
416.916	1	-7
418.111	1	-6
419.305	1	-4
420.500	1	-7
421.695	1	-4
422.889	1	-12
424.084	1	-2
425.278	1	7
426.472	1	6
427.667	1	10
428.861	1	-6
430.055	1	-2
431.250	1	2
432.444	1	6
433.638	1	-6
434.832	1	4
436.026	1	5
437.220	1	0
438.414	1	-6
439.608	1	-6
440.802	1	-11
441.996	1	9
443.190	1	3
444.384	1	-4
445.578	1	-5
446.771	1	0
447.965	1	-6
449.159	1	-7
450.352	1	2
451.546	1	-2
452.739	1	-1
453.933	1	-11
455.126	1	-6
456.320	1	-5
457.513	1	0
458.706	1	11
459.899	1	-4
461.093	1	-2
462.286	1	-2
463.479	1	-8
464.672	1	-3
465.865	1	-9
467.058	1	-5
468.251	1	5
469.444	1	-7
470.637	1	-7
471.830	1	-4
473.023	1	-3
474.215	1	7
475.408	1	-3
476.601	1	-10
477.793	1	-11
478.986	1	-5
480.179	1	4
481.371	1	1
482.564	1	-1
483.756	1	3
484.948	1	-4
486.141	1	1
487.333	1	-4
488.525	1	-3
489.718	1	0
490.910	1	-2
492.102	1	-17
493.294	1	-6
494.486	1	6
495.678	1	0
496.870	1	3
498.062	1	-5
499.254	1	3
500.446	1	-11
501.638	1	-3
502.829	1	-3
504.021	1	-7
505.213	1	4
506.404	1	5
507.596	1	-2
508.788	1	6
509.979	1	-14
511.171	1	-12
512.362	1	-5
513.553	1	3
514.745	1	3
515.936	1	0
517.127	1	-6
518.319	1	-2
519.510	1	4
520.701	1	4
521.892	1	2
523.083	1	-5
524.274	1	2
525.465	1	2
526.656	1	-2
527.847	1	-3
529.038	1	0
530.229	1	-2
531.419	1	-1
532.610	1	-6
533.801	1	12
534.991	1	7
536.182	1	0
537.373	1	0
538.563	1	2
539.754	1	2
540.944	1	4
542.134	1	5
543.325	1	2
544.515	1	-2
545.705	1	-7
546.896	1	-7
548.086	1	8
549.276	1	-1
550.466	1	4
551.656	1	-1
552.846	1	-3
554.036	1	-3
555.226	1	-6
556.416	1	-3
557.606	1	3
558.796	1	-1
559.986	1	-2
561.175	1	-1
562.365	1	-3
563.555	1	-13
564.744	1	13
565.934	1	10
567.123	1	4
568.313	1	-1
569.502	1	2
570.692	1	5
571.881	1	14
573.070	1	-3
574.260	1	11
575.449	1	1
576.638	1	-8
577.827	1	-3
579.016	1	8
580.205	1	3
581.394	1	-1
582.583	1	15
583.772	1	12
584.961	1	1
586.150	1	-1
587.339	1	6
588.528	1	3
589.717	1	6
590.905	1	-1
592.094	1	-2
593.283	1	-7
594.471	1	5
595.660	1	7
596.848	1	-3
598.037	1	2
599.225	1	0
600.413	1	10
601.602	1	6
602.790	1	-3
603.978	1	4
605.166	1	0
606.355	1	1
607.543	1	2
608.731	1	-1
609.919	1	4
611.107	1	3
612.295	1	-1
613.483	1	3
614.671	1	3
615.858	1	6
617.046	1	2
618.234	1	3
619.422	1	-12
620.609	1	3
621.797	1	0
622.985	1	3
624.172	1	-5
625.360	1	-3
626.547	1	-1
627.735	1	-4
628.922	1	6
630.109	1	-9
631.297	1	-2
632.484	1	-6
633.671	1	-12
634.858	1	-3
636.045	1	4
637.232	1	-12
638.419	1	2
639.606	1	4
640.793	1	3
641.980	1	2
643.167	1	-3
644.354	1	4
645.541	1	0
646.728	1	0
647.914	1	-10
649.101	1	-4
650.288	1	-1
651.474	1	-7
652.661	1	-11
653.847	1	-6
655.034	1	4
656.220	1	-10
657.406	1	9
658.593	1	1
659.779	1	1
660.965	1	4
662.152	1	-1
663.338	1	4
664.524	1	4
665.710	1	3
666.896	1	4
668.082	1	-1
669.268	1	-3
670.454	1	1
671.640	1	8
672.826	1	0
674.011	1	2
675.197	1	-10
676.383	1	-4
677.569	1	3
678.754	1	-3
679.940	1	-7
681.125	1	-2
682.311	1	-3
683.496	1	6
684.682	1	-16
685.867	1	-6
687.053	1	-1
688.238	1	6
688.746	1	-4

File: GaN_sample F_spot 12_UVVIS_200 K_200um_800 ms 2x2mm1_415.txt
340.368	1	-2
341.565	1	-4
342.763	1	1
343.960	1	6
345.157	1	-8
346.354	1	6
347.552	1	-8
348.749	1	-4
349.946	1	-7
351.143	1	-4
352.340	1	-4
353.537	1	-4
354.734	1	-1
355.931	1	-8
357.127	1	-5
358.324	1	-3
359.521	1	-4
360.718	1	9
361.914	1	4
363.111	1	-4
364.308	1	-5
365.504	1	8
366.701	1	11
367.897	1	17
369.093	1	6
370.290	1	10
371.486	1	21
372.682	1	18
373.879	1	-2
375.075	1	2
376.271	1	12
377.467	1	-1
378.663	1	-1
379.859	1	-4
381.055	1	6
382.251	1	-5
383.447	1	1
384.643	1	3
385.839	1	-4
387.035	1	-4
388.230	1	12
389.426	1	4
390.622	1	1
391.817	1	-1
393.013	1	0
394.208	1	1
395.404	1	-5
396.599	1	-3
397.795	1	3
398.990	1	5
400.186	1	-2
401.381	1	-15
402.576	1	-3
403.771	1	5
404.967	1	-1
406.162	1	4
407.357	1	1
408.552	1	-4
409.747	1	-8
410.942	1	4
412.137	1	4
413.332	1	-4
414.526	1	4
415.721	1	-1
416.916	1	-5
418.111	1	3
419.305	1	-1
420.500	1	-3
421.695	1	-3
422.889	1	5
424.084	1	1
425.278	1	12
426.472	1	5
427.667	1	2
428.861	1	2
430.055	1	-4
431.250	1	-2
432.444	1	3
433.638	1	-1
434.832	1	4
436.026	1	-2
437.220	1	0
438.414	1	-15
439.608	1	-5
440.802	1	-11
441.996	1	-1
443.190	1	1
444.384	1	-5
445.578	1	-11
446.771	1	7
447.965	1	2
449.159	1	-2
450.352	1	-5
451.546	1	-3
452.739	1	2
453.933	1	5
455.126	1	-11
456.320	1	5
457.513	1	2
458.706	1	3
459.899	1	-3
461.093	1	1
462.286	1	-4
463.479	1	-3
464.672	1	8
465.865	1	-9
467.058	1	-2
468.251	1	2
469.444	1	-10
470.637	1	-2
471.830	1	-18
473.023	1	7
474.215	1	15
475.408	1	5
476.601	1	-2
477.793	1	-5
478.986	1	-3
480.179	1	3
481.371	1	-8
482.564	1	3
483.756	1	2
484.948	1	-3
486.141	1	2
487.333	1	1
488.525	1	4
489.718	1	1
490.910	1	-1
492.102	1	-1
493.294	1	-3
494.486	1	-5
495.678	1	0
496.870	1	2
498.062	1	-6
499.254	1	3
500.446	1	-6
501.638	1	-5
502.829	1	-2
504.021	1	-6
505.213	1	16
506.404	1	4
507.596	1	-1
508.788	1	21
509.979	1	-3
511.171	1	0
512.362	1	-13
513.553	1	-19
514.745	1	5
515.936	1	6
517.127	1	-3
518.319	1	-2
519.510	1	5
520.701	1	3
521.892	1	2
523.083	1	-6
524.274	1	3
525.465	1	13
526.656	1	-5
527.847	1	2
529.038	1	-5
530.229	1	3
531.419	1	-5
532.610	1	-8
533.801	1	10
534.991	1	-4
536.182	1	0
537.373	1	6
538.563	1	9
539.754	1	9
540.944	1	-4
542.134	1	-8
543.325	1	2
544.515	1	-3
545.705	1	-9
546.896	1	-4
548.086	1	-5
549.276	1	-9
550.466	1	-6
551.656	1	3
552.846	1	-13
554.036	1	0
555.226	1	-14
556.416	1	-2
557.606	1	3
558.796	1	-1
559.986	1	-8
561.175	1	1
562.365	1	-2
563.555	1	-3
564.744	1	-1
565.934	1	4
567.123	1	6
568.313	1	5
569.502	1	3
570.692	1	8
571.881	1	0
573.070	1	7
574.260	1	11
575.449	1	-4
576.638	1	-10
577.827	1	0
579.016	1	5
580.205	1	7
581.394	1	-6
582.583	1	10
583.772	1	3
584.961	1	0
586.150	1	-7
587.339	1	-1
588.528	1	8
589.717	1	6
590.905	1	-6
592.094	1	-1
593.283	1	-1
594.471	1	10
595.660	1	-8
596.848	1	-5
598.037	1	-5
599.225	1	-6
600.413	1	6
601.602	1	11
602.790	1	-14
603.978	1	-4
605.166	1	-1
606.355	1	6
607.543	1	-6
608.731	1	-1
609.919	1	11
611.107	1	2
612.295	1	-5
613.483	1	-2
614.671	1	3
615.858	1	13
617.046	1	-6
618.234	1	-3
619.422	1	-8
620.609	1	-1
621.797	1	-14
622.985	1	-7
624.172	1	-3
625.360	1	3
626.547	1	-7
627.735	1	5
628.922	1	6
630.109	1	-10
631.297	1	6
632.484	1	-3
633.671	1	-2
634.858	1	-2
636.045	1	6
637.232	1	-2
638.419	1	-2
639.606	1	8
640.793	1	3
641.980	1	6
643.167	1	-13
644.354	1	1
645.541	1	0
646.728	1	-6
647.914	1	-13
649.101	1	-1
650.288	1	-2
651.474	1	-13
652.661	1	-9
653.847	1	7
655.034	1	0
656.220	1	-9
657.406	1	12
658.593	1	0
659.779	1	2
660.965	1	11
662.152	1	2
663.338	1	7
664.524	1	2
665.710	1	4
666.896	1	-6
668.082	1	2
669.268	1	2
670.454	1	4
671.640	1	3
672.826	1	2
674.011	1	-3
675.197	1	-8
676.383	1	1
677.569	1	-1
678.754	1	2
679.940	1	-2
681.125	1	-5
682.311	1	2
683.496	1	-5
684.682	1	-10
685.867	1	0
687.053	1	-5
688.238	1	2
688.746	1	-2

File: GaN_sample F_spot 12_UVVIS_200 K_200um_800 ms 2x2mm1_417.txt
340.368	1	3
341.565	1	-18
342.763	1	6
343.960	1	-7
345.157	1	0
346.354	1	0
347.552	1	-3
348.749	1	-4
349.946	1	-1
351.143	1	-1
352.340	1	4
353.537	1	-5
354.734	1	3
355.931	1	-3
357.127	1	-9
358.324	1	-5
359.521	1	8
360.718	1	7
361.914	1	5
363.111	1	0
364.308	1	0
365.504	1	6
366.701	1	0
367.897	1	13
369.093	1	3
370.290	1	15
371.486	1	17
372.682	1	18
373.879	1	3
375.075	1	4
376.271	1	8
377.467	1	2
378.663	1	-2
379.859	1	-6
381.055	1	12
382.251	1	-2
383.447	1	3
384.643	1	12
385.839	1	5
387.035	1	3
388.230	1	7
389.426	1	-6
390.622	1	-5
391.817	1	2
393.013	1	-8
394.208	1	-6
395.404	1	4
396.599	1	-11
397.795	1	1
398.990	1	3
400.186	1	-2
401.381	1	0
402.576	1	-4
403.771	1	3
404.967	1	3
406.162	1	6
407.357	1	-2
408.552	1	0
409.747	1	-1
410.942	1	-4
412.137	1	-3
413.332	1	0
414.526	1	-4
415.721	1	1
416.916	1	-8
418.111	1	-2
419.305	1	3
420.500	1	-9
421.695	1	-21
422.889	1	-3
424.084	1	-4
425.278	1	-1
426.472	1	-1
427.667	1	4
428.861	1	-3
430.055	1	0
431.250	1	-11
432.444	1	-2
433.638	1	-3
434.832	1	2
436.026	1	-3
437.220	1	3
438.414	1	-5
439.608	1	-5
440.802	1	-4
441.996	1	2
443.190	1	4
444.384	1	-10
445.578	1	-10
446.771	1	9
447.965	1	4
449.159	1	-8
450.352	1	0
451.546	1	-2
452.739	1	0
453.933	1	-5
455.126	1	-11
456.320	1	-1
457.513	1	8
458.706	1	-6
459.899	1	-3
461.093	1	1
462.286	1	0
463.479	1	-4
464.672	1	4
465.865	1	4
467.058	1	0
468.251	1	-11
469.444	1	-5
470.637	1	-2
471.830	1	-8
473.023	1	-1
474.215	1	6
475.408	1	0
476.601	1	-5
477.793	1	9
478.986	1	0
480.179	1	-2
481.371	1	6
482.564	1	-2
483.756	1	-2
484.948	1	-8
486.141	1	-4
487.333	1	-4
488.525	1	0
489.718	1	-1
490.910	1	-1
492.102	1	-7
493.294	1	-1
494.486	1	4
495.678	1	-9
496.870	1	3
498.062	1	-6
499.254	1	8
500.446	1	-7
501.638	1	-6
502.829	1	3
504.021	1	-4
505.213	1	3
506.404	1	10
507.596	1	1
508.788	1	13
509.979	1	-8
511.171	1	-8
512.362	1	-13
513.553	1	-12
514.745	1	1
515.936	1	-3
517.127	1	4
518.319	1	0
519.510	1	5
520.701	1	3
521.892	1	4
523.083	1	2
524.274	1	3
525.465	1	4
526.656	1	0
527.847	1	2
529.038	1	9
530.229	1	1
531.419	1	-3
532.610	1	-6
533.801	1	10
534.991	1	0
536.182	1	-1
537.373	1	-1
538.563	1	7
539.754	1	0
540.944	1	-10
542.134	1	3
543.325	1	0
544.515	1	-2
545.705	1	-5
546.896	1	-1
548.086	1	5
549.276	1	-2
550.466	1	3
551.656	1	3
552.846	1	-1
554.036	1	5
555.226	1	-9
556.416	1	-7
557.606	1	7
558.796	1	-1
559.986	1	-4
561.175	1	1
562.365	1	-7
563.555	1	-7
564.744	1	4
565.934	1	6
567.123	1	0
568.313	1	4
569.502	1	-6
570.692	1	-6
571.881	1	9
573.070	1	4
574.260	1	6
575.449	1	2
576.638	1	-1
577.827	1	-1
579.016	1	7
580.205	1	-2
581.394	1	1
582.583	1	12
583.772	1	7
584.961	1	6
586.150	1	3
587.339	1	7
588.528	1	4
589.717	1	3
590.905	1	-1
592.094	1	-1
593.283	1	-7
594.471	1	8
595.660	1	3
596.848	1	2
598.037	1	-10
599.225	1	-17
600.413	1	4
601.602	1	4
602.790	1	2
603.978	1	2
605.166	1	2
606.355	1	0
607.543	1	-1
608.731	1	4
609.919	1	4
611.107	1	-2
612.295	1	-15
613.483	1	0
614.671	1	4
615.858	1	-1
617.046	1	1
618.234	1	-7
619.422	1	-8
620.609	1	5
621.797	1	-8
622.985	1	-4
624.172	1	4
625.360	1	-1
626.547	1	-2
627.735	1	1
628.922	1	3
630.109	1	-7
631.297	1	1
632.484	1	-10
633.671	1	-9
634.858	1	-4
636.045	1	8
637.232	1	-2
638.419	1	0
639.606	1	7
640.793	1	14
641.980	1	10
643.167	1	-8
644.354	1	-1
645.541	1	0
646.728	1	-6
647.914	1	-6
649.101	1	-4
650.288	1	2
651.474	1	-6
652.661	1	1
653.847	1	6
655.034	1	3
656.220	1	-9
657.406	1	5
658.593	1	5
659.779	1	-3
660.965	1	-3
662.152	1	-4
663.338	1	17
664.524	1	8
665.710	1	-3
666.896	1	-9
668.082	1	1
669.268	1	1
670.454	1	5
671.640	1	-3
672.826	1	-1
674.011	1	-8
675.197	1	-6
676.383	1	0
677.569	1	-2
678.754	1	-6
679.940	1	-5
681.125	1	4
682.311	1	2
683.496	1	0
684.682	1	-7
685.867	1	-5
687.053	1	5
688.238	1	5
688.746	1	-1