Folder: cryo-il_analysis/Data/GaN_200K_800ms (part 23)

File: GaN_sample F_spot 12_UVVIS_200 K_200um_800 ms 2x2mm1_195.txt
340.368	1	3
341.565	1	-8
342.763	1	-1
343.960	1	3
345.157	1	-6
346.354	1	3
347.552	1	-9
348.749	1	-7
349.946	1	-6
351.143	1	0
352.340	1	11
353.537	1	9
354.734	1	3
355.931	1	5
357.127	1	2
358.324	1	2
359.521	1	8
360.718	1	-1
361.914	1	13
363.111	1	2
364.308	1	20
365.504	1	32
366.701	1	15
367.897	1	32
369.093	1	23
370.290	1	30
371.486	1	41
372.682	1	32
373.879	1	24
375.075	1	14
376.271	1	27
377.467	1	14
378.663	1	14
379.859	1	11
381.055	1	8
382.251	1	0
383.447	1	10
384.643	1	16
385.839	1	12
387.035	1	1
388.230	1	12
389.426	1	4
390.622	1	3
391.817	1	4
393.013	1	1
394.208	1	-4
395.404	1	-5
396.599	1	1
397.795	1	2
398.990	1	5
400.186	1	6
401.381	1	-6
402.576	1	4
403.771	1	5
404.967	1	-1
406.162	1	9
407.357	1	2
408.552	1	4
409.747	1	-1
410.942	1	14
412.137	1	-2
413.332	1	3
414.526	1	4
415.721	1	1
416.916	1	-5
418.111	1	3
419.305	1	1
420.500	1	-9
421.695	1	-1
422.889	1	-10
424.084	1	-1
425.278	1	5
426.472	1	-1
427.667	1	2
428.861	1	0
430.055	1	1
431.250	1	2
432.444	1	13
433.638	1	1
434.832	1	8
436.026	1	2
437.220	1	7
438.414	1	-16
439.608	1	-11
440.802	1	2
441.996	1	3
443.190	1	1
444.384	1	-6
445.578	1	-7
446.771	1	13
447.965	1	1
449.159	1	-10
450.352	1	-8
451.546	1	2
452.739	1	2
453.933	1	-1
455.126	1	-6
456.320	1	6
457.513	1	15
458.706	1	0
459.899	1	1
461.093	1	11
462.286	1	6
463.479	1	-1
464.672	1	-7
465.865	1	-5
467.058	1	-7
468.251	1	8
469.444	1	-3
470.637	1	3
471.830	1	-6
473.023	1	10
474.215	1	6
475.408	1	-5
476.601	1	3
477.793	1	-2
478.986	1	2
480.179	1	3
481.371	1	2
482.564	1	-1
483.756	1	11
484.948	1	1
486.141	1	-4
487.333	1	-2
488.525	1	0
489.718	1	-2
490.910	1	7
492.102	1	-3
493.294	1	-7
494.486	1	15
495.678	1	6
496.870	1	7
498.062	1	2
499.254	1	-3
500.446	1	-4
501.638	1	-9
502.829	1	6
504.021	1	1
505.213	1	6
506.404	1	12
507.596	1	9
508.788	1	14
509.979	1	-4
511.171	1	-1
512.362	1	0
513.553	1	-11
514.745	1	-4
515.936	1	4
517.127	1	-4
518.319	1	-4
519.510	1	-1
520.701	1	-4
521.892	1	11
523.083	1	-8
524.274	1	0
525.465	1	3
526.656	1	2
527.847	1	4
529.038	1	8
530.229	1	3
531.419	1	6
532.610	1	-3
533.801	1	15
534.991	1	3
536.182	1	2
537.373	1	3
538.563	1	11
539.754	1	4
540.944	1	-5
542.134	1	12
543.325	1	3
544.515	1	5
545.705	1	4
546.896	1	9
548.086	1	-2
549.276	1	5
550.466	1	0
551.656	1	11
552.846	1	11
554.036	1	-2
555.226	1	-9
556.416	1	9
557.606	1	5
558.796	1	-3
559.986	1	-2
561.175	1	9
562.365	1	12
563.555	1	-4
564.744	1	6
565.934	1	19
567.123	1	-5
568.313	1	0
569.502	1	4
570.692	1	7
571.881	1	10
573.070	1	2
574.260	1	9
575.449	1	8
576.638	1	-1
577.827	1	1
579.016	1	9
580.205	1	6
581.394	1	1
582.583	1	14
583.772	1	7
584.961	1	9
586.150	1	8
587.339	1	10
588.528	1	8
589.717	1	14
590.905	1	-1
592.094	1	4
593.283	1	0
594.471	1	7
595.660	1	11
596.848	1	-2
598.037	1	0
599.225	1	-13
600.413	1	14
601.602	1	6
602.790	1	1
603.978	1	9
605.166	1	5
606.355	1	15
607.543	1	0
608.731	1	2
609.919	1	7
611.107	1	-6
612.295	1	5
613.483	1	7
614.671	1	9
615.858	1	3
617.046	1	4
618.234	1	3
619.422	1	-6
620.609	1	5
621.797	1	13
622.985	1	1
624.172	1	0
625.360	1	8
626.547	1	4
627.735	1	3
628.922	1	-2
630.109	1	-5
631.297	1	6
632.484	1	-2
633.671	1	-2
634.858	1	-7
636.045	1	12
637.232	1	-5
638.419	1	2
639.606	1	0
640.793	1	9
641.980	1	4
643.167	1	-3
644.354	1	-1
645.541	1	0
646.728	1	-1
647.914	1	-4
649.101	1	2
650.288	1	0
651.474	1	-1
652.661	1	-2
653.847	1	9
655.034	1	2
656.220	1	-13
657.406	1	3
658.593	1	7
659.779	1	11
660.965	1	5
662.152	1	-2
663.338	1	11
664.524	1	5
665.710	1	3
666.896	1	-7
668.082	1	-2
669.268	1	-8
670.454	1	8
671.640	1	2
672.826	1	-4
674.011	1	-3
675.197	1	-3
676.383	1	4
677.569	1	3
678.754	1	-5
679.940	1	-2
681.125	1	5
682.311	1	9
683.496	1	10
684.682	1	4
685.867	1	0
687.053	1	3
688.238	1	1
688.746	1	5

File: GaN_sample F_spot 12_UVVIS_200 K_200um_800 ms 2x2mm1_196.txt
340.368	1	3
341.565	1	-3
342.763	1	13
343.960	1	-3
345.157	1	-3
346.354	1	-1
347.552	1	5
348.749	1	0
349.946	1	-6
351.143	1	-6
352.340	1	8
353.537	1	-1
354.734	1	7
355.931	1	-4
357.127	1	1
358.324	1	7
359.521	1	10
360.718	1	5
361.914	1	6
363.111	1	16
364.308	1	11
365.504	1	29
366.701	1	21
367.897	1	30
369.093	1	30
370.290	1	36
371.486	1	38
372.682	1	45
373.879	1	24
375.075	1	10
376.271	1	22
377.467	1	20
378.663	1	12
379.859	1	19
381.055	1	13
382.251	1	4
383.447	1	9
384.643	1	19
385.839	1	6
387.035	1	7
388.230	1	14
389.426	1	2
390.622	1	2
391.817	1	5
393.013	1	-2
394.208	1	6
395.404	1	-2
396.599	1	3
397.795	1	1
398.990	1	1
400.186	1	5
401.381	1	5
402.576	1	-3
403.771	1	2
404.967	1	15
406.162	1	8
407.357	1	-6
408.552	1	-2
409.747	1	-4
410.942	1	4
412.137	1	3
413.332	1	9
414.526	1	-3
415.721	1	1
416.916	1	-6
418.111	1	1
419.305	1	8
420.500	1	-12
421.695	1	2
422.889	1	-9
424.084	1	4
425.278	1	10
426.472	1	-1
427.667	1	4
428.861	1	-3
430.055	1	9
431.250	1	4
432.444	1	-3
433.638	1	-6
434.832	1	-6
436.026	1	9
437.220	1	1
438.414	1	-2
439.608	1	-7
440.802	1	-9
441.996	1	8
443.190	1	1
444.384	1	-7
445.578	1	0
446.771	1	9
447.965	1	-10
449.159	1	-10
450.352	1	-1
451.546	1	0
452.739	1	-1
453.933	1	-3
455.126	1	-3
456.320	1	-7
457.513	1	3
458.706	1	-1
459.899	1	4
461.093	1	-1
462.286	1	-15
463.479	1	-14
464.672	1	-2
465.865	1	1
467.058	1	6
468.251	1	1
469.444	1	-3
470.637	1	3
471.830	1	-2
473.023	1	2
474.215	1	13
475.408	1	6
476.601	1	5
477.793	1	11
478.986	1	2
480.179	1	-2
481.371	1	-3
482.564	1	6
483.756	1	10
484.948	1	2
486.141	1	1
487.333	1	14
488.525	1	0
489.718	1	1
490.910	1	1
492.102	1	-9
493.294	1	-9
494.486	1	4
495.678	1	0
496.870	1	5
498.062	1	-4
499.254	1	3
500.446	1	-12
501.638	1	-3
502.829	1	3
504.021	1	4
505.213	1	9
506.404	1	3
507.596	1	-4
508.788	1	18
509.979	1	-8
511.171	1	-2
512.362	1	-6
513.553	1	-6
514.745	1	-8
515.936	1	5
517.127	1	-1
518.319	1	-6
519.510	1	-4
520.701	1	3
521.892	1	1
523.083	1	1
524.274	1	5
525.465	1	9
526.656	1	8
527.847	1	9
529.038	1	3
530.229	1	7
531.419	1	5
532.610	1	-7
533.801	1	14
534.991	1	5
536.182	1	-1
537.373	1	5
538.563	1	9
539.754	1	11
540.944	1	-6
542.134	1	6
543.325	1	-2
544.515	1	0
545.705	1	7
546.896	1	-4
548.086	1	5
549.276	1	2
550.466	1	0
551.656	1	2
552.846	1	-2
554.036	1	0
555.226	1	-6
556.416	1	-5
557.606	1	4
558.796	1	-3
559.986	1	0
561.175	1	-2
562.365	1	5
563.555	1	-9
564.744	1	6
565.934	1	7
567.123	1	3
568.313	1	13
569.502	1	6
570.692	1	6
571.881	1	16
573.070	1	1
574.260	1	9
575.449	1	1
576.638	1	-9
577.827	1	-2
579.016	1	12
580.205	1	3
581.394	1	8
582.583	1	8
583.772	1	14
584.961	1	9
586.150	1	-3
587.339	1	2
588.528	1	11
589.717	1	-2
590.905	1	0
592.094	1	1
593.283	1	1
594.471	1	5
595.660	1	0
596.848	1	4
598.037	1	2
599.225	1	-7
600.413	1	12
601.602	1	5
602.790	1	1
603.978	1	1
605.166	1	7
606.355	1	2
607.543	1	6
608.731	1	-1
609.919	1	9
611.107	1	-3
612.295	1	-5
613.483	1	7
614.671	1	0
615.858	1	7
617.046	1	5
618.234	1	-8
619.422	1	-13
620.609	1	9
621.797	1	3
622.985	1	4
624.172	1	3
625.360	1	5
626.547	1	1
627.735	1	5
628.922	1	4
630.109	1	-9
631.297	1	6
632.484	1	-9
633.671	1	-4
634.858	1	2
636.045	1	7
637.232	1	-4
638.419	1	5
639.606	1	-1
640.793	1	15
641.980	1	4
643.167	1	-2
644.354	1	5
645.541	1	9
646.728	1	8
647.914	1	1
649.101	1	5
650.288	1	5
651.474	1	3
652.661	1	-1
653.847	1	15
655.034	1	5
656.220	1	-2
657.406	1	6
658.593	1	2
659.779	1	4
660.965	1	-3
662.152	1	6
663.338	1	7
664.524	1	2
665.710	1	3
666.896	1	-11
668.082	1	2
669.268	1	-3
670.454	1	0
671.640	1	3
672.826	1	-9
674.011	1	-1
675.197	1	-3
676.383	1	0
677.569	1	-8
678.754	1	-4
679.940	1	-2
681.125	1	-4
682.311	1	4
683.496	1	3
684.682	1	-14
685.867	1	-2
687.053	1	-3
688.238	1	4
688.746	1	3

File: GaN_sample F_spot 12_UVVIS_200 K_200um_800 ms 2x2mm1_197.txt
340.368	1	8
341.565	1	-7
342.763	1	5
343.960	1	7
345.157	1	-5
346.354	1	-2
347.552	1	-2
348.749	1	-2
349.946	1	0
351.143	1	6
352.340	1	1
353.537	1	-4
354.734	1	11
355.931	1	0
357.127	1	0
358.324	1	4
359.521	1	4
360.718	1	14
361.914	1	10
363.111	1	5
364.308	1	11
365.504	1	22
366.701	1	21
367.897	1	26
369.093	1	28
370.290	1	37
371.486	1	27
372.682	1	32
373.879	1	32
375.075	1	11
376.271	1	27
377.467	1	18
378.663	1	2
379.859	1	9
381.055	1	22
382.251	1	-8
383.447	1	10
384.643	1	18
385.839	1	6
387.035	1	10
388.230	1	5
389.426	1	-1
390.622	1	4
391.817	1	4
393.013	1	-4
394.208	1	4
395.404	1	2
396.599	1	-6
397.795	1	2
398.990	1	-1
400.186	1	2
401.381	1	3
402.576	1	2
403.771	1	5
404.967	1	6
406.162	1	12
407.357	1	-5
408.552	1	-9
409.747	1	9
410.942	1	8
412.137	1	7
413.332	1	9
414.526	1	-5
415.721	1	8
416.916	1	1
418.111	1	-3
419.305	1	3
420.500	1	-1
421.695	1	-7
422.889	1	-1
424.084	1	-2
425.278	1	11
426.472	1	5
427.667	1	6
428.861	1	-7
430.055	1	-1
431.250	1	-5
432.444	1	9
433.638	1	2
434.832	1	4
436.026	1	1
437.220	1	4
438.414	1	-10
439.608	1	-11
440.802	1	-8
441.996	1	1
443.190	1	6
444.384	1	-2
445.578	1	-3
446.771	1	14
447.965	1	5
449.159	1	-3
450.352	1	-1
451.546	1	4
452.739	1	4
453.933	1	0
455.126	1	1
456.320	1	4
457.513	1	9
458.706	1	4
459.899	1	1
461.093	1	-1
462.286	1	5
463.479	1	4
464.672	1	2
465.865	1	5
467.058	1	-7
468.251	1	3
469.444	1	-9
470.637	1	-1
471.830	1	3
473.023	1	7
474.215	1	8
475.408	1	0
476.601	1	0
477.793	1	-4
478.986	1	-6
480.179	1	7
481.371	1	-1
482.564	1	0
483.756	1	7
484.948	1	-12
486.141	1	-3
487.333	1	1
488.525	1	-3
489.718	1	-2
490.910	1	-1
492.102	1	-5
493.294	1	-12
494.486	1	6
495.678	1	-4
496.870	1	0
498.062	1	5
499.254	1	2
500.446	1	-11
501.638	1	0
502.829	1	-3
504.021	1	-1
505.213	1	-2
506.404	1	6
507.596	1	5
508.788	1	15
509.979	1	5
511.171	1	7
512.362	1	-8
513.553	1	-11
514.745	1	-4
515.936	1	-4
517.127	1	11
518.319	1	0
519.510	1	3
520.701	1	4
521.892	1	4
523.083	1	-7
524.274	1	2
525.465	1	1
526.656	1	-7
527.847	1	0
529.038	1	0
530.229	1	1
531.419	1	6
532.610	1	3
533.801	1	20
534.991	1	6
536.182	1	3
537.373	1	0
538.563	1	12
539.754	1	15
540.944	1	-11
542.134	1	9
543.325	1	9
544.515	1	-5
545.705	1	9
546.896	1	-1
548.086	1	0
549.276	1	-3
550.466	1	9
551.656	1	6
552.846	1	5
554.036	1	-1
555.226	1	-10
556.416	1	-1
557.606	1	3
558.796	1	1
559.986	1	0
561.175	1	0
562.365	1	4
563.555	1	1
564.744	1	2
565.934	1	12
567.123	1	2
568.313	1	3
569.502	1	3
570.692	1	7
571.881	1	9
573.070	1	0
574.260	1	7
575.449	1	8
576.638	1	-13
577.827	1	-2
579.016	1	12
580.205	1	0
581.394	1	3
582.583	1	10
583.772	1	14
584.961	1	9
586.150	1	-4
587.339	1	-4
588.528	1	4
589.717	1	3
590.905	1	0
592.094	1	4
593.283	1	7
594.471	1	9
595.660	1	6
596.848	1	4
598.037	1	4
599.225	1	-6
600.413	1	15
601.602	1	8
602.790	1	3
603.978	1	0
605.166	1	6
606.355	1	8
607.543	1	3
608.731	1	1
609.919	1	7
611.107	1	-1
612.295	1	-8
613.483	1	0
614.671	1	0
615.858	1	4
617.046	1	5
618.234	1	4
619.422	1	-6
620.609	1	3
621.797	1	-5
622.985	1	1
624.172	1	-1
625.360	1	0
626.547	1	1
627.735	1	3
628.922	1	2
630.109	1	-6
631.297	1	15
632.484	1	-2
633.671	1	-14
634.858	1	1
636.045	1	8
637.232	1	3
638.419	1	4
639.606	1	5
640.793	1	12
641.980	1	11
643.167	1	2
644.354	1	6
645.541	1	4
646.728	1	6
647.914	1	-6
649.101	1	-7
650.288	1	7
651.474	1	2
652.661	1	8
653.847	1	4
655.034	1	2
656.220	1	-5
657.406	1	8
658.593	1	3
659.779	1	-5
660.965	1	0
662.152	1	8
663.338	1	12
664.524	1	-3
665.710	1	5
666.896	1	-7
668.082	1	3
669.268	1	3
670.454	1	9
671.640	1	6
672.826	1	-3
674.011	1	2
675.197	1	-12
676.383	1	4
677.569	1	5
678.754	1	-3
679.940	1	1
681.125	1	-1
682.311	1	2
683.496	1	2
684.682	1	-11
685.867	1	2
687.053	1	10
688.238	1	15
688.746	1	6

File: GaN_sample F_spot 12_UVVIS_200 K_200um_800 ms 2x2mm1_199.txt
340.368	1	5
341.565	1	-11
342.763	1	5
343.960	1	0
345.157	1	1
346.354	1	-4
347.552	1	4
348.749	1	-6
349.946	1	-3
351.143	1	-1
352.340	1	3
353.537	1	9
354.734	1	10
355.931	1	4
357.127	1	3
358.324	1	6
359.521	1	7
360.718	1	9
361.914	1	12
363.111	1	16
364.308	1	13
365.504	1	22
366.701	1	23
367.897	1	24
369.093	1	19
370.290	1	39
371.486	1	29
372.682	1	31
373.879	1	22
375.075	1	18
376.271	1	26
377.467	1	11
378.663	1	5
379.859	1	1
381.055	1	10
382.251	1	5
383.447	1	4
384.643	1	14
385.839	1	6
387.035	1	-4
388.230	1	12
389.426	1	-1
390.622	1	1
391.817	1	8
393.013	1	7
394.208	1	4
395.404	1	-3
396.599	1	-2
397.795	1	7
398.990	1	4
400.186	1	-4
401.381	1	8
402.576	1	2
403.771	1	5
404.967	1	2
406.162	1	2
407.357	1	2
408.552	1	-5
409.747	1	-5
410.942	1	6
412.137	1	4
413.332	1	6
414.526	1	-3
415.721	1	-2
416.916	1	-10
418.111	1	1
419.305	1	2
420.500	1	8
421.695	1	-8
422.889	1	-6
424.084	1	4
425.278	1	6
426.472	1	5
427.667	1	4
428.861	1	2
430.055	1	2
431.250	1	-1
432.444	1	11
433.638	1	2
434.832	1	3
436.026	1	-4
437.220	1	2
438.414	1	-10
439.608	1	-12
440.802	1	3
441.996	1	-3
443.190	1	-2
444.384	1	-9
445.578	1	-10
446.771	1	19
447.965	1	0
449.159	1	-4
450.352	1	2
451.546	1	-2
452.739	1	7
453.933	1	1
455.126	1	-6
456.320	1	-1
457.513	1	2
458.706	1	-2
459.899	1	7
461.093	1	9
462.286	1	-4
463.479	1	3
464.672	1	5
465.865	1	-8
467.058	1	4
468.251	1	-1
469.444	1	-8
470.637	1	5
471.830	1	2
473.023	1	1
474.215	1	5
475.408	1	-2
476.601	1	1
477.793	1	-8
478.986	1	0
480.179	1	-1
481.371	1	2
482.564	1	3
483.756	1	11
484.948	1	3
486.141	1	4
487.333	1	-1
488.525	1	0
489.718	1	-6
490.910	1	1
492.102	1	-4
493.294	1	1
494.486	1	4
495.678	1	1
496.870	1	-3
498.062	1	-1
499.254	1	3
500.446	1	-3
501.638	1	-6
502.829	1	0
504.021	1	-3
505.213	1	-2
506.404	1	4
507.596	1	0
508.788	1	16
509.979	1	-1
511.171	1	3
512.362	1	-6
513.553	1	-17
514.745	1	3
515.936	1	0
517.127	1	-4
518.319	1	2
519.510	1	6
520.701	1	3
521.892	1	1
523.083	1	-5
524.274	1	0
525.465	1	5
526.656	1	1
527.847	1	9
529.038	1	9
530.229	1	8
531.419	1	6
532.610	1	6
533.801	1	10
534.991	1	11
536.182	1	-1
537.373	1	-5
538.563	1	11
539.754	1	10
540.944	1	3
542.134	1	2
543.325	1	6
544.515	1	-6
545.705	1	-1
546.896	1	8
548.086	1	-3
549.276	1	-4
550.466	1	4
551.656	1	11
552.846	1	2
554.036	1	0
555.226	1	-1
556.416	1	4
557.606	1	2
558.796	1	2
559.986	1	3
561.175	1	1
562.365	1	-1
563.555	1	-2
564.744	1	-4
565.934	1	7
567.123	1	6
568.313	1	9
569.502	1	2
570.692	1	2
571.881	1	14
573.070	1	4
574.260	1	11
575.449	1	-3
576.638	1	1
577.827	1	5
579.016	1	-1
580.205	1	-2
581.394	1	-2
582.583	1	11
583.772	1	11
584.961	1	3
586.150	1	0
587.339	1	7
588.528	1	3
589.717	1	9
590.905	1	-1
592.094	1	8
593.283	1	1
594.471	1	9
595.660	1	-3
596.848	1	6
598.037	1	-6
599.225	1	-15
600.413	1	13
601.602	1	11
602.790	1	5
603.978	1	4
605.166	1	12
606.355	1	5
607.543	1	1
608.731	1	-7
609.919	1	11
611.107	1	8
612.295	1	-10
613.483	1	9
614.671	1	-3
615.858	1	7
617.046	1	4
618.234	1	6
619.422	1	-7
620.609	1	9
621.797	1	3
622.985	1	2
624.172	1	-2
625.360	1	2
626.547	1	5
627.735	1	4
628.922	1	13
630.109	1	-10
631.297	1	-4
632.484	1	4
633.671	1	-4
634.858	1	-3
636.045	1	-1
637.232	1	-4
638.419	1	0
639.606	1	8
640.793	1	5
641.980	1	14
643.167	1	-6
644.354	1	0
645.541	1	4
646.728	1	-3
647.914	1	-12
649.101	1	-2
650.288	1	5
651.474	1	1
652.661	1	-1
653.847	1	11
655.034	1	4
656.220	1	-9
657.406	1	7
658.593	1	8
659.779	1	2
660.965	1	4
662.152	1	2
663.338	1	13
664.524	1	-1
665.710	1	3
666.896	1	3
668.082	1	11
669.268	1	-8
670.454	1	1
671.640	1	1
672.826	1	-3
674.011	1	-3
675.197	1	-12
676.383	1	2
677.569	1	-5
678.754	1	0
679.940	1	4
681.125	1	4
682.311	1	3
683.496	1	10
684.682	1	-5
685.867	1	8
687.053	1	1
688.238	1	14
688.746	1	-1

File: GaN_sample F_spot 12_UVVIS_200 K_200um_800 ms 2x2mm1_201.txt
340.368	1	0
341.565	1	-6
342.763	1	6
343.960	1	6
345.157	1	-3
346.354	1	0
347.552	1	-12
348.749	1	-7
349.946	1	-1
351.143	1	-11
352.340	1	13
353.537	1	-3
354.734	1	4
355.931	1	9
357.127	1	6
358.324	1	8
359.521	1	8
360.718	1	12
361.914	1	16
363.111	1	10
364.308	1	8
365.504	1	28
366.701	1	25
367.897	1	33
369.093	1	28
370.290	1	37
371.486	1	35
372.682	1	31
373.879	1	29
375.075	1	17
376.271	1	28
377.467	1	27
378.663	1	11
379.859	1	13
381.055	1	6
382.251	1	0
383.447	1	1
384.643	1	15
385.839	1	-1
387.035	1	7
388.230	1	7
389.426	1	-2
390.622	1	0
391.817	1	7
393.013	1	10
394.208	1	4
395.404	1	0
396.599	1	0
397.795	1	5
398.990	1	6
400.186	1	-5
401.381	1	1
402.576	1	-1
403.771	1	6
404.967	1	0
406.162	1	6
407.357	1	2
408.552	1	0
409.747	1	2
410.942	1	12
412.137	1	3
413.332	1	7
414.526	1	-2
415.721	1	1
416.916	1	-6
418.111	1	0
419.305	1	3
420.500	1	-6
421.695	1	-9
422.889	1	-5
424.084	1	-1
425.278	1	13
426.472	1	1
427.667	1	5
428.861	1	-8
430.055	1	5
431.250	1	-1
432.444	1	5
433.638	1	-4
434.832	1	2
436.026	1	-3
437.220	1	3
438.414	1	-6
439.608	1	-8
440.802	1	-10
441.996	1	-3
443.190	1	2
444.384	1	-8
445.578	1	-13
446.771	1	15
447.965	1	-1
449.159	1	-10
450.352	1	-8
451.546	1	-3
452.739	1	9
453.933	1	4
455.126	1	-5
456.320	1	-2
457.513	1	4
458.706	1	1
459.899	1	-3
461.093	1	3
462.286	1	7
463.479	1	2
464.672	1	-7
465.865	1	-5
467.058	1	-4
468.251	1	2
469.444	1	-8
470.637	1	-3
471.830	1	-1
473.023	1	-4
474.215	1	17
475.408	1	-3
476.601	1	2
477.793	1	-12
478.986	1	-3
480.179	1	5
481.371	1	16
482.564	1	3
483.756	1	1
484.948	1	-9
486.141	1	0
487.333	1	0
488.525	1	-5
489.718	1	7
490.910	1	2
492.102	1	-1
493.294	1	-4
494.486	1	5
495.678	1	4
496.870	1	4
498.062	1	-1
499.254	1	0
500.446	1	-9
501.638	1	-3
502.829	1	-2
504.021	1	4
505.213	1	2
506.404	1	4
507.596	1	3
508.788	1	9
509.979	1	-6
511.171	1	7
512.362	1	2
513.553	1	-15
514.745	1	-2
515.936	1	0
517.127	1	-3
518.319	1	8
519.510	1	2
520.701	1	3
521.892	1	7
523.083	1	-3
524.274	1	-3
525.465	1	0
526.656	1	4
527.847	1	5
529.038	1	2
530.229	1	1
531.419	1	5
532.610	1	-3
533.801	1	8
534.991	1	4
536.182	1	-4
537.373	1	6
538.563	1	-3
539.754	1	12
540.944	1	-2
542.134	1	9
543.325	1	-4
544.515	1	-6
545.705	1	3
546.896	1	-3
548.086	1	3
549.276	1	3
550.466	1	13
551.656	1	8
552.846	1	-2
554.036	1	0
555.226	1	-3
556.416	1	0
557.606	1	24
558.796	1	15
559.986	1	-1
561.175	1	9
562.365	1	5
563.555	1	-3
564.744	1	4
565.934	1	9
567.123	1	8
568.313	1	9
569.502	1	4
570.692	1	6
571.881	1	9
573.070	1	-5
574.260	1	10
575.449	1	1
576.638	1	0
577.827	1	-3
579.016	1	2
580.205	1	6
581.394	1	2
582.583	1	17
583.772	1	8
584.961	1	0
586.150	1	-3
587.339	1	0
588.528	1	3
589.717	1	11
590.905	1	2
592.094	1	0
593.283	1	-1
594.471	1	13
595.660	1	-3
596.848	1	3
598.037	1	-2
599.225	1	2
600.413	1	10
601.602	1	14
602.790	1	-2
603.978	1	0
605.166	1	9
606.355	1	1
607.543	1	-4
608.731	1	4
609.919	1	11
611.107	1	1
612.295	1	2
613.483	1	-2
614.671	1	4
615.858	1	0
617.046	1	3
618.234	1	0
619.422	1	-3
620.609	1	8
621.797	1	3
622.985	1	2
624.172	1	-4
625.360	1	-1
626.547	1	4
627.735	1	7
628.922	1	4
630.109	1	-7
631.297	1	2
632.484	1	-3
633.671	1	-2
634.858	1	-5
636.045	1	15
637.232	1	-5
638.419	1	-1
639.606	1	4
640.793	1	3
641.980	1	7
643.167	1	-3
644.354	1	-3
645.541	1	5
646.728	1	0
647.914	1	0
649.101	1	-2
650.288	1	-2
651.474	1	-6
652.661	1	-7
653.847	1	3
655.034	1	6
656.220	1	-10
657.406	1	5
658.593	1	3
659.779	1	1
660.965	1	7
662.152	1	-5
663.338	1	8
664.524	1	6
665.710	1	-5
666.896	1	-1
668.082	1	10
669.268	1	-2
670.454	1	11
671.640	1	2
672.826	1	5
674.011	1	-2
675.197	1	-4
676.383	1	6
677.569	1	-12
678.754	1	2
679.940	1	-6
681.125	1	3
682.311	1	11
683.496	1	8
684.682	1	-6
685.867	1	-6
687.053	1	-5
688.238	1	14
688.746	1	-2

File: GaN_sample F_spot 12_UVVIS_200 K_200um_800 ms 2x2mm1_202.txt
340.368	1	6
341.565	1	-8
342.763	1	6
343.960	1	-1
345.157	1	-2
346.354	1	4
347.552	1	-1
348.749	1	-3
349.946	1	-11
351.143	1	-4
352.340	1	0
353.537	1	6
354.734	1	11
355.931	1	-3
357.127	1	3
358.324	1	6
359.521	1	15
360.718	1	9
361.914	1	14
363.111	1	-2
364.308	1	19
365.504	1	22
366.701	1	26
367.897	1	30
369.093	1	32
370.290	1	33
371.486	1	37
372.682	1	34
373.879	1	25
375.075	1	6
376.271	1	20
377.467	1	18
378.663	1	9
379.859	1	10
381.055	1	12
382.251	1	1
383.447	1	-1
384.643	1	15
385.839	1	12
387.035	1	9
388.230	1	11
389.426	1	4
390.622	1	3
391.817	1	12
393.013	1	-3
394.208	1	-1
395.404	1	-7
396.599	1	6
397.795	1	-5
398.990	1	-4
400.186	1	0
401.381	1	-7
402.576	1	2
403.771	1	15
404.967	1	0
406.162	1	10
407.357	1	-2
408.552	1	-4
409.747	1	0
410.942	1	6
412.137	1	-1
413.332	1	4
414.526	1	-10
415.721	1	8
416.916	1	6
418.111	1	-2
419.305	1	4
420.500	1	-4
421.695	1	4
422.889	1	-6
424.084	1	-8
425.278	1	13
426.472	1	-4
427.667	1	5
428.861	1	0
430.055	1	8
431.250	1	-7
432.444	1	9
433.638	1	-2
434.832	1	5
436.026	1	4
437.220	1	10
438.414	1	-12
439.608	1	-9
440.802	1	-2
441.996	1	0
443.190	1	6
444.384	1	2
445.578	1	-7
446.771	1	16
447.965	1	-2
449.159	1	-2
450.352	1	-3
451.546	1	1
452.739	1	14
453.933	1	4
455.126	1	0
456.320	1	1
457.513	1	12
458.706	1	6
459.899	1	5
461.093	1	8
462.286	1	7
463.479	1	0
464.672	1	1
465.865	1	1
467.058	1	5
468.251	1	3
469.444	1	-8
470.637	1	-5
471.830	1	-7
473.023	1	0
474.215	1	3
475.408	1	-9
476.601	1	1
477.793	1	-3
478.986	1	-3
480.179	1	11
481.371	1	-2
482.564	1	2
483.756	1	1
484.948	1	-12
486.141	1	-10
487.333	1	-5
488.525	1	0
489.718	1	1
490.910	1	-4
492.102	1	-5
493.294	1	5
494.486	1	6
495.678	1	7
496.870	1	2
498.062	1	-5
499.254	1	0
500.446	1	-8
501.638	1	-5
502.829	1	2
504.021	1	6
505.213	1	3
506.404	1	-1
507.596	1	3
508.788	1	13
509.979	1	12
511.171	1	-2
512.362	1	-4
513.553	1	-5
514.745	1	-2
515.936	1	-3
517.127	1	2
518.319	1	1
519.510	1	-1
520.701	1	5
521.892	1	-2
523.083	1	3
524.274	1	-1
525.465	1	1
526.656	1	0
527.847	1	8
529.038	1	3
530.229	1	6
531.419	1	-1
532.610	1	-4
533.801	1	21
534.991	1	1
536.182	1	8
537.373	1	0
538.563	1	7
539.754	1	8
540.944	1	2
542.134	1	1
543.325	1	3
544.515	1	-6
545.705	1	5
546.896	1	6
548.086	1	8
549.276	1	4
550.466	1	3
551.656	1	4
552.846	1	2
554.036	1	-2
555.226	1	0
556.416	1	-10
557.606	1	0
558.796	1	3
559.986	1	-7
561.175	1	4
562.365	1	6
563.555	1	-4
564.744	1	6
565.934	1	5
567.123	1	6
568.313	1	6
569.502	1	0
570.692	1	1
571.881	1	7
573.070	1	11
574.260	1	10
575.449	1	-4
576.638	1	3
577.827	1	-6
579.016	1	10
580.205	1	1
581.394	1	2
582.583	1	3
583.772	1	3
584.961	1	-2
586.150	1	-1
587.339	1	-2
588.528	1	11
589.717	1	5
590.905	1	6
592.094	1	-1
593.283	1	11
594.471	1	5
595.660	1	-2
596.848	1	-3
598.037	1	1
599.225	1	-14
600.413	1	13
601.602	1	7
602.790	1	5
603.978	1	-4
605.166	1	1
606.355	1	3
607.543	1	0
608.731	1	-5
609.919	1	6
611.107	1	-3
612.295	1	-1
613.483	1	6
614.671	1	13
615.858	1	5
617.046	1	6
618.234	1	-1
619.422	1	-8
620.609	1	6
621.797	1	-11
622.985	1	1
624.172	1	3
625.360	1	9
626.547	1	4
627.735	1	6
628.922	1	3
630.109	1	-9
631.297	1	-2
632.484	1	-6
633.671	1	0
634.858	1	-3
636.045	1	2
637.232	1	-5
638.419	1	-6
639.606	1	4
640.793	1	8
641.980	1	7
643.167	1	-8
644.354	1	6
645.541	1	6
646.728	1	-4
647.914	1	-6
649.101	1	2
650.288	1	3
651.474	1	-5
652.661	1	0
653.847	1	7
655.034	1	1
656.220	1	-3
657.406	1	5
658.593	1	2
659.779	1	-4
660.965	1	6
662.152	1	5
663.338	1	5
664.524	1	6
665.710	1	4
666.896	1	3
668.082	1	9
669.268	1	-3
670.454	1	-4
671.640	1	1
672.826	1	-2
674.011	1	-8
675.197	1	-10
676.383	1	1
677.569	1	5
678.754	1	-4
679.940	1	-2
681.125	1	11
682.311	1	9
683.496	1	9
684.682	1	-2
685.867	1	2
687.053	1	3
688.238	1	-3
688.746	1	3