Folder: cryo-il_analysis/Data/GaN_130K_350ms (part 14)

File: GaN_sample F_spot6_UVVIS_130 K_200um_350 ms 2x2mm1_182.txt
340.368	1	0
341.565	1	1
342.763	1	10
343.960	1	-13
345.157	1	-10
346.354	1	2
347.552	1	6
348.749	1	14
349.946	1	5
351.143	1	11
352.340	1	6
353.537	1	6
354.734	1	5
355.931	1	-1
357.127	1	13
358.324	1	-5
359.521	1	-5
360.718	1	13
361.914	1	15
363.111	1	18
364.308	1	19
365.504	1	17
366.701	1	24
367.897	1	6
369.093	1	28
370.290	1	24
371.486	1	23
372.682	1	16
373.879	1	15
375.075	1	15
376.271	1	10
377.467	1	15
378.663	1	5
379.859	1	6
381.055	1	5
382.251	1	15
383.447	1	4
384.643	1	16
385.839	1	9
387.035	1	17
388.230	1	8
389.426	1	11
390.622	1	3
391.817	1	10
393.013	1	7
394.208	1	0
395.404	1	-11
396.599	1	14
397.795	1	2
398.990	1	-1
400.186	1	9
401.381	1	4
402.576	1	18
403.771	1	12
404.967	1	4
406.162	1	5
407.357	1	2
408.552	1	5
409.747	1	0
410.942	1	-5
412.137	1	2
413.332	1	1
414.526	1	8
415.721	1	6
416.916	1	7
418.111	1	12
419.305	1	7
420.500	1	10
421.695	1	-4
422.889	1	4
424.084	1	9
425.278	1	4
426.472	1	5
427.667	1	11
428.861	1	6
430.055	1	2
431.250	1	7
432.444	1	7
433.638	1	13
434.832	1	1
436.026	1	13
437.220	1	-2
438.414	1	-2
439.608	1	4
440.802	1	0
441.996	1	16
443.190	1	2
444.384	1	-1
445.578	1	1
446.771	1	6
447.965	1	6
449.159	1	9
450.352	1	16
451.546	1	10
452.739	1	8
453.933	1	2
455.126	1	-1
456.320	1	7
457.513	1	-4
458.706	1	10
459.899	1	9
461.093	1	5
462.286	1	7
463.479	1	16
464.672	1	7
465.865	1	-1
467.058	1	9
468.251	1	5
469.444	1	7
470.637	1	9
471.830	1	12
473.023	1	4
474.215	1	6
475.408	1	6
476.601	1	-2
477.793	1	0
478.986	1	1
480.179	1	4
481.371	1	1
482.564	1	2
483.756	1	6
484.948	1	7
486.141	1	3
487.333	1	0
488.525	1	-1
489.718	1	11
490.910	1	-6
492.102	1	8
493.294	1	3
494.486	1	10
495.678	1	-5
496.870	1	6
498.062	1	-7
499.254	1	14
500.446	1	1
501.638	1	9
502.829	1	9
504.021	1	12
505.213	1	10
506.404	1	7
507.596	1	2
508.788	1	7
509.979	1	-4
511.171	1	13
512.362	1	4
513.553	1	4
514.745	1	8
515.936	1	15
517.127	1	11
518.319	1	4
519.510	1	8
520.701	1	6
521.892	1	8
523.083	1	14
524.274	1	4
525.465	1	11
526.656	1	10
527.847	1	14
529.038	1	-4
530.229	1	11
531.419	1	10
532.610	1	6
533.801	1	19
534.991	1	9
536.182	1	4
537.373	1	14
538.563	1	16
539.754	1	10
540.944	1	8
542.134	1	3
543.325	1	2
544.515	1	4
545.705	1	8
546.896	1	11
548.086	1	-8
549.276	1	0
550.466	1	16
551.656	1	10
552.846	1	3
554.036	1	4
555.226	1	9
556.416	1	8
557.606	1	9
558.796	1	18
559.986	1	9
561.175	1	7
562.365	1	15
563.555	1	11
564.744	1	3
565.934	1	10
567.123	1	-2
568.313	1	3
569.502	1	9
570.692	1	9
571.881	1	9
573.070	1	13
574.260	1	6
575.449	1	3
576.638	1	-4
577.827	1	-2
579.016	1	4
580.205	1	2
581.394	1	8
582.583	1	12
583.772	1	10
584.961	1	1
586.150	1	5
587.339	1	10
588.528	1	6
589.717	1	0
590.905	1	0
592.094	1	1
593.283	1	0
594.471	1	0
595.660	1	1
596.848	1	10
598.037	1	0
599.225	1	-2
600.413	1	6
601.602	1	-5
602.790	1	0
603.978	1	4
605.166	1	8
606.355	1	8
607.543	1	6
608.731	1	6
609.919	1	18
611.107	1	1
612.295	1	9
613.483	1	-5
614.671	1	15
615.858	1	-7
617.046	1	6
618.234	1	3
619.422	1	-3
620.609	1	-3
621.797	1	2
622.985	1	4
624.172	1	1
625.360	1	10
626.547	1	-3
627.735	1	1
628.922	1	-8
630.109	1	9
631.297	1	2
632.484	1	1
633.671	1	-4
634.858	1	7
636.045	1	20
637.232	1	-4
638.419	1	8
639.606	1	10
640.793	1	-9
641.980	1	2
643.167	1	7
644.354	1	0
645.541	1	8
646.728	1	8
647.914	1	5
649.101	1	-1
650.288	1	0
651.474	1	2
652.661	1	-2
653.847	1	0
655.034	1	2
656.220	1	1
657.406	1	6
658.593	1	7
659.779	1	5
660.965	1	-4
662.152	1	4
663.338	1	-3
664.524	1	-5
665.710	1	3
666.896	1	11
668.082	1	4
669.268	1	0
670.454	1	5
671.640	1	-2
672.826	1	-4
674.011	1	10
675.197	1	3
676.383	1	4
677.569	1	8
678.754	1	8
679.940	1	4
681.125	1	9
682.311	1	-8
683.496	1	-3
684.682	1	1
685.867	1	12
687.053	1	2
688.238	1	11
688.746	1	7

File: GaN_sample F_spot6_UVVIS_130 K_200um_350 ms 2x2mm1_184.txt
340.368	1	4
341.565	1	7
342.763	1	0
343.960	1	-9
345.157	1	-12
346.354	1	10
347.552	1	5
348.749	1	10
349.946	1	10
351.143	1	6
352.340	1	9
353.537	1	1
354.734	1	-10
355.931	1	4
357.127	1	5
358.324	1	7
359.521	1	2
360.718	1	5
361.914	1	6
363.111	1	14
364.308	1	18
365.504	1	20
366.701	1	11
367.897	1	6
369.093	1	12
370.290	1	24
371.486	1	23
372.682	1	11
373.879	1	19
375.075	1	21
376.271	1	13
377.467	1	16
378.663	1	15
379.859	1	4
381.055	1	4
382.251	1	6
383.447	1	12
384.643	1	8
385.839	1	10
387.035	1	13
388.230	1	1
389.426	1	17
390.622	1	10
391.817	1	6
393.013	1	7
394.208	1	2
395.404	1	-3
396.599	1	9
397.795	1	1
398.990	1	3
400.186	1	3
401.381	1	4
402.576	1	6
403.771	1	14
404.967	1	2
406.162	1	-2
407.357	1	1
408.552	1	4
409.747	1	5
410.942	1	2
412.137	1	6
413.332	1	5
414.526	1	6
415.721	1	8
416.916	1	5
418.111	1	8
419.305	1	3
420.500	1	7
421.695	1	6
422.889	1	1
424.084	1	12
425.278	1	8
426.472	1	10
427.667	1	4
428.861	1	5
430.055	1	3
431.250	1	9
432.444	1	-1
433.638	1	6
434.832	1	15
436.026	1	4
437.220	1	-1
438.414	1	-2
439.608	1	16
440.802	1	1
441.996	1	10
443.190	1	5
444.384	1	-6
445.578	1	-1
446.771	1	8
447.965	1	8
449.159	1	16
450.352	1	12
451.546	1	2
452.739	1	7
453.933	1	2
455.126	1	-7
456.320	1	1
457.513	1	-3
458.706	1	7
459.899	1	5
461.093	1	12
462.286	1	9
463.479	1	8
464.672	1	12
465.865	1	-10
467.058	1	6
468.251	1	20
469.444	1	5
470.637	1	8
471.830	1	3
473.023	1	5
474.215	1	-5
475.408	1	4
476.601	1	-2
477.793	1	-1
478.986	1	1
480.179	1	3
481.371	1	5
482.564	1	7
483.756	1	-3
484.948	1	-3
486.141	1	0
487.333	1	-7
488.525	1	12
489.718	1	1
490.910	1	-3
492.102	1	10
493.294	1	11
494.486	1	17
495.678	1	4
496.870	1	5
498.062	1	5
499.254	1	10
500.446	1	8
501.638	1	8
502.829	1	3
504.021	1	5
505.213	1	2
506.404	1	5
507.596	1	3
508.788	1	0
509.979	1	3
511.171	1	11
512.362	1	13
513.553	1	11
514.745	1	4
515.936	1	19
517.127	1	-2
518.319	1	-3
519.510	1	3
520.701	1	3
521.892	1	10
523.083	1	0
524.274	1	-3
525.465	1	10
526.656	1	13
527.847	1	6
529.038	1	8
530.229	1	6
531.419	1	7
532.610	1	8
533.801	1	17
534.991	1	13
536.182	1	9
537.373	1	3
538.563	1	19
539.754	1	-4
540.944	1	13
542.134	1	-5
543.325	1	5
544.515	1	3
545.705	1	1
546.896	1	12
548.086	1	1
549.276	1	-5
550.466	1	14
551.656	1	11
552.846	1	7
554.036	1	12
555.226	1	12
556.416	1	23
557.606	1	10
558.796	1	15
559.986	1	8
561.175	1	8
562.365	1	8
563.555	1	16
564.744	1	-4
565.934	1	4
567.123	1	8
568.313	1	-3
569.502	1	2
570.692	1	7
571.881	1	6
573.070	1	8
574.260	1	3
575.449	1	8
576.638	1	0
577.827	1	-6
579.016	1	5
580.205	1	9
581.394	1	-1
582.583	1	11
583.772	1	4
584.961	1	-1
586.150	1	6
587.339	1	11
588.528	1	8
589.717	1	-7
590.905	1	11
592.094	1	-1
593.283	1	-3
594.471	1	5
595.660	1	0
596.848	1	5
598.037	1	2
599.225	1	12
600.413	1	12
601.602	1	7
602.790	1	1
603.978	1	3
605.166	1	8
606.355	1	5
607.543	1	-3
608.731	1	1
609.919	1	8
611.107	1	8
612.295	1	13
613.483	1	-3
614.671	1	4
615.858	1	-3
617.046	1	8
618.234	1	6
619.422	1	8
620.609	1	-1
621.797	1	6
622.985	1	2
624.172	1	-1
625.360	1	10
626.547	1	4
627.735	1	14
628.922	1	-11
630.109	1	9
631.297	1	5
632.484	1	-5
633.671	1	-3
634.858	1	9
636.045	1	15
637.232	1	1
638.419	1	9
639.606	1	10
640.793	1	-6
641.980	1	-1
643.167	1	8
644.354	1	-5
645.541	1	4
646.728	1	10
647.914	1	-8
649.101	1	-5
650.288	1	10
651.474	1	-7
652.661	1	4
653.847	1	7
655.034	1	-1
656.220	1	-6
657.406	1	10
658.593	1	1
659.779	1	-5
660.965	1	0
662.152	1	7
663.338	1	-2
664.524	1	-10
665.710	1	3
666.896	1	8
668.082	1	5
669.268	1	-4
670.454	1	4
671.640	1	-3
672.826	1	9
674.011	1	5
675.197	1	7
676.383	1	3
677.569	1	5
678.754	1	-1
679.940	1	-6
681.125	1	9
682.311	1	-14
683.496	1	7
684.682	1	-5
685.867	1	-7
687.053	1	-3
688.238	1	9
688.746	1	5

File: GaN_sample F_spot6_UVVIS_130 K_200um_350 ms 2x2mm1_186.txt
340.368	1	1
341.565	1	1
342.763	1	2
343.960	1	-8
345.157	1	-3
346.354	1	1
347.552	1	5
348.749	1	10
349.946	1	18
351.143	1	12
352.340	1	17
353.537	1	-1
354.734	1	2
355.931	1	0
357.127	1	11
358.324	1	2
359.521	1	0
360.718	1	2
361.914	1	0
363.111	1	19
364.308	1	21
365.504	1	14
366.701	1	29
367.897	1	17
369.093	1	21
370.290	1	22
371.486	1	16
372.682	1	14
373.879	1	14
375.075	1	10
376.271	1	12
377.467	1	13
378.663	1	16
379.859	1	9
381.055	1	15
382.251	1	0
383.447	1	12
384.643	1	14
385.839	1	9
387.035	1	11
388.230	1	9
389.426	1	9
390.622	1	10
391.817	1	14
393.013	1	4
394.208	1	2
395.404	1	-2
396.599	1	11
397.795	1	8
398.990	1	10
400.186	1	3
401.381	1	6
402.576	1	10
403.771	1	15
404.967	1	4
406.162	1	1
407.357	1	6
408.552	1	-4
409.747	1	11
410.942	1	9
412.137	1	5
413.332	1	-6
414.526	1	4
415.721	1	9
416.916	1	-4
418.111	1	9
419.305	1	-1
420.500	1	2
421.695	1	0
422.889	1	7
424.084	1	7
425.278	1	0
426.472	1	14
427.667	1	11
428.861	1	6
430.055	1	2
431.250	1	20
432.444	1	7
433.638	1	12
434.832	1	-2
436.026	1	10
437.220	1	-2
438.414	1	0
439.608	1	12
440.802	1	3
441.996	1	2
443.190	1	11
444.384	1	-13
445.578	1	4
446.771	1	4
447.965	1	2
449.159	1	9
450.352	1	10
451.546	1	6
452.739	1	12
453.933	1	1
455.126	1	-9
456.320	1	2
457.513	1	7
458.706	1	5
459.899	1	0
461.093	1	6
462.286	1	-1
463.479	1	11
464.672	1	2
465.865	1	-9
467.058	1	6
468.251	1	7
469.444	1	1
470.637	1	14
471.830	1	12
473.023	1	9
474.215	1	8
475.408	1	7
476.601	1	-1
477.793	1	-3
478.986	1	-5
480.179	1	-9
481.371	1	10
482.564	1	0
483.756	1	3
484.948	1	4
486.141	1	-6
487.333	1	-6
488.525	1	8
489.718	1	6
490.910	1	-12
492.102	1	7
493.294	1	7
494.486	1	7
495.678	1	1
496.870	1	6
498.062	1	-3
499.254	1	10
500.446	1	6
501.638	1	3
502.829	1	-2
504.021	1	-2
505.213	1	6
506.404	1	-8
507.596	1	2
508.788	1	5
509.979	1	5
511.171	1	6
512.362	1	-2
513.553	1	13
514.745	1	3
515.936	1	14
517.127	1	11
518.319	1	3
519.510	1	0
520.701	1	7
521.892	1	6
523.083	1	12
524.274	1	3
525.465	1	9
526.656	1	12
527.847	1	10
529.038	1	-8
530.229	1	13
531.419	1	9
532.610	1	8
533.801	1	11
534.991	1	9
536.182	1	11
537.373	1	11
538.563	1	6
539.754	1	6
540.944	1	6
542.134	1	0
543.325	1	14
544.515	1	13
545.705	1	10
546.896	1	7
548.086	1	2
549.276	1	-3
550.466	1	17
551.656	1	13
552.846	1	11
554.036	1	10
555.226	1	13
556.416	1	11
557.606	1	7
558.796	1	24
559.986	1	6
561.175	1	13
562.365	1	13
563.555	1	10
564.744	1	14
565.934	1	3
567.123	1	4
568.313	1	-2
569.502	1	3
570.692	1	6
571.881	1	2
573.070	1	2
574.260	1	7
575.449	1	0
576.638	1	4
577.827	1	-9
579.016	1	1
580.205	1	-3
581.394	1	5
582.583	1	5
583.772	1	5
584.961	1	1
586.150	1	4
587.339	1	0
588.528	1	10
589.717	1	1
590.905	1	10
592.094	1	10
593.283	1	-7
594.471	1	0
595.660	1	5
596.848	1	2
598.037	1	10
599.225	1	8
600.413	1	4
601.602	1	-6
602.790	1	2
603.978	1	-2
605.166	1	7
606.355	1	6
607.543	1	5
608.731	1	13
609.919	1	10
611.107	1	6
612.295	1	10
613.483	1	7
614.671	1	1
615.858	1	-5
617.046	1	7
618.234	1	2
619.422	1	0
620.609	1	-4
621.797	1	1
622.985	1	0
624.172	1	6
625.360	1	6
626.547	1	1
627.735	1	9
628.922	1	-2
630.109	1	5
631.297	1	7
632.484	1	0
633.671	1	-1
634.858	1	2
636.045	1	12
637.232	1	-4
638.419	1	10
639.606	1	8
640.793	1	-12
641.980	1	9
643.167	1	-2
644.354	1	-4
645.541	1	3
646.728	1	6
647.914	1	-7
649.101	1	6
650.288	1	7
651.474	1	2
652.661	1	-6
653.847	1	5
655.034	1	1
656.220	1	4
657.406	1	11
658.593	1	2
659.779	1	10
660.965	1	-1
662.152	1	-1
663.338	1	-8
664.524	1	-4
665.710	1	2
666.896	1	-1
668.082	1	6
669.268	1	0
670.454	1	8
671.640	1	-13
672.826	1	4
674.011	1	1
675.197	1	7
676.383	1	2
677.569	1	-2
678.754	1	5
679.940	1	4
681.125	1	11
682.311	1	-6
683.496	1	3
684.682	1	1
685.867	1	1
687.053	1	-2
688.238	1	8
688.746	1	0

File: GaN_sample F_spot6_UVVIS_130 K_200um_350 ms 2x2mm1_189.txt
340.368	1	13
341.565	1	1
342.763	1	7
343.960	1	-6
345.157	1	-7
346.354	1	1
347.552	1	0
348.749	1	13
349.946	1	5
351.143	1	-3
352.340	1	19
353.537	1	-7
354.734	1	-4
355.931	1	-1
357.127	1	1
358.324	1	4
359.521	1	-8
360.718	1	-1
361.914	1	16
363.111	1	19
364.308	1	18
365.504	1	16
366.701	1	18
367.897	1	16
369.093	1	17
370.290	1	19
371.486	1	19
372.682	1	15
373.879	1	19
375.075	1	16
376.271	1	7
377.467	1	12
378.663	1	6
379.859	1	13
381.055	1	3
382.251	1	14
383.447	1	12
384.643	1	4
385.839	1	12
387.035	1	12
388.230	1	2
389.426	1	1
390.622	1	-3
391.817	1	7
393.013	1	15
394.208	1	8
395.404	1	2
396.599	1	12
397.795	1	2
398.990	1	6
400.186	1	-2
401.381	1	11
402.576	1	4
403.771	1	7
404.967	1	13
406.162	1	0
407.357	1	1
408.552	1	2
409.747	1	5
410.942	1	9
412.137	1	7
413.332	1	3
414.526	1	16
415.721	1	1
416.916	1	2
418.111	1	22
419.305	1	7
420.500	1	2
421.695	1	7
422.889	1	2
424.084	1	14
425.278	1	3
426.472	1	1
427.667	1	11
428.861	1	1
430.055	1	5
431.250	1	12
432.444	1	11
433.638	1	2
434.832	1	3
436.026	1	5
437.220	1	1
438.414	1	-8
439.608	1	12
440.802	1	-6
441.996	1	9
443.190	1	1
444.384	1	6
445.578	1	6
446.771	1	15
447.965	1	9
449.159	1	2
450.352	1	16
451.546	1	12
452.739	1	13
453.933	1	6
455.126	1	-5
456.320	1	-2
457.513	1	-12
458.706	1	6
459.899	1	0
461.093	1	8
462.286	1	14
463.479	1	15
464.672	1	5
465.865	1	-5
467.058	1	9
468.251	1	-1
469.444	1	3
470.637	1	6
471.830	1	9
473.023	1	11
474.215	1	10
475.408	1	4
476.601	1	3
477.793	1	2
478.986	1	4
480.179	1	5
481.371	1	8
482.564	1	2
483.756	1	5
484.948	1	2
486.141	1	2
487.333	1	2
488.525	1	7
489.718	1	2
490.910	1	-7
492.102	1	9
493.294	1	13
494.486	1	11
495.678	1	0
496.870	1	4
498.062	1	3
499.254	1	11
500.446	1	1
501.638	1	10
502.829	1	6
504.021	1	-2
505.213	1	6
506.404	1	7
507.596	1	4
508.788	1	1
509.979	1	-3
511.171	1	15
512.362	1	9
513.553	1	7
514.745	1	-5
515.936	1	16
517.127	1	11
518.319	1	4
519.510	1	2
520.701	1	5
521.892	1	11
523.083	1	12
524.274	1	1
525.465	1	11
526.656	1	9
527.847	1	6
529.038	1	-5
530.229	1	11
531.419	1	8
532.610	1	6
533.801	1	20
534.991	1	12
536.182	1	15
537.373	1	13
538.563	1	16
539.754	1	-1
540.944	1	13
542.134	1	4
543.325	1	9
544.515	1	2
545.705	1	5
546.896	1	-4
548.086	1	-3
549.276	1	1
550.466	1	5
551.656	1	12
552.846	1	1
554.036	1	9
555.226	1	11
556.416	1	7
557.606	1	-1
558.796	1	17
559.986	1	5
561.175	1	9
562.365	1	12
563.555	1	13
564.744	1	12
565.934	1	10
567.123	1	9
568.313	1	4
569.502	1	5
570.692	1	6
571.881	1	6
573.070	1	6
574.260	1	0
575.449	1	6
576.638	1	14
577.827	1	-6
579.016	1	-6
580.205	1	3
581.394	1	-2
582.583	1	6
583.772	1	14
584.961	1	-5
586.150	1	10
587.339	1	5
588.528	1	7
589.717	1	-16
590.905	1	10
592.094	1	5
593.283	1	-6
594.471	1	8
595.660	1	2
596.848	1	-3
598.037	1	3
599.225	1	1
600.413	1	8
601.602	1	-1
602.790	1	-8
603.978	1	-3
605.166	1	15
606.355	1	3
607.543	1	0
608.731	1	3
609.919	1	1
611.107	1	5
612.295	1	5
613.483	1	-3
614.671	1	7
615.858	1	-2
617.046	1	-1
618.234	1	7
619.422	1	-1
620.609	1	-4
621.797	1	7
622.985	1	4
624.172	1	-4
625.360	1	8
626.547	1	15
627.735	1	11
628.922	1	-6
630.109	1	11
631.297	1	1
632.484	1	-4
633.671	1	-11
634.858	1	12
636.045	1	11
637.232	1	3
638.419	1	5
639.606	1	8
640.793	1	-5
641.980	1	-1
643.167	1	2
644.354	1	-2
645.541	1	2
646.728	1	5
647.914	1	-4
649.101	1	1
650.288	1	7
651.474	1	-4
652.661	1	-3
653.847	1	3
655.034	1	-7
656.220	1	3
657.406	1	8
658.593	1	-8
659.779	1	7
660.965	1	4
662.152	1	-1
663.338	1	0
664.524	1	-7
665.710	1	1
666.896	1	5
668.082	1	-3
669.268	1	5
670.454	1	6
671.640	1	-5
672.826	1	-5
674.011	1	7
675.197	1	2
676.383	1	8
677.569	1	6
678.754	1	4
679.940	1	-1
681.125	1	16
682.311	1	-4
683.496	1	-3
684.682	1	0
685.867	1	10
687.053	1	-3
688.238	1	13
688.746	1	-2

File: GaN_sample F_spot6_UVVIS_130 K_200um_350 ms 2x2mm1_190.txt
340.368	1	7
341.565	1	0
342.763	1	1
343.960	1	-5
345.157	1	-16
346.354	1	6
347.552	1	-8
348.749	1	3
349.946	1	9
351.143	1	2
352.340	1	14
353.537	1	10
354.734	1	3
355.931	1	12
357.127	1	2
358.324	1	-3
359.521	1	1
360.718	1	11
361.914	1	-6
363.111	1	16
364.308	1	13
365.504	1	13
366.701	1	16
367.897	1	27
369.093	1	21
370.290	1	27
371.486	1	19
372.682	1	19
373.879	1	11
375.075	1	16
376.271	1	7
377.467	1	15
378.663	1	11
379.859	1	7
381.055	1	7
382.251	1	11
383.447	1	7
384.643	1	8
385.839	1	7
387.035	1	20
388.230	1	9
389.426	1	4
390.622	1	2
391.817	1	1
393.013	1	14
394.208	1	-2
395.404	1	-7
396.599	1	11
397.795	1	6
398.990	1	-1
400.186	1	2
401.381	1	3
402.576	1	11
403.771	1	12
404.967	1	2
406.162	1	10
407.357	1	7
408.552	1	4
409.747	1	6
410.942	1	6
412.137	1	3
413.332	1	6
414.526	1	2
415.721	1	9
416.916	1	13
418.111	1	8
419.305	1	9
420.500	1	12
421.695	1	2
422.889	1	10
424.084	1	6
425.278	1	5
426.472	1	13
427.667	1	7
428.861	1	-3
430.055	1	9
431.250	1	12
432.444	1	9
433.638	1	6
434.832	1	7
436.026	1	8
437.220	1	-2
438.414	1	-3
439.608	1	25
440.802	1	-8
441.996	1	19
443.190	1	12
444.384	1	-1
445.578	1	-1
446.771	1	11
447.965	1	3
449.159	1	4
450.352	1	8
451.546	1	-2
452.739	1	2
453.933	1	-2
455.126	1	-3
456.320	1	4
457.513	1	1
458.706	1	9
459.899	1	0
461.093	1	4
462.286	1	10
463.479	1	5
464.672	1	10
465.865	1	-5
467.058	1	5
468.251	1	1
469.444	1	3
470.637	1	3
471.830	1	0
473.023	1	4
474.215	1	7
475.408	1	-2
476.601	1	5
477.793	1	3
478.986	1	-7
480.179	1	-3
481.371	1	12
482.564	1	3
483.756	1	4
484.948	1	7
486.141	1	4
487.333	1	-5
488.525	1	-2
489.718	1	11
490.910	1	-2
492.102	1	17
493.294	1	9
494.486	1	19
495.678	1	1
496.870	1	-1
498.062	1	-14
499.254	1	11
500.446	1	5
501.638	1	7
502.829	1	6
504.021	1	9
505.213	1	9
506.404	1	9
507.596	1	1
508.788	1	8
509.979	1	8
511.171	1	9
512.362	1	-1
513.553	1	12
514.745	1	9
515.936	1	6
517.127	1	0
518.319	1	0
519.510	1	6
520.701	1	4
521.892	1	16
523.083	1	9
524.274	1	-2
525.465	1	12
526.656	1	12
527.847	1	7
529.038	1	-2
530.229	1	10
531.419	1	12
532.610	1	4
533.801	1	11
534.991	1	5
536.182	1	14
537.373	1	2
538.563	1	7
539.754	1	6
540.944	1	8
542.134	1	4
543.325	1	0
544.515	1	4
545.705	1	6
546.896	1	10
548.086	1	2
549.276	1	2
550.466	1	10
551.656	1	11
552.846	1	2
554.036	1	8
555.226	1	15
556.416	1	11
557.606	1	11
558.796	1	18
559.986	1	10
561.175	1	1
562.365	1	12
563.555	1	16
564.744	1	3
565.934	1	6
567.123	1	6
568.313	1	7
569.502	1	4
570.692	1	10
571.881	1	8
573.070	1	1
574.260	1	6
575.449	1	8
576.638	1	3
577.827	1	6
579.016	1	-2
580.205	1	-5
581.394	1	3
582.583	1	8
583.772	1	4
584.961	1	4
586.150	1	8
587.339	1	-1
588.528	1	8
589.717	1	2
590.905	1	16
592.094	1	5
593.283	1	-8
594.471	1	5
595.660	1	13
596.848	1	0
598.037	1	8
599.225	1	5
600.413	1	14
601.602	1	0
602.790	1	-3
603.978	1	4
605.166	1	-4
606.355	1	12
607.543	1	1
608.731	1	7
609.919	1	7
611.107	1	5
612.295	1	9
613.483	1	1
614.671	1	4
615.858	1	2
617.046	1	13
618.234	1	4
619.422	1	4
620.609	1	-4
621.797	1	3
622.985	1	6
624.172	1	1
625.360	1	5
626.547	1	0
627.735	1	3
628.922	1	-3
630.109	1	12
631.297	1	-8
632.484	1	-11
633.671	1	2
634.858	1	5
636.045	1	17
637.232	1	-4
638.419	1	10
639.606	1	5
640.793	1	-6
641.980	1	-3
643.167	1	1
644.354	1	-12
645.541	1	-1
646.728	1	-2
647.914	1	-2
649.101	1	2
650.288	1	9
651.474	1	-1
652.661	1	4
653.847	1	-3
655.034	1	3
656.220	1	0
657.406	1	5
658.593	1	-2
659.779	1	5
660.965	1	-1
662.152	1	-1
663.338	1	3
664.524	1	-4
665.710	1	10
666.896	1	8
668.082	1	2
669.268	1	6
670.454	1	12
671.640	1	-6
672.826	1	7
674.011	1	1
675.197	1	-2
676.383	1	2
677.569	1	0
678.754	1	5
679.940	1	0
681.125	1	6
682.311	1	-7
683.496	1	-8
684.682	1	4
685.867	1	5
687.053	1	4
688.238	1	10
688.746	1	14

File: GaN_sample F_spot6_UVVIS_130 K_200um_350 ms 2x2mm1_191.txt
340.368	1	6
341.565	1	-4
342.763	1	6
343.960	1	-3
345.157	1	-11
346.354	1	-7
347.552	1	5
348.749	1	1
349.946	1	5
351.143	1	0
352.340	1	17
353.537	1	8
354.734	1	-3
355.931	1	3
357.127	1	18
358.324	1	3
359.521	1	6
360.718	1	15
361.914	1	15
363.111	1	21
364.308	1	20
365.504	1	25
366.701	1	19
367.897	1	14
369.093	1	11
370.290	1	28
371.486	1	12
372.682	1	17
373.879	1	19
375.075	1	16
376.271	1	9
377.467	1	18
378.663	1	20
379.859	1	9
381.055	1	12
382.251	1	8
383.447	1	6
384.643	1	12
385.839	1	5
387.035	1	11
388.230	1	-5
389.426	1	5
390.622	1	20
391.817	1	8
393.013	1	9
394.208	1	2
395.404	1	-7
396.599	1	9
397.795	1	-3
398.990	1	1
400.186	1	3
401.381	1	6
402.576	1	13
403.771	1	14
404.967	1	1
406.162	1	-3
407.357	1	2
408.552	1	-3
409.747	1	1
410.942	1	1
412.137	1	0
413.332	1	4
414.526	1	7
415.721	1	0
416.916	1	5
418.111	1	7
419.305	1	11
420.500	1	14
421.695	1	-1
422.889	1	1
424.084	1	8
425.278	1	7
426.472	1	3
427.667	1	16
428.861	1	6
430.055	1	4
431.250	1	8
432.444	1	14
433.638	1	11
434.832	1	6
436.026	1	7
437.220	1	1
438.414	1	1
439.608	1	18
440.802	1	4
441.996	1	16
443.190	1	-6
444.384	1	2
445.578	1	-3
446.771	1	7
447.965	1	6
449.159	1	8
450.352	1	20
451.546	1	8
452.739	1	9
453.933	1	0
455.126	1	-6
456.320	1	-3
457.513	1	-1
458.706	1	10
459.899	1	4
461.093	1	7
462.286	1	4
463.479	1	7
464.672	1	5
465.865	1	2
467.058	1	3
468.251	1	6
469.444	1	4
470.637	1	6
471.830	1	8
473.023	1	11
474.215	1	2
475.408	1	7
476.601	1	3
477.793	1	-1
478.986	1	0
480.179	1	-2
481.371	1	13
482.564	1	0
483.756	1	-3
484.948	1	8
486.141	1	4
487.333	1	4
488.525	1	11
489.718	1	7
490.910	1	2
492.102	1	11
493.294	1	6
494.486	1	11
495.678	1	5
496.870	1	-2
498.062	1	1
499.254	1	6
500.446	1	2
501.638	1	9
502.829	1	-2
504.021	1	3
505.213	1	9
506.404	1	2
507.596	1	12
508.788	1	-3
509.979	1	4
511.171	1	12
512.362	1	7
513.553	1	7
514.745	1	4
515.936	1	12
517.127	1	2
518.319	1	1
519.510	1	0
520.701	1	3
521.892	1	6
523.083	1	2
524.274	1	-8
525.465	1	5
526.656	1	12
527.847	1	0
529.038	1	2
530.229	1	16
531.419	1	11
532.610	1	-6
533.801	1	14
534.991	1	7
536.182	1	15
537.373	1	14
538.563	1	12
539.754	1	6
540.944	1	6
542.134	1	2
543.325	1	4
544.515	1	0
545.705	1	7
546.896	1	6
548.086	1	-4
549.276	1	-6
550.466	1	0
551.656	1	12
552.846	1	0
554.036	1	8
555.226	1	3
556.416	1	9
557.606	1	-4
558.796	1	9
559.986	1	6
561.175	1	2
562.365	1	5
563.555	1	9
564.744	1	3
565.934	1	2
567.123	1	11
568.313	1	6
569.502	1	4
570.692	1	14
571.881	1	-8
573.070	1	-4
574.260	1	8
575.449	1	8
576.638	1	0
577.827	1	3
579.016	1	-1
580.205	1	-2
581.394	1	2
582.583	1	5
583.772	1	-5
584.961	1	9
586.150	1	16
587.339	1	-2
588.528	1	11
589.717	1	5
590.905	1	18
592.094	1	-2
593.283	1	-11
594.471	1	7
595.660	1	6
596.848	1	5
598.037	1	8
599.225	1	7
600.413	1	18
601.602	1	-8
602.790	1	1
603.978	1	6
605.166	1	8
606.355	1	8
607.543	1	7
608.731	1	-2
609.919	1	10
611.107	1	10
612.295	1	12
613.483	1	1
614.671	1	-2
615.858	1	-8
617.046	1	0
618.234	1	0
619.422	1	-4
620.609	1	-4
621.797	1	3
622.985	1	8
624.172	1	9
625.360	1	7
626.547	1	1
627.735	1	12
628.922	1	-8
630.109	1	8
631.297	1	9
632.484	1	-7
633.671	1	1
634.858	1	7
636.045	1	17
637.232	1	-5
638.419	1	8
639.606	1	5
640.793	1	-8
641.980	1	-6
643.167	1	-2
644.354	1	-8
645.541	1	-5
646.728	1	11
647.914	1	-1
649.101	1	-2
650.288	1	2
651.474	1	-3
652.661	1	-6
653.847	1	0
655.034	1	4
656.220	1	7
657.406	1	14
658.593	1	5
659.779	1	5
660.965	1	4
662.152	1	1
663.338	1	3
664.524	1	0
665.710	1	1
666.896	1	6
668.082	1	-7
669.268	1	-1
670.454	1	0
671.640	1	-8
672.826	1	5
674.011	1	2
675.197	1	-2
676.383	1	8
677.569	1	2
678.754	1	3
679.940	1	2
681.125	1	22
682.311	1	-9
683.496	1	-2
684.682	1	-4
685.867	1	-4
687.053	1	-1
688.238	1	6
688.746	1	6