Folder: cryo-il_analysis/Data/GaN_150K_450ms (part 15)

File: GaN_sample D_spot15_UVVIS_150 K_200um_450 ms 2x2mm1_123.txt
340.368	1	1
341.565	1	3
342.763	1	1
343.960	1	8
345.157	1	18
346.354	1	0
347.552	1	15
348.749	1	17
349.946	1	-2
351.143	1	11
352.340	1	21
353.537	1	-5
354.734	1	17
355.931	1	12
357.127	1	17
358.324	1	15
359.521	1	18
360.718	1	17
361.914	1	20
363.111	1	22
364.308	1	32
365.504	1	35
366.701	1	44
367.897	1	62
369.093	1	61
370.290	1	56
371.486	1	46
372.682	1	48
373.879	1	41
375.075	1	25
376.271	1	25
377.467	1	34
378.663	1	14
379.859	1	18
381.055	1	14
382.251	1	5
383.447	1	14
384.643	1	3
385.839	1	12
387.035	1	8
388.230	1	6
389.426	1	8
390.622	1	3
391.817	1	-6
393.013	1	16
394.208	1	4
395.404	1	6
396.599	1	4
397.795	1	7
398.990	1	13
400.186	1	4
401.381	1	12
402.576	1	13
403.771	1	-1
404.967	1	12
406.162	1	9
407.357	1	6
408.552	1	7
409.747	1	5
410.942	1	20
412.137	1	9
413.332	1	13
414.526	1	1
415.721	1	13
416.916	1	16
418.111	1	14
419.305	1	16
420.500	1	19
421.695	1	19
422.889	1	16
424.084	1	11
425.278	1	11
426.472	1	22
427.667	1	18
428.861	1	23
430.055	1	21
431.250	1	19
432.444	1	8
433.638	1	14
434.832	1	13
436.026	1	12
437.220	1	22
438.414	1	19
439.608	1	3
440.802	1	11
441.996	1	11
443.190	1	17
444.384	1	20
445.578	1	5
446.771	1	10
447.965	1	7
449.159	1	-2
450.352	1	9
451.546	1	2
452.739	1	6
453.933	1	-3
455.126	1	13
456.320	1	4
457.513	1	6
458.706	1	5
459.899	1	-1
461.093	1	3
462.286	1	8
463.479	1	0
464.672	1	8
465.865	1	4
467.058	1	2
468.251	1	0
469.444	1	16
470.637	1	4
471.830	1	3
473.023	1	11
474.215	1	1
475.408	1	3
476.601	1	4
477.793	1	2
478.986	1	12
480.179	1	13
481.371	1	-3
482.564	1	14
483.756	1	12
484.948	1	4
486.141	1	13
487.333	1	3
488.525	1	-1
489.718	1	-4
490.910	1	16
492.102	1	10
493.294	1	-3
494.486	1	8
495.678	1	6
496.870	1	11
498.062	1	0
499.254	1	8
500.446	1	11
501.638	1	16
502.829	1	6
504.021	1	14
505.213	1	-1
506.404	1	9
507.596	1	20
508.788	1	6
509.979	1	10
511.171	1	8
512.362	1	24
513.553	1	17
514.745	1	7
515.936	1	16
517.127	1	26
518.319	1	18
519.510	1	5
520.701	1	14
521.892	1	13
523.083	1	6
524.274	1	13
525.465	1	22
526.656	1	13
527.847	1	7
529.038	1	21
530.229	1	17
531.419	1	11
532.610	1	21
533.801	1	22
534.991	1	14
536.182	1	4
537.373	1	12
538.563	1	13
539.754	1	9
540.944	1	15
542.134	1	12
543.325	1	27
544.515	1	13
545.705	1	2
546.896	1	17
548.086	1	12
549.276	1	13
550.466	1	11
551.656	1	15
552.846	1	11
554.036	1	12
555.226	1	15
556.416	1	20
557.606	1	7
558.796	1	17
559.986	1	21
561.175	1	13
562.365	1	6
563.555	1	2
564.744	1	19
565.934	1	14
567.123	1	8
568.313	1	9
569.502	1	11
570.692	1	19
571.881	1	6
573.070	1	10
574.260	1	20
575.449	1	0
576.638	1	7
577.827	1	3
579.016	1	0
580.205	1	2
581.394	1	1
582.583	1	3
583.772	1	7
584.961	1	-2
586.150	1	18
587.339	1	9
588.528	1	2
589.717	1	8
590.905	1	8
592.094	1	13
593.283	1	11
594.471	1	4
595.660	1	10
596.848	1	7
598.037	1	10
599.225	1	2
600.413	1	5
601.602	1	12
602.790	1	-4
603.978	1	3
605.166	1	6
606.355	1	-6
607.543	1	8
608.731	1	2
609.919	1	-4
611.107	1	15
612.295	1	4
613.483	1	10
614.671	1	6
615.858	1	3
617.046	1	4
618.234	1	5
619.422	1	17
620.609	1	3
621.797	1	1
622.985	1	8
624.172	1	7
625.360	1	16
626.547	1	4
627.735	1	1
628.922	1	13
630.109	1	-1
631.297	1	10
632.484	1	1
633.671	1	4
634.858	1	3
636.045	1	-6
637.232	1	0
638.419	1	-2
639.606	1	4
640.793	1	13
641.980	1	8
643.167	1	3
644.354	1	14
645.541	1	7
646.728	1	10
647.914	1	11
649.101	1	5
650.288	1	3
651.474	1	19
652.661	1	8
653.847	1	12
655.034	1	-4
656.220	1	-1
657.406	1	-3
658.593	1	12
659.779	1	12
660.965	1	4
662.152	1	1
663.338	1	1
664.524	1	13
665.710	1	1
666.896	1	4
668.082	1	5
669.268	1	7
670.454	1	14
671.640	1	10
672.826	1	6
674.011	1	5
675.197	1	6
676.383	1	7
677.569	1	16
678.754	1	5
679.940	1	-3
681.125	1	-2
682.311	1	16
683.496	1	6
684.682	1	5
685.867	1	1
687.053	1	23
688.238	1	10
688.746	1	8

File: GaN_sample D_spot15_UVVIS_150 K_200um_450 ms 2x2mm1_124.txt
340.368	1	8
341.565	1	16
342.763	1	9
343.960	1	3
345.157	1	17
346.354	1	5
347.552	1	20
348.749	1	11
349.946	1	3
351.143	1	9
352.340	1	6
353.537	1	1
354.734	1	6
355.931	1	12
357.127	1	15
358.324	1	15
359.521	1	20
360.718	1	8
361.914	1	17
363.111	1	19
364.308	1	37
365.504	1	31
366.701	1	52
367.897	1	52
369.093	1	56
370.290	1	57
371.486	1	50
372.682	1	47
373.879	1	33
375.075	1	31
376.271	1	20
377.467	1	30
378.663	1	20
379.859	1	15
381.055	1	10
382.251	1	11
383.447	1	14
384.643	1	15
385.839	1	20
387.035	1	11
388.230	1	14
389.426	1	8
390.622	1	6
391.817	1	-2
393.013	1	19
394.208	1	10
395.404	1	15
396.599	1	7
397.795	1	13
398.990	1	24
400.186	1	12
401.381	1	6
402.576	1	16
403.771	1	0
404.967	1	2
406.162	1	7
407.357	1	20
408.552	1	9
409.747	1	1
410.942	1	17
412.137	1	6
413.332	1	17
414.526	1	0
415.721	1	20
416.916	1	12
418.111	1	19
419.305	1	22
420.500	1	20
421.695	1	30
422.889	1	10
424.084	1	5
425.278	1	11
426.472	1	11
427.667	1	11
428.861	1	7
430.055	1	18
431.250	1	14
432.444	1	13
433.638	1	14
434.832	1	10
436.026	1	12
437.220	1	20
438.414	1	25
439.608	1	9
440.802	1	11
441.996	1	6
443.190	1	6
444.384	1	13
445.578	1	11
446.771	1	9
447.965	1	1
449.159	1	3
450.352	1	5
451.546	1	14
452.739	1	8
453.933	1	6
455.126	1	9
456.320	1	9
457.513	1	5
458.706	1	20
459.899	1	-1
461.093	1	8
462.286	1	4
463.479	1	11
464.672	1	8
465.865	1	3
467.058	1	4
468.251	1	10
469.444	1	7
470.637	1	8
471.830	1	-2
473.023	1	12
474.215	1	10
475.408	1	8
476.601	1	5
477.793	1	4
478.986	1	5
480.179	1	5
481.371	1	-6
482.564	1	13
483.756	1	9
484.948	1	10
486.141	1	15
487.333	1	-2
488.525	1	-8
489.718	1	12
490.910	1	11
492.102	1	12
493.294	1	-3
494.486	1	2
495.678	1	3
496.870	1	16
498.062	1	5
499.254	1	-2
500.446	1	5
501.638	1	13
502.829	1	0
504.021	1	16
505.213	1	6
506.404	1	11
507.596	1	13
508.788	1	11
509.979	1	11
511.171	1	9
512.362	1	21
513.553	1	7
514.745	1	11
515.936	1	3
517.127	1	16
518.319	1	20
519.510	1	11
520.701	1	22
521.892	1	5
523.083	1	10
524.274	1	14
525.465	1	25
526.656	1	14
527.847	1	1
529.038	1	20
530.229	1	27
531.419	1	20
532.610	1	15
533.801	1	16
534.991	1	13
536.182	1	22
537.373	1	7
538.563	1	11
539.754	1	24
540.944	1	14
542.134	1	13
543.325	1	19
544.515	1	7
545.705	1	11
546.896	1	13
548.086	1	8
549.276	1	16
550.466	1	19
551.656	1	13
552.846	1	13
554.036	1	17
555.226	1	12
556.416	1	14
557.606	1	6
558.796	1	11
559.986	1	18
561.175	1	11
562.365	1	16
563.555	1	12
564.744	1	19
565.934	1	23
567.123	1	18
568.313	1	13
569.502	1	9
570.692	1	11
571.881	1	12
573.070	1	13
574.260	1	13
575.449	1	0
576.638	1	16
577.827	1	6
579.016	1	12
580.205	1	12
581.394	1	7
582.583	1	10
583.772	1	19
584.961	1	1
586.150	1	-1
587.339	1	6
588.528	1	0
589.717	1	9
590.905	1	6
592.094	1	14
593.283	1	9
594.471	1	-11
595.660	1	12
596.848	1	12
598.037	1	-9
599.225	1	6
600.413	1	1
601.602	1	7
602.790	1	9
603.978	1	2
605.166	1	6
606.355	1	-7
607.543	1	11
608.731	1	-5
609.919	1	-3
611.107	1	21
612.295	1	14
613.483	1	2
614.671	1	-6
615.858	1	3
617.046	1	-2
618.234	1	0
619.422	1	19
620.609	1	-4
621.797	1	9
622.985	1	2
624.172	1	8
625.360	1	8
626.547	1	3
627.735	1	3
628.922	1	6
630.109	1	-4
631.297	1	6
632.484	1	2
633.671	1	15
634.858	1	7
636.045	1	-4
637.232	1	8
638.419	1	4
639.606	1	10
640.793	1	11
641.980	1	12
643.167	1	4
644.354	1	9
645.541	1	6
646.728	1	4
647.914	1	5
649.101	1	4
650.288	1	10
651.474	1	8
652.661	1	9
653.847	1	7
655.034	1	4
656.220	1	7
657.406	1	-1
658.593	1	13
659.779	1	10
660.965	1	8
662.152	1	7
663.338	1	1
664.524	1	4
665.710	1	6
666.896	1	15
668.082	1	7
669.268	1	-7
670.454	1	16
671.640	1	13
672.826	1	-3
674.011	1	16
675.197	1	8
676.383	1	1
677.569	1	17
678.754	1	5
679.940	1	-5
681.125	1	-3
682.311	1	11
683.496	1	-2
684.682	1	7
685.867	1	-3
687.053	1	19
688.238	1	11
688.746	1	1

File: GaN_sample D_spot15_UVVIS_150 K_200um_450 ms 2x2mm1_125.txt
340.368	1	5
341.565	1	3
342.763	1	9
343.960	1	5
345.157	1	8
346.354	1	6
347.552	1	16
348.749	1	11
349.946	1	3
351.143	1	6
352.340	1	14
353.537	1	-5
354.734	1	8
355.931	1	11
357.127	1	22
358.324	1	6
359.521	1	22
360.718	1	19
361.914	1	20
363.111	1	20
364.308	1	39
365.504	1	39
366.701	1	43
367.897	1	52
369.093	1	58
370.290	1	57
371.486	1	54
372.682	1	48
373.879	1	28
375.075	1	18
376.271	1	23
377.467	1	30
378.663	1	20
379.859	1	22
381.055	1	17
382.251	1	5
383.447	1	8
384.643	1	8
385.839	1	9
387.035	1	20
388.230	1	8
389.426	1	3
390.622	1	4
391.817	1	0
393.013	1	13
394.208	1	11
395.404	1	13
396.599	1	15
397.795	1	4
398.990	1	18
400.186	1	13
401.381	1	17
402.576	1	10
403.771	1	2
404.967	1	8
406.162	1	2
407.357	1	9
408.552	1	10
409.747	1	20
410.942	1	20
412.137	1	3
413.332	1	14
414.526	1	4
415.721	1	22
416.916	1	4
418.111	1	8
419.305	1	15
420.500	1	16
421.695	1	8
422.889	1	6
424.084	1	9
425.278	1	11
426.472	1	14
427.667	1	7
428.861	1	16
430.055	1	14
431.250	1	19
432.444	1	14
433.638	1	21
434.832	1	5
436.026	1	0
437.220	1	23
438.414	1	19
439.608	1	7
440.802	1	7
441.996	1	12
443.190	1	17
444.384	1	18
445.578	1	9
446.771	1	7
447.965	1	5
449.159	1	3
450.352	1	9
451.546	1	10
452.739	1	12
453.933	1	7
455.126	1	1
456.320	1	9
457.513	1	7
458.706	1	10
459.899	1	4
461.093	1	6
462.286	1	0
463.479	1	13
464.672	1	6
465.865	1	8
467.058	1	11
468.251	1	1
469.444	1	12
470.637	1	7
471.830	1	6
473.023	1	-1
474.215	1	11
475.408	1	-5
476.601	1	5
477.793	1	5
478.986	1	9
480.179	1	5
481.371	1	4
482.564	1	12
483.756	1	1
484.948	1	13
486.141	1	1
487.333	1	-2
488.525	1	5
489.718	1	0
490.910	1	9
492.102	1	10
493.294	1	3
494.486	1	1
495.678	1	11
496.870	1	-2
498.062	1	2
499.254	1	7
500.446	1	9
501.638	1	10
502.829	1	8
504.021	1	18
505.213	1	2
506.404	1	12
507.596	1	16
508.788	1	13
509.979	1	4
511.171	1	13
512.362	1	23
513.553	1	8
514.745	1	9
515.936	1	13
517.127	1	20
518.319	1	11
519.510	1	11
520.701	1	18
521.892	1	4
523.083	1	16
524.274	1	8
525.465	1	32
526.656	1	16
527.847	1	3
529.038	1	12
530.229	1	26
531.419	1	21
532.610	1	20
533.801	1	8
534.991	1	16
536.182	1	15
537.373	1	10
538.563	1	3
539.754	1	6
540.944	1	9
542.134	1	12
543.325	1	18
544.515	1	13
545.705	1	12
546.896	1	11
548.086	1	15
549.276	1	22
550.466	1	6
551.656	1	11
552.846	1	14
554.036	1	23
555.226	1	7
556.416	1	19
557.606	1	3
558.796	1	29
559.986	1	16
561.175	1	8
562.365	1	8
563.555	1	11
564.744	1	11
565.934	1	15
567.123	1	2
568.313	1	11
569.502	1	18
570.692	1	9
571.881	1	-1
573.070	1	12
574.260	1	4
575.449	1	-2
576.638	1	10
577.827	1	6
579.016	1	7
580.205	1	9
581.394	1	1
582.583	1	7
583.772	1	9
584.961	1	-1
586.150	1	15
587.339	1	10
588.528	1	-3
589.717	1	12
590.905	1	1
592.094	1	4
593.283	1	12
594.471	1	-5
595.660	1	-1
596.848	1	6
598.037	1	11
599.225	1	9
600.413	1	5
601.602	1	7
602.790	1	4
603.978	1	13
605.166	1	13
606.355	1	-4
607.543	1	12
608.731	1	-1
609.919	1	-5
611.107	1	15
612.295	1	11
613.483	1	2
614.671	1	9
615.858	1	2
617.046	1	0
618.234	1	0
619.422	1	16
620.609	1	-4
621.797	1	-1
622.985	1	1
624.172	1	9
625.360	1	2
626.547	1	-4
627.735	1	1
628.922	1	9
630.109	1	-1
631.297	1	6
632.484	1	12
633.671	1	2
634.858	1	3
636.045	1	-1
637.232	1	7
638.419	1	-1
639.606	1	7
640.793	1	9
641.980	1	11
643.167	1	9
644.354	1	8
645.541	1	3
646.728	1	14
647.914	1	5
649.101	1	0
650.288	1	8
651.474	1	9
652.661	1	12
653.847	1	10
655.034	1	1
656.220	1	7
657.406	1	-5
658.593	1	9
659.779	1	10
660.965	1	10
662.152	1	-3
663.338	1	-4
664.524	1	13
665.710	1	8
666.896	1	7
668.082	1	11
669.268	1	5
670.454	1	4
671.640	1	10
672.826	1	5
674.011	1	8
675.197	1	8
676.383	1	4
677.569	1	13
678.754	1	6
679.940	1	-4
681.125	1	0
682.311	1	10
683.496	1	-5
684.682	1	16
685.867	1	9
687.053	1	15
688.238	1	5
688.746	1	6

File: GaN_sample D_spot15_UVVIS_150 K_200um_450 ms 2x2mm1_126.txt
340.368	1	7
341.565	1	7
342.763	1	10
343.960	1	8
345.157	1	25
346.354	1	7
347.552	1	15
348.749	1	16
349.946	1	3
351.143	1	7
352.340	1	18
353.537	1	2
354.734	1	12
355.931	1	12
357.127	1	16
358.324	1	12
359.521	1	22
360.718	1	13
361.914	1	19
363.111	1	24
364.308	1	42
365.504	1	40
366.701	1	54
367.897	1	53
369.093	1	65
370.290	1	55
371.486	1	50
372.682	1	43
373.879	1	27
375.075	1	31
376.271	1	22
377.467	1	21
378.663	1	10
379.859	1	12
381.055	1	-1
382.251	1	-4
383.447	1	9
384.643	1	8
385.839	1	11
387.035	1	16
388.230	1	8
389.426	1	7
390.622	1	2
391.817	1	1
393.013	1	11
394.208	1	8
395.404	1	6
396.599	1	1
397.795	1	4
398.990	1	17
400.186	1	18
401.381	1	8
402.576	1	18
403.771	1	7
404.967	1	9
406.162	1	4
407.357	1	18
408.552	1	-4
409.747	1	9
410.942	1	15
412.137	1	6
413.332	1	11
414.526	1	1
415.721	1	7
416.916	1	5
418.111	1	20
419.305	1	18
420.500	1	11
421.695	1	0
422.889	1	14
424.084	1	20
425.278	1	8
426.472	1	10
427.667	1	-3
428.861	1	19
430.055	1	14
431.250	1	13
432.444	1	19
433.638	1	18
434.832	1	13
436.026	1	9
437.220	1	12
438.414	1	8
439.608	1	1
440.802	1	8
441.996	1	7
443.190	1	7
444.384	1	11
445.578	1	0
446.771	1	15
447.965	1	3
449.159	1	0
450.352	1	6
451.546	1	7
452.739	1	13
453.933	1	-1
455.126	1	11
456.320	1	19
457.513	1	11
458.706	1	10
459.899	1	3
461.093	1	10
462.286	1	3
463.479	1	9
464.672	1	11
465.865	1	9
467.058	1	10
468.251	1	-5
469.444	1	9
470.637	1	15
471.830	1	4
473.023	1	14
474.215	1	8
475.408	1	3
476.601	1	11
477.793	1	-1
478.986	1	8
480.179	1	8
481.371	1	5
482.564	1	2
483.756	1	17
484.948	1	11
486.141	1	13
487.333	1	-6
488.525	1	3
489.718	1	1
490.910	1	8
492.102	1	7
493.294	1	2
494.486	1	-2
495.678	1	11
496.870	1	5
498.062	1	0
499.254	1	2
500.446	1	3
501.638	1	11
502.829	1	4
504.021	1	13
505.213	1	3
506.404	1	3
507.596	1	19
508.788	1	13
509.979	1	0
511.171	1	10
512.362	1	20
513.553	1	9
514.745	1	13
515.936	1	1
517.127	1	24
518.319	1	17
519.510	1	10
520.701	1	14
521.892	1	19
523.083	1	10
524.274	1	15
525.465	1	22
526.656	1	15
527.847	1	8
529.038	1	25
530.229	1	12
531.419	1	14
532.610	1	19
533.801	1	20
534.991	1	19
536.182	1	13
537.373	1	17
538.563	1	12
539.754	1	9
540.944	1	20
542.134	1	13
543.325	1	12
544.515	1	13
545.705	1	13
546.896	1	11
548.086	1	16
549.276	1	14
550.466	1	16
551.656	1	16
552.846	1	21
554.036	1	13
555.226	1	8
556.416	1	23
557.606	1	-2
558.796	1	21
559.986	1	14
561.175	1	5
562.365	1	9
563.555	1	14
564.744	1	12
565.934	1	20
567.123	1	4
568.313	1	13
569.502	1	9
570.692	1	16
571.881	1	5
573.070	1	9
574.260	1	17
575.449	1	10
576.638	1	13
577.827	1	8
579.016	1	3
580.205	1	8
581.394	1	4
582.583	1	8
583.772	1	12
584.961	1	0
586.150	1	6
587.339	1	1
588.528	1	0
589.717	1	6
590.905	1	7
592.094	1	10
593.283	1	11
594.471	1	-2
595.660	1	8
596.848	1	13
598.037	1	-1
599.225	1	1
600.413	1	7
601.602	1	9
602.790	1	8
603.978	1	2
605.166	1	2
606.355	1	-5
607.543	1	11
608.731	1	-3
609.919	1	-5
611.107	1	12
612.295	1	15
613.483	1	7
614.671	1	12
615.858	1	-8
617.046	1	9
618.234	1	1
619.422	1	8
620.609	1	2
621.797	1	12
622.985	1	6
624.172	1	10
625.360	1	7
626.547	1	-4
627.735	1	6
628.922	1	9
630.109	1	-4
631.297	1	-1
632.484	1	10
633.671	1	15
634.858	1	7
636.045	1	1
637.232	1	11
638.419	1	6
639.606	1	8
640.793	1	8
641.980	1	9
643.167	1	4
644.354	1	13
645.541	1	8
646.728	1	4
647.914	1	9
649.101	1	6
650.288	1	0
651.474	1	13
652.661	1	4
653.847	1	2
655.034	1	3
656.220	1	5
657.406	1	1
658.593	1	14
659.779	1	6
660.965	1	4
662.152	1	-4
663.338	1	-11
664.524	1	12
665.710	1	1
666.896	1	5
668.082	1	6
669.268	1	-3
670.454	1	7
671.640	1	4
672.826	1	-1
674.011	1	7
675.197	1	4
676.383	1	1
677.569	1	15
678.754	1	-6
679.940	1	-5
681.125	1	1
682.311	1	9
683.496	1	-7
684.682	1	13
685.867	1	-2
687.053	1	22
688.238	1	16
688.746	1	5

File: GaN_sample D_spot15_UVVIS_150 K_200um_450 ms 2x2mm1_128.txt
340.368	1	6
341.565	1	5
342.763	1	3
343.960	1	12
345.157	1	18
346.354	1	2
347.552	1	13
348.749	1	8
349.946	1	-3
351.143	1	4
352.340	1	7
353.537	1	-4
354.734	1	16
355.931	1	4
357.127	1	23
358.324	1	6
359.521	1	16
360.718	1	19
361.914	1	22
363.111	1	15
364.308	1	41
365.504	1	36
366.701	1	51
367.897	1	54
369.093	1	44
370.290	1	49
371.486	1	49
372.682	1	44
373.879	1	20
375.075	1	12
376.271	1	17
377.467	1	16
378.663	1	16
379.859	1	17
381.055	1	8
382.251	1	13
383.447	1	15
384.643	1	15
385.839	1	15
387.035	1	10
388.230	1	11
389.426	1	8
390.622	1	-4
391.817	1	0
393.013	1	21
394.208	1	0
395.404	1	15
396.599	1	16
397.795	1	6
398.990	1	18
400.186	1	10
401.381	1	10
402.576	1	16
403.771	1	-7
404.967	1	12
406.162	1	1
407.357	1	9
408.552	1	11
409.747	1	7
410.942	1	17
412.137	1	7
413.332	1	18
414.526	1	3
415.721	1	13
416.916	1	5
418.111	1	9
419.305	1	1
420.500	1	9
421.695	1	18
422.889	1	9
424.084	1	23
425.278	1	12
426.472	1	22
427.667	1	14
428.861	1	20
430.055	1	12
431.250	1	5
432.444	1	15
433.638	1	16
434.832	1	9
436.026	1	14
437.220	1	17
438.414	1	11
439.608	1	1
440.802	1	18
441.996	1	7
443.190	1	14
444.384	1	8
445.578	1	0
446.771	1	14
447.965	1	9
449.159	1	1
450.352	1	3
451.546	1	1
452.739	1	14
453.933	1	-2
455.126	1	5
456.320	1	13
457.513	1	2
458.706	1	16
459.899	1	6
461.093	1	11
462.286	1	4
463.479	1	6
464.672	1	9
465.865	1	3
467.058	1	16
468.251	1	-6
469.444	1	12
470.637	1	4
471.830	1	10
473.023	1	7
474.215	1	7
475.408	1	6
476.601	1	10
477.793	1	7
478.986	1	9
480.179	1	0
481.371	1	-5
482.564	1	12
483.756	1	7
484.948	1	6
486.141	1	14
487.333	1	-1
488.525	1	3
489.718	1	2
490.910	1	13
492.102	1	18
493.294	1	-1
494.486	1	8
495.678	1	13
496.870	1	10
498.062	1	0
499.254	1	1
500.446	1	1
501.638	1	5
502.829	1	-1
504.021	1	9
505.213	1	11
506.404	1	11
507.596	1	16
508.788	1	6
509.979	1	4
511.171	1	7
512.362	1	10
513.553	1	11
514.745	1	12
515.936	1	3
517.127	1	23
518.319	1	16
519.510	1	8
520.701	1	19
521.892	1	14
523.083	1	15
524.274	1	10
525.465	1	18
526.656	1	5
527.847	1	11
529.038	1	11
530.229	1	29
531.419	1	11
532.610	1	15
533.801	1	17
534.991	1	10
536.182	1	4
537.373	1	11
538.563	1	11
539.754	1	5
540.944	1	16
542.134	1	8
543.325	1	16
544.515	1	19
545.705	1	16
546.896	1	12
548.086	1	10
549.276	1	16
550.466	1	23
551.656	1	16
552.846	1	13
554.036	1	21
555.226	1	14
556.416	1	11
557.606	1	2
558.796	1	13
559.986	1	17
561.175	1	5
562.365	1	4
563.555	1	12
564.744	1	17
565.934	1	14
567.123	1	5
568.313	1	7
569.502	1	20
570.692	1	7
571.881	1	1
573.070	1	11
574.260	1	3
575.449	1	3
576.638	1	13
577.827	1	3
579.016	1	9
580.205	1	3
581.394	1	7
582.583	1	4
583.772	1	13
584.961	1	1
586.150	1	11
587.339	1	2
588.528	1	1
589.717	1	8
590.905	1	3
592.094	1	12
593.283	1	1
594.471	1	1
595.660	1	13
596.848	1	11
598.037	1	3
599.225	1	-3
600.413	1	-1
601.602	1	9
602.790	1	16
603.978	1	8
605.166	1	7
606.355	1	-1
607.543	1	5
608.731	1	2
609.919	1	-1
611.107	1	9
612.295	1	1
613.483	1	-1
614.671	1	13
615.858	1	-6
617.046	1	-2
618.234	1	0
619.422	1	18
620.609	1	-2
621.797	1	3
622.985	1	0
624.172	1	12
625.360	1	2
626.547	1	-4
627.735	1	6
628.922	1	18
630.109	1	-2
631.297	1	11
632.484	1	15
633.671	1	8
634.858	1	5
636.045	1	-4
637.232	1	9
638.419	1	6
639.606	1	13
640.793	1	2
641.980	1	17
643.167	1	7
644.354	1	15
645.541	1	4
646.728	1	12
647.914	1	6
649.101	1	2
650.288	1	-1
651.474	1	9
652.661	1	-2
653.847	1	11
655.034	1	5
656.220	1	4
657.406	1	0
658.593	1	6
659.779	1	16
660.965	1	-1
662.152	1	2
663.338	1	1
664.524	1	17
665.710	1	-1
666.896	1	6
668.082	1	4
669.268	1	1
670.454	1	7
671.640	1	5
672.826	1	12
674.011	1	8
675.197	1	6
676.383	1	2
677.569	1	7
678.754	1	0
679.940	1	-9
681.125	1	5
682.311	1	13
683.496	1	4
684.682	1	5
685.867	1	1
687.053	1	20
688.238	1	13
688.746	1	-4

File: GaN_sample D_spot15_UVVIS_150 K_200um_450 ms 2x2mm1_130.txt
340.368	1	10
341.565	1	4
342.763	1	7
343.960	1	13
345.157	1	12
346.354	1	6
347.552	1	17
348.749	1	8
349.946	1	2
351.143	1	6
352.340	1	10
353.537	1	3
354.734	1	8
355.931	1	13
357.127	1	15
358.324	1	10
359.521	1	21
360.718	1	13
361.914	1	23
363.111	1	17
364.308	1	41
365.504	1	35
366.701	1	53
367.897	1	53
369.093	1	57
370.290	1	44
371.486	1	45
372.682	1	44
373.879	1	31
375.075	1	23
376.271	1	29
377.467	1	31
378.663	1	21
379.859	1	15
381.055	1	19
382.251	1	3
383.447	1	16
384.643	1	15
385.839	1	16
387.035	1	12
388.230	1	7
389.426	1	-3
390.622	1	6
391.817	1	-5
393.013	1	18
394.208	1	7
395.404	1	7
396.599	1	7
397.795	1	14
398.990	1	23
400.186	1	13
401.381	1	7
402.576	1	19
403.771	1	1
404.967	1	14
406.162	1	-3
407.357	1	15
408.552	1	11
409.747	1	7
410.942	1	18
412.137	1	2
413.332	1	12
414.526	1	-2
415.721	1	12
416.916	1	0
418.111	1	15
419.305	1	9
420.500	1	17
421.695	1	12
422.889	1	24
424.084	1	12
425.278	1	14
426.472	1	22
427.667	1	2
428.861	1	14
430.055	1	16
431.250	1	6
432.444	1	12
433.638	1	11
434.832	1	7
436.026	1	4
437.220	1	16
438.414	1	15
439.608	1	1
440.802	1	9
441.996	1	6
443.190	1	8
444.384	1	17
445.578	1	5
446.771	1	10
447.965	1	13
449.159	1	11
450.352	1	7
451.546	1	7
452.739	1	3
453.933	1	3
455.126	1	5
456.320	1	13
457.513	1	-1
458.706	1	15
459.899	1	3
461.093	1	16
462.286	1	0
463.479	1	3
464.672	1	5
465.865	1	7
467.058	1	6
468.251	1	5
469.444	1	17
470.637	1	6
471.830	1	5
473.023	1	6
474.215	1	3
475.408	1	6
476.601	1	8
477.793	1	10
478.986	1	6
480.179	1	4
481.371	1	-3
482.564	1	4
483.756	1	15
484.948	1	8
486.141	1	2
487.333	1	11
488.525	1	0
489.718	1	-2
490.910	1	14
492.102	1	2
493.294	1	-10
494.486	1	11
495.678	1	10
496.870	1	9
498.062	1	10
499.254	1	8
500.446	1	1
501.638	1	15
502.829	1	1
504.021	1	12
505.213	1	18
506.404	1	5
507.596	1	17
508.788	1	13
509.979	1	8
511.171	1	3
512.362	1	19
513.553	1	12
514.745	1	11
515.936	1	13
517.127	1	13
518.319	1	9
519.510	1	4
520.701	1	18
521.892	1	22
523.083	1	7
524.274	1	21
525.465	1	24
526.656	1	15
527.847	1	3
529.038	1	18
530.229	1	26
531.419	1	13
532.610	1	25
533.801	1	20
534.991	1	11
536.182	1	4
537.373	1	13
538.563	1	3
539.754	1	14
540.944	1	19
542.134	1	18
543.325	1	14
544.515	1	8
545.705	1	10
546.896	1	14
548.086	1	15
549.276	1	19
550.466	1	5
551.656	1	11
552.846	1	18
554.036	1	18
555.226	1	11
556.416	1	17
557.606	1	-1
558.796	1	14
559.986	1	9
561.175	1	1
562.365	1	9
563.555	1	10
564.744	1	12
565.934	1	22
567.123	1	10
568.313	1	22
569.502	1	14
570.692	1	16
571.881	1	6
573.070	1	8
574.260	1	10
575.449	1	-1
576.638	1	9
577.827	1	1
579.016	1	12
580.205	1	0
581.394	1	6
582.583	1	9
583.772	1	5
584.961	1	3
586.150	1	7
587.339	1	2
588.528	1	4
589.717	1	13
590.905	1	4
592.094	1	1
593.283	1	14
594.471	1	4
595.660	1	1
596.848	1	11
598.037	1	3
599.225	1	5
600.413	1	8
601.602	1	17
602.790	1	9
603.978	1	12
605.166	1	3
606.355	1	-5
607.543	1	2
608.731	1	-7
609.919	1	-2
611.107	1	8
612.295	1	8
613.483	1	1
614.671	1	-2
615.858	1	-3
617.046	1	11
618.234	1	6
619.422	1	20
620.609	1	-5
621.797	1	2
622.985	1	5
624.172	1	6
625.360	1	5
626.547	1	-1
627.735	1	10
628.922	1	14
630.109	1	3
631.297	1	8
632.484	1	14
633.671	1	12
634.858	1	6
636.045	1	-6
637.232	1	15
638.419	1	1
639.606	1	13
640.793	1	13
641.980	1	14
643.167	1	10
644.354	1	13
645.541	1	7
646.728	1	13
647.914	1	-1
649.101	1	0
650.288	1	6
651.474	1	9
652.661	1	9
653.847	1	14
655.034	1	4
656.220	1	13
657.406	1	-3
658.593	1	14
659.779	1	6
660.965	1	-10
662.152	1	1
663.338	1	3
664.524	1	17
665.710	1	11
666.896	1	3
668.082	1	6
669.268	1	-3
670.454	1	5
671.640	1	7
672.826	1	2
674.011	1	3
675.197	1	2
676.383	1	7
677.569	1	15
678.754	1	4
679.940	1	-4
681.125	1	-1
682.311	1	10
683.496	1	2
684.682	1	1
685.867	1	1
687.053	1	15
688.238	1	12
688.746	1	-3