Folder: cryo-il_analysis/Data/GaN_170K_550ms (part 8)

File: GaN_sample D_spot 18_UVVIS_170 K_200um_550 ms 2x2mm1_83.txt
340.368	1	-1
341.565	1	8
342.763	1	10
343.960	1	0
345.157	1	6
346.354	1	0
347.552	1	8
348.749	1	15
349.946	1	16
351.143	1	6
352.340	1	10
353.537	1	5
354.734	1	11
355.931	1	10
357.127	1	12
358.324	1	24
359.521	1	27
360.718	1	32
361.914	1	54
363.111	1	78
364.308	1	82
365.504	1	111
366.701	1	146
367.897	1	155
369.093	1	159
370.290	1	148
371.486	1	134
372.682	1	102
373.879	1	97
375.075	1	77
376.271	1	68
377.467	1	62
378.663	1	53
379.859	1	33
381.055	1	34
382.251	1	35
383.447	1	41
384.643	1	16
385.839	1	23
387.035	1	18
388.230	1	7
389.426	1	21
390.622	1	12
391.817	1	22
393.013	1	10
394.208	1	20
395.404	1	16
396.599	1	0
397.795	1	8
398.990	1	-2
400.186	1	6
401.381	1	17
402.576	1	7
403.771	1	4
404.967	1	15
406.162	1	15
407.357	1	3
408.552	1	10
409.747	1	5
410.942	1	-1
412.137	1	1
413.332	1	6
414.526	1	10
415.721	1	0
416.916	1	-2
418.111	1	13
419.305	1	2
420.500	1	-3
421.695	1	1
422.889	1	8
424.084	1	20
425.278	1	7
426.472	1	6
427.667	1	6
428.861	1	3
430.055	1	-2
431.250	1	16
432.444	1	4
433.638	1	9
434.832	1	13
436.026	1	8
437.220	1	5
438.414	1	0
439.608	1	-1
440.802	1	12
441.996	1	0
443.190	1	1
444.384	1	2
445.578	1	13
446.771	1	-10
447.965	1	0
449.159	1	-5
450.352	1	-1
451.546	1	-7
452.739	1	8
453.933	1	6
455.126	1	10
456.320	1	9
457.513	1	12
458.706	1	7
459.899	1	7
461.093	1	3
462.286	1	-6
463.479	1	-2
464.672	1	1
465.865	1	8
467.058	1	2
468.251	1	5
469.444	1	5
470.637	1	4
471.830	1	-3
473.023	1	2
474.215	1	11
475.408	1	-1
476.601	1	11
477.793	1	10
478.986	1	-5
480.179	1	0
481.371	1	6
482.564	1	-1
483.756	1	9
484.948	1	6
486.141	1	15
487.333	1	7
488.525	1	18
489.718	1	16
490.910	1	10
492.102	1	7
493.294	1	11
494.486	1	13
495.678	1	12
496.870	1	9
498.062	1	14
499.254	1	24
500.446	1	3
501.638	1	10
502.829	1	16
504.021	1	17
505.213	1	13
506.404	1	16
507.596	1	13
508.788	1	15
509.979	1	18
511.171	1	17
512.362	1	21
513.553	1	15
514.745	1	14
515.936	1	24
517.127	1	20
518.319	1	28
519.510	1	26
520.701	1	36
521.892	1	29
523.083	1	13
524.274	1	36
525.465	1	27
526.656	1	32
527.847	1	26
529.038	1	21
530.229	1	48
531.419	1	33
532.610	1	33
533.801	1	36
534.991	1	18
536.182	1	20
537.373	1	30
538.563	1	19
539.754	1	15
540.944	1	7
542.134	1	27
543.325	1	22
544.515	1	25
545.705	1	26
546.896	1	19
548.086	1	23
549.276	1	24
550.466	1	27
551.656	1	27
552.846	1	19
554.036	1	18
555.226	1	13
556.416	1	22
557.606	1	13
558.796	1	15
559.986	1	18
561.175	1	5
562.365	1	21
563.555	1	9
564.744	1	16
565.934	1	15
567.123	1	13
568.313	1	7
569.502	1	18
570.692	1	23
571.881	1	5
573.070	1	7
574.260	1	10
575.449	1	14
576.638	1	13
577.827	1	11
579.016	1	14
580.205	1	0
581.394	1	10
582.583	1	11
583.772	1	6
584.961	1	11
586.150	1	10
587.339	1	-1
588.528	1	9
589.717	1	6
590.905	1	15
592.094	1	12
593.283	1	7
594.471	1	10
595.660	1	5
596.848	1	6
598.037	1	1
599.225	1	4
600.413	1	-5
601.602	1	4
602.790	1	10
603.978	1	8
605.166	1	8
606.355	1	4
607.543	1	16
608.731	1	4
609.919	1	7
611.107	1	-5
612.295	1	2
613.483	1	-2
614.671	1	15
615.858	1	0
617.046	1	4
618.234	1	-4
619.422	1	4
620.609	1	10
621.797	1	11
622.985	1	10
624.172	1	1
625.360	1	4
626.547	1	-6
627.735	1	-11
628.922	1	-2
630.109	1	1
631.297	1	-2
632.484	1	-2
633.671	1	11
634.858	1	6
636.045	1	19
637.232	1	8
638.419	1	-1
639.606	1	-10
640.793	1	-5
641.980	1	9
643.167	1	4
644.354	1	8
645.541	1	5
646.728	1	4
647.914	1	0
649.101	1	11
650.288	1	2
651.474	1	19
652.661	1	9
653.847	1	-2
655.034	1	8
656.220	1	13
657.406	1	2
658.593	1	7
659.779	1	12
660.965	1	18
662.152	1	5
663.338	1	5
664.524	1	7
665.710	1	2
666.896	1	10
668.082	1	14
669.268	1	8
670.454	1	1
671.640	1	10
672.826	1	3
674.011	1	13
675.197	1	11
676.383	1	4
677.569	1	7
678.754	1	-1
679.940	1	18
681.125	1	0
682.311	1	1
683.496	1	10
684.682	1	6
685.867	1	12
687.053	1	1
688.238	1	-8
688.746	1	-6

File: GaN_sample D_spot 18_UVVIS_170 K_200um_550 ms 2x2mm1_84.txt
340.368	1	-4
341.565	1	6
342.763	1	10
343.960	1	-2
345.157	1	3
346.354	1	4
347.552	1	9
348.749	1	7
349.946	1	4
351.143	1	5
352.340	1	8
353.537	1	6
354.734	1	9
355.931	1	12
357.127	1	14
358.324	1	23
359.521	1	28
360.718	1	24
361.914	1	44
363.111	1	71
364.308	1	79
365.504	1	98
366.701	1	132
367.897	1	160
369.093	1	143
370.290	1	144
371.486	1	112
372.682	1	105
373.879	1	87
375.075	1	70
376.271	1	61
377.467	1	61
378.663	1	50
379.859	1	49
381.055	1	34
382.251	1	44
383.447	1	40
384.643	1	21
385.839	1	24
387.035	1	20
388.230	1	11
389.426	1	18
390.622	1	13
391.817	1	11
393.013	1	3
394.208	1	8
395.404	1	13
396.599	1	1
397.795	1	6
398.990	1	-4
400.186	1	8
401.381	1	3
402.576	1	13
403.771	1	0
404.967	1	1
406.162	1	5
407.357	1	8
408.552	1	-3
409.747	1	7
410.942	1	11
412.137	1	2
413.332	1	9
414.526	1	5
415.721	1	4
416.916	1	-6
418.111	1	16
419.305	1	-5
420.500	1	5
421.695	1	-6
422.889	1	0
424.084	1	17
425.278	1	2
426.472	1	5
427.667	1	2
428.861	1	5
430.055	1	8
431.250	1	13
432.444	1	6
433.638	1	5
434.832	1	4
436.026	1	-1
437.220	1	9
438.414	1	-1
439.608	1	1
440.802	1	9
441.996	1	3
443.190	1	1
444.384	1	14
445.578	1	8
446.771	1	-8
447.965	1	7
449.159	1	5
450.352	1	-4
451.546	1	6
452.739	1	6
453.933	1	8
455.126	1	6
456.320	1	11
457.513	1	16
458.706	1	7
459.899	1	4
461.093	1	9
462.286	1	3
463.479	1	4
464.672	1	-4
465.865	1	0
467.058	1	-2
468.251	1	1
469.444	1	2
470.637	1	6
471.830	1	6
473.023	1	1
474.215	1	7
475.408	1	-11
476.601	1	6
477.793	1	15
478.986	1	-8
480.179	1	-1
481.371	1	-4
482.564	1	7
483.756	1	7
484.948	1	11
486.141	1	16
487.333	1	6
488.525	1	10
489.718	1	15
490.910	1	8
492.102	1	10
493.294	1	12
494.486	1	25
495.678	1	11
496.870	1	9
498.062	1	10
499.254	1	16
500.446	1	20
501.638	1	13
502.829	1	12
504.021	1	19
505.213	1	15
506.404	1	25
507.596	1	24
508.788	1	7
509.979	1	22
511.171	1	24
512.362	1	22
513.553	1	24
514.745	1	20
515.936	1	24
517.127	1	25
518.319	1	24
519.510	1	33
520.701	1	26
521.892	1	26
523.083	1	23
524.274	1	17
525.465	1	22
526.656	1	27
527.847	1	31
529.038	1	17
530.229	1	31
531.419	1	36
532.610	1	40
533.801	1	34
534.991	1	15
536.182	1	31
537.373	1	15
538.563	1	22
539.754	1	17
540.944	1	11
542.134	1	20
543.325	1	21
544.515	1	18
545.705	1	30
546.896	1	32
548.086	1	31
549.276	1	20
550.466	1	19
551.656	1	25
552.846	1	8
554.036	1	19
555.226	1	7
556.416	1	7
557.606	1	14
558.796	1	17
559.986	1	18
561.175	1	11
562.365	1	13
563.555	1	12
564.744	1	13
565.934	1	10
567.123	1	13
568.313	1	8
569.502	1	5
570.692	1	13
571.881	1	14
573.070	1	18
574.260	1	16
575.449	1	16
576.638	1	26
577.827	1	12
579.016	1	16
580.205	1	15
581.394	1	13
582.583	1	3
583.772	1	10
584.961	1	14
586.150	1	0
587.339	1	14
588.528	1	6
589.717	1	9
590.905	1	24
592.094	1	14
593.283	1	6
594.471	1	2
595.660	1	8
596.848	1	6
598.037	1	-4
599.225	1	15
600.413	1	-5
601.602	1	14
602.790	1	11
603.978	1	10
605.166	1	14
606.355	1	13
607.543	1	21
608.731	1	17
609.919	1	6
611.107	1	-1
612.295	1	8
613.483	1	-2
614.671	1	17
615.858	1	-1
617.046	1	-4
618.234	1	9
619.422	1	-7
620.609	1	6
621.797	1	10
622.985	1	12
624.172	1	0
625.360	1	4
626.547	1	2
627.735	1	-5
628.922	1	-6
630.109	1	-2
631.297	1	-1
632.484	1	3
633.671	1	13
634.858	1	8
636.045	1	14
637.232	1	7
638.419	1	5
639.606	1	-9
640.793	1	2
641.980	1	0
643.167	1	6
644.354	1	10
645.541	1	14
646.728	1	1
647.914	1	1
649.101	1	4
650.288	1	0
651.474	1	7
652.661	1	9
653.847	1	-3
655.034	1	7
656.220	1	9
657.406	1	-3
658.593	1	-2
659.779	1	4
660.965	1	14
662.152	1	8
663.338	1	14
664.524	1	3
665.710	1	6
666.896	1	0
668.082	1	17
669.268	1	-7
670.454	1	-2
671.640	1	13
672.826	1	2
674.011	1	4
675.197	1	13
676.383	1	15
677.569	1	-5
678.754	1	6
679.940	1	12
681.125	1	17
682.311	1	4
683.496	1	13
684.682	1	10
685.867	1	10
687.053	1	7
688.238	1	6
688.746	1	-4

File: GaN_sample D_spot 18_UVVIS_170 K_200um_550 ms 2x2mm1_85.txt
340.368	1	-9
341.565	1	9
342.763	1	5
343.960	1	3
345.157	1	4
346.354	1	-3
347.552	1	22
348.749	1	2
349.946	1	14
351.143	1	9
352.340	1	1
353.537	1	14
354.734	1	10
355.931	1	4
357.127	1	7
358.324	1	15
359.521	1	23
360.718	1	30
361.914	1	45
363.111	1	64
364.308	1	77
365.504	1	83
366.701	1	124
367.897	1	148
369.093	1	140
370.290	1	136
371.486	1	107
372.682	1	108
373.879	1	85
375.075	1	70
376.271	1	60
377.467	1	57
378.663	1	54
379.859	1	44
381.055	1	41
382.251	1	33
383.447	1	28
384.643	1	21
385.839	1	25
387.035	1	17
388.230	1	6
389.426	1	21
390.622	1	4
391.817	1	17
393.013	1	10
394.208	1	13
395.404	1	9
396.599	1	6
397.795	1	14
398.990	1	-2
400.186	1	3
401.381	1	18
402.576	1	-3
403.771	1	2
404.967	1	10
406.162	1	11
407.357	1	3
408.552	1	12
409.747	1	0
410.942	1	9
412.137	1	-1
413.332	1	-3
414.526	1	4
415.721	1	8
416.916	1	-8
418.111	1	17
419.305	1	15
420.500	1	-1
421.695	1	-4
422.889	1	4
424.084	1	14
425.278	1	8
426.472	1	0
427.667	1	6
428.861	1	8
430.055	1	8
431.250	1	18
432.444	1	-1
433.638	1	8
434.832	1	5
436.026	1	3
437.220	1	0
438.414	1	-1
439.608	1	10
440.802	1	7
441.996	1	6
443.190	1	4
444.384	1	5
445.578	1	11
446.771	1	-5
447.965	1	3
449.159	1	-1
450.352	1	-2
451.546	1	1
452.739	1	1
453.933	1	4
455.126	1	10
456.320	1	1
457.513	1	14
458.706	1	5
459.899	1	4
461.093	1	8
462.286	1	-2
463.479	1	-6
464.672	1	-1
465.865	1	13
467.058	1	7
468.251	1	4
469.444	1	0
470.637	1	3
471.830	1	10
473.023	1	7
474.215	1	5
475.408	1	5
476.601	1	0
477.793	1	13
478.986	1	7
480.179	1	6
481.371	1	5
482.564	1	11
483.756	1	7
484.948	1	2
486.141	1	18
487.333	1	1
488.525	1	9
489.718	1	16
490.910	1	4
492.102	1	3
493.294	1	-2
494.486	1	13
495.678	1	11
496.870	1	13
498.062	1	10
499.254	1	19
500.446	1	3
501.638	1	11
502.829	1	19
504.021	1	18
505.213	1	2
506.404	1	17
507.596	1	23
508.788	1	6
509.979	1	22
511.171	1	26
512.362	1	18
513.553	1	17
514.745	1	13
515.936	1	25
517.127	1	15
518.319	1	26
519.510	1	21
520.701	1	27
521.892	1	22
523.083	1	22
524.274	1	23
525.465	1	28
526.656	1	24
527.847	1	21
529.038	1	21
530.229	1	37
531.419	1	28
532.610	1	31
533.801	1	25
534.991	1	27
536.182	1	18
537.373	1	23
538.563	1	20
539.754	1	26
540.944	1	18
542.134	1	18
543.325	1	13
544.515	1	12
545.705	1	24
546.896	1	18
548.086	1	16
549.276	1	27
550.466	1	5
551.656	1	23
552.846	1	22
554.036	1	17
555.226	1	11
556.416	1	8
557.606	1	27
558.796	1	13
559.986	1	17
561.175	1	7
562.365	1	17
563.555	1	15
564.744	1	16
565.934	1	15
567.123	1	23
568.313	1	6
569.502	1	12
570.692	1	19
571.881	1	0
573.070	1	21
574.260	1	5
575.449	1	10
576.638	1	25
577.827	1	7
579.016	1	13
580.205	1	8
581.394	1	9
582.583	1	8
583.772	1	6
584.961	1	11
586.150	1	10
587.339	1	3
588.528	1	7
589.717	1	19
590.905	1	12
592.094	1	12
593.283	1	9
594.471	1	8
595.660	1	11
596.848	1	8
598.037	1	11
599.225	1	13
600.413	1	1
601.602	1	14
602.790	1	18
603.978	1	10
605.166	1	6
606.355	1	7
607.543	1	12
608.731	1	9
609.919	1	-3
611.107	1	-10
612.295	1	-1
613.483	1	16
614.671	1	18
615.858	1	9
617.046	1	0
618.234	1	12
619.422	1	0
620.609	1	15
621.797	1	8
622.985	1	3
624.172	1	5
625.360	1	6
626.547	1	-2
627.735	1	-6
628.922	1	-3
630.109	1	1
631.297	1	1
632.484	1	-3
633.671	1	11
634.858	1	3
636.045	1	11
637.232	1	12
638.419	1	2
639.606	1	-5
640.793	1	-1
641.980	1	0
643.167	1	1
644.354	1	12
645.541	1	2
646.728	1	3
647.914	1	-2
649.101	1	-3
650.288	1	4
651.474	1	13
652.661	1	5
653.847	1	-2
655.034	1	3
656.220	1	10
657.406	1	4
658.593	1	12
659.779	1	4
660.965	1	7
662.152	1	0
663.338	1	11
664.524	1	-6
665.710	1	11
666.896	1	6
668.082	1	13
669.268	1	-1
670.454	1	-4
671.640	1	5
672.826	1	7
674.011	1	4
675.197	1	8
676.383	1	4
677.569	1	3
678.754	1	8
679.940	1	10
681.125	1	11
682.311	1	3
683.496	1	-5
684.682	1	11
685.867	1	7
687.053	1	2
688.238	1	3
688.746	1	-3

File: GaN_sample D_spot 18_UVVIS_170 K_200um_550 ms 2x2mm1_86.txt
340.368	1	-2
341.565	1	11
342.763	1	0
343.960	1	-3
345.157	1	1
346.354	1	-2
347.552	1	14
348.749	1	16
349.946	1	6
351.143	1	4
352.340	1	7
353.537	1	11
354.734	1	17
355.931	1	12
357.127	1	18
358.324	1	21
359.521	1	22
360.718	1	34
361.914	1	44
363.111	1	70
364.308	1	71
365.504	1	91
366.701	1	118
367.897	1	141
369.093	1	139
370.290	1	132
371.486	1	109
372.682	1	98
373.879	1	84
375.075	1	65
376.271	1	61
377.467	1	68
378.663	1	43
379.859	1	27
381.055	1	30
382.251	1	25
383.447	1	34
384.643	1	22
385.839	1	7
387.035	1	21
388.230	1	19
389.426	1	11
390.622	1	4
391.817	1	20
393.013	1	14
394.208	1	16
395.404	1	8
396.599	1	-1
397.795	1	3
398.990	1	3
400.186	1	0
401.381	1	18
402.576	1	7
403.771	1	10
404.967	1	8
406.162	1	8
407.357	1	5
408.552	1	3
409.747	1	7
410.942	1	-3
412.137	1	-7
413.332	1	-2
414.526	1	7
415.721	1	-1
416.916	1	-7
418.111	1	11
419.305	1	8
420.500	1	-7
421.695	1	-12
422.889	1	3
424.084	1	11
425.278	1	3
426.472	1	1
427.667	1	10
428.861	1	5
430.055	1	4
431.250	1	15
432.444	1	5
433.638	1	12
434.832	1	9
436.026	1	2
437.220	1	4
438.414	1	-4
439.608	1	0
440.802	1	12
441.996	1	4
443.190	1	4
444.384	1	11
445.578	1	10
446.771	1	-14
447.965	1	6
449.159	1	-2
450.352	1	1
451.546	1	-6
452.739	1	13
453.933	1	9
455.126	1	9
456.320	1	2
457.513	1	17
458.706	1	8
459.899	1	12
461.093	1	8
462.286	1	-3
463.479	1	7
464.672	1	7
465.865	1	4
467.058	1	8
468.251	1	2
469.444	1	5
470.637	1	5
471.830	1	8
473.023	1	7
474.215	1	7
475.408	1	-6
476.601	1	4
477.793	1	6
478.986	1	3
480.179	1	0
481.371	1	8
482.564	1	2
483.756	1	8
484.948	1	4
486.141	1	19
487.333	1	5
488.525	1	25
489.718	1	24
490.910	1	8
492.102	1	14
493.294	1	14
494.486	1	14
495.678	1	7
496.870	1	10
498.062	1	11
499.254	1	23
500.446	1	9
501.638	1	10
502.829	1	18
504.021	1	20
505.213	1	6
506.404	1	19
507.596	1	15
508.788	1	11
509.979	1	18
511.171	1	24
512.362	1	22
513.553	1	14
514.745	1	14
515.936	1	22
517.127	1	21
518.319	1	19
519.510	1	25
520.701	1	19
521.892	1	38
523.083	1	27
524.274	1	18
525.465	1	14
526.656	1	29
527.847	1	27
529.038	1	17
530.229	1	27
531.419	1	31
532.610	1	33
533.801	1	25
534.991	1	12
536.182	1	19
537.373	1	26
538.563	1	17
539.754	1	19
540.944	1	6
542.134	1	7
543.325	1	23
544.515	1	14
545.705	1	27
546.896	1	20
548.086	1	21
549.276	1	22
550.466	1	10
551.656	1	13
552.846	1	14
554.036	1	16
555.226	1	8
556.416	1	18
557.606	1	25
558.796	1	6
559.986	1	8
561.175	1	7
562.365	1	12
563.555	1	8
564.744	1	17
565.934	1	17
567.123	1	9
568.313	1	12
569.502	1	20
570.692	1	18
571.881	1	18
573.070	1	11
574.260	1	16
575.449	1	14
576.638	1	16
577.827	1	14
579.016	1	5
580.205	1	13
581.394	1	12
582.583	1	9
583.772	1	4
584.961	1	13
586.150	1	1
587.339	1	11
588.528	1	2
589.717	1	12
590.905	1	13
592.094	1	16
593.283	1	6
594.471	1	7
595.660	1	5
596.848	1	4
598.037	1	3
599.225	1	9
600.413	1	-4
601.602	1	8
602.790	1	15
603.978	1	11
605.166	1	15
606.355	1	9
607.543	1	5
608.731	1	12
609.919	1	6
611.107	1	0
612.295	1	10
613.483	1	0
614.671	1	11
615.858	1	2
617.046	1	2
618.234	1	2
619.422	1	-6
620.609	1	11
621.797	1	5
622.985	1	8
624.172	1	3
625.360	1	2
626.547	1	-4
627.735	1	-13
628.922	1	-11
630.109	1	5
631.297	1	-4
632.484	1	-8
633.671	1	3
634.858	1	-1
636.045	1	14
637.232	1	3
638.419	1	1
639.606	1	4
640.793	1	9
641.980	1	2
643.167	1	8
644.354	1	8
645.541	1	8
646.728	1	10
647.914	1	5
649.101	1	2
650.288	1	6
651.474	1	18
652.661	1	7
653.847	1	9
655.034	1	-2
656.220	1	3
657.406	1	3
658.593	1	2
659.779	1	7
660.965	1	12
662.152	1	-1
663.338	1	3
664.524	1	1
665.710	1	4
666.896	1	-1
668.082	1	12
669.268	1	-10
670.454	1	-14
671.640	1	3
672.826	1	6
674.011	1	17
675.197	1	14
676.383	1	8
677.569	1	2
678.754	1	2
679.940	1	10
681.125	1	5
682.311	1	3
683.496	1	8
684.682	1	11
685.867	1	4
687.053	1	-5
688.238	1	-11
688.746	1	-9

File: GaN_sample D_spot 18_UVVIS_170 K_200um_550 ms 2x2mm1_87.txt
340.368	1	2
341.565	1	-1
342.763	1	0
343.960	1	-4
345.157	1	4
346.354	1	2
347.552	1	10
348.749	1	17
349.946	1	13
351.143	1	-3
352.340	1	5
353.537	1	8
354.734	1	18
355.931	1	6
357.127	1	12
358.324	1	18
359.521	1	22
360.718	1	21
361.914	1	48
363.111	1	66
364.308	1	69
365.504	1	96
366.701	1	120
367.897	1	131
369.093	1	129
370.290	1	135
371.486	1	98
372.682	1	96
373.879	1	87
375.075	1	70
376.271	1	55
377.467	1	51
378.663	1	45
379.859	1	38
381.055	1	38
382.251	1	30
383.447	1	42
384.643	1	28
385.839	1	10
387.035	1	20
388.230	1	12
389.426	1	16
390.622	1	16
391.817	1	12
393.013	1	7
394.208	1	18
395.404	1	14
396.599	1	-7
397.795	1	15
398.990	1	6
400.186	1	-6
401.381	1	17
402.576	1	10
403.771	1	7
404.967	1	8
406.162	1	16
407.357	1	2
408.552	1	2
409.747	1	4
410.942	1	4
412.137	1	-6
413.332	1	8
414.526	1	0
415.721	1	2
416.916	1	0
418.111	1	10
419.305	1	14
420.500	1	1
421.695	1	-10
422.889	1	1
424.084	1	9
425.278	1	-1
426.472	1	3
427.667	1	15
428.861	1	6
430.055	1	-2
431.250	1	13
432.444	1	3
433.638	1	14
434.832	1	4
436.026	1	6
437.220	1	5
438.414	1	-5
439.608	1	0
440.802	1	10
441.996	1	-3
443.190	1	-2
444.384	1	0
445.578	1	4
446.771	1	-6
447.965	1	9
449.159	1	-2
450.352	1	-5
451.546	1	-6
452.739	1	6
453.933	1	10
455.126	1	14
456.320	1	-5
457.513	1	4
458.706	1	1
459.899	1	3
461.093	1	13
462.286	1	3
463.479	1	0
464.672	1	-1
465.865	1	-1
467.058	1	3
468.251	1	2
469.444	1	0
470.637	1	8
471.830	1	-2
473.023	1	6
474.215	1	1
475.408	1	-3
476.601	1	0
477.793	1	14
478.986	1	7
480.179	1	3
481.371	1	1
482.564	1	5
483.756	1	5
484.948	1	1
486.141	1	15
487.333	1	-5
488.525	1	18
489.718	1	13
490.910	1	4
492.102	1	-2
493.294	1	0
494.486	1	22
495.678	1	13
496.870	1	12
498.062	1	15
499.254	1	25
500.446	1	9
501.638	1	-2
502.829	1	20
504.021	1	9
505.213	1	5
506.404	1	17
507.596	1	20
508.788	1	12
509.979	1	24
511.171	1	16
512.362	1	16
513.553	1	18
514.745	1	16
515.936	1	18
517.127	1	18
518.319	1	22
519.510	1	25
520.701	1	20
521.892	1	17
523.083	1	22
524.274	1	26
525.465	1	31
526.656	1	32
527.847	1	19
529.038	1	17
530.229	1	37
531.419	1	35
532.610	1	23
533.801	1	33
534.991	1	22
536.182	1	18
537.373	1	15
538.563	1	22
539.754	1	13
540.944	1	14
542.134	1	25
543.325	1	17
544.515	1	17
545.705	1	17
546.896	1	19
548.086	1	20
549.276	1	24
550.466	1	23
551.656	1	13
552.846	1	5
554.036	1	9
555.226	1	12
556.416	1	9
557.606	1	20
558.796	1	12
559.986	1	16
561.175	1	12
562.365	1	20
563.555	1	14
564.744	1	21
565.934	1	20
567.123	1	19
568.313	1	6
569.502	1	0
570.692	1	26
571.881	1	8
573.070	1	12
574.260	1	13
575.449	1	6
576.638	1	15
577.827	1	5
579.016	1	12
580.205	1	7
581.394	1	18
582.583	1	9
583.772	1	6
584.961	1	4
586.150	1	0
587.339	1	4
588.528	1	4
589.717	1	17
590.905	1	12
592.094	1	6
593.283	1	11
594.471	1	16
595.660	1	4
596.848	1	5
598.037	1	13
599.225	1	1
600.413	1	-4
601.602	1	11
602.790	1	9
603.978	1	11
605.166	1	7
606.355	1	7
607.543	1	15
608.731	1	9
609.919	1	-1
611.107	1	-4
612.295	1	5
613.483	1	1
614.671	1	20
615.858	1	7
617.046	1	2
618.234	1	-1
619.422	1	-7
620.609	1	13
621.797	1	5
622.985	1	5
624.172	1	5
625.360	1	1
626.547	1	5
627.735	1	-9
628.922	1	-4
630.109	1	1
631.297	1	2
632.484	1	3
633.671	1	13
634.858	1	7
636.045	1	13
637.232	1	3
638.419	1	5
639.606	1	7
640.793	1	4
641.980	1	1
643.167	1	8
644.354	1	4
645.541	1	4
646.728	1	14
647.914	1	6
649.101	1	6
650.288	1	10
651.474	1	5
652.661	1	9
653.847	1	8
655.034	1	4
656.220	1	4
657.406	1	1
658.593	1	3
659.779	1	0
660.965	1	13
662.152	1	-5
663.338	1	11
664.524	1	14
665.710	1	8
666.896	1	9
668.082	1	12
669.268	1	0
670.454	1	-5
671.640	1	1
672.826	1	7
674.011	1	5
675.197	1	4
676.383	1	13
677.569	1	4
678.754	1	3
679.940	1	11
681.125	1	12
682.311	1	8
683.496	1	14
684.682	1	13
685.867	1	9
687.053	1	-1
688.238	1	2
688.746	1	2

File: GaN_sample D_spot 18_UVVIS_170 K_200um_550 ms 2x2mm1_88.txt
340.368	1	-5
341.565	1	11
342.763	1	6
343.960	1	3
345.157	1	-4
346.354	1	4
347.552	1	14
348.749	1	6
349.946	1	9
351.143	1	-2
352.340	1	17
353.537	1	6
354.734	1	17
355.931	1	23
357.127	1	11
358.324	1	17
359.521	1	25
360.718	1	31
361.914	1	42
363.111	1	56
364.308	1	70
365.504	1	94
366.701	1	109
367.897	1	144
369.093	1	128
370.290	1	133
371.486	1	108
372.682	1	90
373.879	1	82
375.075	1	64
376.271	1	63
377.467	1	53
378.663	1	44
379.859	1	27
381.055	1	22
382.251	1	26
383.447	1	30
384.643	1	16
385.839	1	14
387.035	1	16
388.230	1	13
389.426	1	19
390.622	1	9
391.817	1	8
393.013	1	6
394.208	1	19
395.404	1	10
396.599	1	2
397.795	1	10
398.990	1	2
400.186	1	18
401.381	1	24
402.576	1	6
403.771	1	6
404.967	1	8
406.162	1	6
407.357	1	6
408.552	1	6
409.747	1	0
410.942	1	13
412.137	1	8
413.332	1	1
414.526	1	-1
415.721	1	-3
416.916	1	1
418.111	1	16
419.305	1	-3
420.500	1	4
421.695	1	1
422.889	1	-6
424.084	1	14
425.278	1	-1
426.472	1	2
427.667	1	10
428.861	1	7
430.055	1	6
431.250	1	7
432.444	1	6
433.638	1	10
434.832	1	3
436.026	1	2
437.220	1	10
438.414	1	-9
439.608	1	3
440.802	1	12
441.996	1	-3
443.190	1	0
444.384	1	2
445.578	1	11
446.771	1	-10
447.965	1	-1
449.159	1	5
450.352	1	-1
451.546	1	-6
452.739	1	4
453.933	1	8
455.126	1	8
456.320	1	0
457.513	1	8
458.706	1	8
459.899	1	2
461.093	1	14
462.286	1	6
463.479	1	-3
464.672	1	4
465.865	1	4
467.058	1	12
468.251	1	-3
469.444	1	3
470.637	1	10
471.830	1	2
473.023	1	10
474.215	1	9
475.408	1	-4
476.601	1	8
477.793	1	4
478.986	1	7
480.179	1	6
481.371	1	7
482.564	1	3
483.756	1	7
484.948	1	-1
486.141	1	17
487.333	1	7
488.525	1	9
489.718	1	25
490.910	1	11
492.102	1	8
493.294	1	3
494.486	1	16
495.678	1	18
496.870	1	6
498.062	1	8
499.254	1	22
500.446	1	7
501.638	1	10
502.829	1	14
504.021	1	23
505.213	1	6
506.404	1	18
507.596	1	24
508.788	1	9
509.979	1	18
511.171	1	14
512.362	1	11
513.553	1	20
514.745	1	13
515.936	1	13
517.127	1	23
518.319	1	26
519.510	1	27
520.701	1	26
521.892	1	16
523.083	1	21
524.274	1	14
525.465	1	25
526.656	1	23
527.847	1	21
529.038	1	16
530.229	1	38
531.419	1	24
532.610	1	35
533.801	1	29
534.991	1	22
536.182	1	21
537.373	1	14
538.563	1	25
539.754	1	19
540.944	1	16
542.134	1	17
543.325	1	16
544.515	1	27
545.705	1	15
546.896	1	15
548.086	1	18
549.276	1	17
550.466	1	18
551.656	1	16
552.846	1	12
554.036	1	19
555.226	1	16
556.416	1	13
557.606	1	13
558.796	1	13
559.986	1	17
561.175	1	4
562.365	1	9
563.555	1	15
564.744	1	7
565.934	1	14
567.123	1	10
568.313	1	11
569.502	1	5
570.692	1	13
571.881	1	9
573.070	1	5
574.260	1	15
575.449	1	12
576.638	1	21
577.827	1	6
579.016	1	11
580.205	1	7
581.394	1	10
582.583	1	8
583.772	1	0
584.961	1	9
586.150	1	-3
587.339	1	11
588.528	1	12
589.717	1	14
590.905	1	20
592.094	1	12
593.283	1	5
594.471	1	13
595.660	1	1
596.848	1	3
598.037	1	10
599.225	1	-1
600.413	1	-3
601.602	1	11
602.790	1	16
603.978	1	5
605.166	1	11
606.355	1	12
607.543	1	6
608.731	1	11
609.919	1	6
611.107	1	1
612.295	1	-9
613.483	1	9
614.671	1	12
615.858	1	6
617.046	1	-2
618.234	1	3
619.422	1	-1
620.609	1	10
621.797	1	4
622.985	1	9
624.172	1	3
625.360	1	4
626.547	1	3
627.735	1	-4
628.922	1	-9
630.109	1	10
631.297	1	-2
632.484	1	7
633.671	1	13
634.858	1	11
636.045	1	2
637.232	1	5
638.419	1	4
639.606	1	0
640.793	1	4
641.980	1	-3
643.167	1	-1
644.354	1	8
645.541	1	6
646.728	1	3
647.914	1	7
649.101	1	7
650.288	1	7
651.474	1	16
652.661	1	2
653.847	1	6
655.034	1	11
656.220	1	3
657.406	1	3
658.593	1	5
659.779	1	-3
660.965	1	21
662.152	1	-3
663.338	1	12
664.524	1	-2
665.710	1	-3
666.896	1	9
668.082	1	21
669.268	1	2
670.454	1	-4
671.640	1	12
672.826	1	3
674.011	1	-2
675.197	1	8
676.383	1	6
677.569	1	-7
678.754	1	1
679.940	1	16
681.125	1	11
682.311	1	4
683.496	1	3
684.682	1	7
685.867	1	18
687.053	1	-4
688.238	1	-4
688.746	1	-1