Folder: cryo-il_analysis/Data/GaN_200K_800ms (part 38)

File: GaN_sample F_spot 12_UVVIS_200 K_200um_800 ms 2x2mm1_418.txt
340.368	1	-5
341.565	1	-5
342.763	1	-4
343.960	1	5
345.157	1	-10
346.354	1	4
347.552	1	-9
348.749	1	-12
349.946	1	-10
351.143	1	0
352.340	1	0
353.537	1	1
354.734	1	-1
355.931	1	-4
357.127	1	-5
358.324	1	0
359.521	1	7
360.718	1	1
361.914	1	-2
363.111	1	-3
364.308	1	3
365.504	1	13
366.701	1	1
367.897	1	4
369.093	1	3
370.290	1	10
371.486	1	15
372.682	1	13
373.879	1	7
375.075	1	17
376.271	1	5
377.467	1	-1
378.663	1	-5
379.859	1	2
381.055	1	12
382.251	1	-9
383.447	1	-8
384.643	1	7
385.839	1	-3
387.035	1	7
388.230	1	10
389.426	1	-3
390.622	1	-2
391.817	1	9
393.013	1	-1
394.208	1	-4
395.404	1	-9
396.599	1	-4
397.795	1	-2
398.990	1	6
400.186	1	1
401.381	1	-10
402.576	1	-6
403.771	1	5
404.967	1	4
406.162	1	2
407.357	1	4
408.552	1	0
409.747	1	-1
410.942	1	3
412.137	1	9
413.332	1	0
414.526	1	-4
415.721	1	0
416.916	1	-6
418.111	1	6
419.305	1	5
420.500	1	-3
421.695	1	-6
422.889	1	-11
424.084	1	-10
425.278	1	11
426.472	1	2
427.667	1	0
428.861	1	-1
430.055	1	10
431.250	1	-9
432.444	1	13
433.638	1	3
434.832	1	2
436.026	1	5
437.220	1	0
438.414	1	-13
439.608	1	-10
440.802	1	-9
441.996	1	-1
443.190	1	-3
444.384	1	-10
445.578	1	-14
446.771	1	10
447.965	1	-1
449.159	1	-7
450.352	1	-5
451.546	1	8
452.739	1	2
453.933	1	-3
455.126	1	-9
456.320	1	-7
457.513	1	8
458.706	1	-5
459.899	1	-5
461.093	1	2
462.286	1	-4
463.479	1	-5
464.672	1	-7
465.865	1	3
467.058	1	5
468.251	1	-4
469.444	1	-7
470.637	1	-2
471.830	1	-4
473.023	1	6
474.215	1	3
475.408	1	6
476.601	1	0
477.793	1	-9
478.986	1	-1
480.179	1	2
481.371	1	3
482.564	1	-4
483.756	1	1
484.948	1	-15
486.141	1	-9
487.333	1	-2
488.525	1	-4
489.718	1	-4
490.910	1	-9
492.102	1	-3
493.294	1	0
494.486	1	5
495.678	1	3
496.870	1	-5
498.062	1	1
499.254	1	2
500.446	1	-4
501.638	1	-5
502.829	1	-6
504.021	1	1
505.213	1	0
506.404	1	-1
507.596	1	2
508.788	1	7
509.979	1	2
511.171	1	-4
512.362	1	-5
513.553	1	-9
514.745	1	-4
515.936	1	4
517.127	1	-4
518.319	1	0
519.510	1	1
520.701	1	-4
521.892	1	14
523.083	1	1
524.274	1	-6
525.465	1	7
526.656	1	2
527.847	1	2
529.038	1	0
530.229	1	-6
531.419	1	-3
532.610	1	-4
533.801	1	14
534.991	1	-1
536.182	1	-2
537.373	1	4
538.563	1	-1
539.754	1	2
540.944	1	-4
542.134	1	3
543.325	1	-3
544.515	1	0
545.705	1	-2
546.896	1	-8
548.086	1	1
549.276	1	-10
550.466	1	7
551.656	1	0
552.846	1	-8
554.036	1	2
555.226	1	-13
556.416	1	1
557.606	1	0
558.796	1	-6
559.986	1	-6
561.175	1	6
562.365	1	6
563.555	1	-8
564.744	1	-8
565.934	1	4
567.123	1	4
568.313	1	1
569.502	1	-1
570.692	1	1
571.881	1	15
573.070	1	8
574.260	1	15
575.449	1	-5
576.638	1	-7
577.827	1	-2
579.016	1	1
580.205	1	-2
581.394	1	-5
582.583	1	15
583.772	1	5
584.961	1	8
586.150	1	1
587.339	1	-7
588.528	1	-5
589.717	1	6
590.905	1	2
592.094	1	-1
593.283	1	1
594.471	1	5
595.660	1	-1
596.848	1	4
598.037	1	2
599.225	1	-5
600.413	1	2
601.602	1	18
602.790	1	4
603.978	1	1
605.166	1	-1
606.355	1	6
607.543	1	-3
608.731	1	3
609.919	1	9
611.107	1	1
612.295	1	-6
613.483	1	-4
614.671	1	2
615.858	1	5
617.046	1	-4
618.234	1	0
619.422	1	-9
620.609	1	-7
621.797	1	-2
622.985	1	-1
624.172	1	1
625.360	1	-6
626.547	1	-4
627.735	1	-6
628.922	1	10
630.109	1	-8
631.297	1	-6
632.484	1	-6
633.671	1	-15
634.858	1	1
636.045	1	-3
637.232	1	-1
638.419	1	2
639.606	1	-3
640.793	1	9
641.980	1	8
643.167	1	-7
644.354	1	-1
645.541	1	0
646.728	1	-5
647.914	1	-9
649.101	1	-10
650.288	1	-1
651.474	1	1
652.661	1	-5
653.847	1	-1
655.034	1	9
656.220	1	-10
657.406	1	-4
658.593	1	7
659.779	1	0
660.965	1	8
662.152	1	0
663.338	1	11
664.524	1	6
665.710	1	1
666.896	1	-1
668.082	1	-4
669.268	1	-7
670.454	1	0
671.640	1	0
672.826	1	-6
674.011	1	3
675.197	1	-4
676.383	1	0
677.569	1	-1
678.754	1	-4
679.940	1	4
681.125	1	-1
682.311	1	4
683.496	1	-5
684.682	1	-11
685.867	1	-9
687.053	1	1
688.238	1	5
688.746	1	2

File: GaN_sample F_spot 12_UVVIS_200 K_200um_800 ms 2x2mm1_422.txt
340.368	1	-2
341.565	1	-12
342.763	1	4
343.960	1	5
345.157	1	-10
346.354	1	0
347.552	1	-12
348.749	1	-9
349.946	1	-5
351.143	1	9
352.340	1	-2
353.537	1	-4
354.734	1	3
355.931	1	6
357.127	1	-3
358.324	1	-7
359.521	1	-1
360.718	1	-3
361.914	1	4
363.111	1	-2
364.308	1	0
365.504	1	11
366.701	1	3
367.897	1	10
369.093	1	1
370.290	1	1
371.486	1	6
372.682	1	8
373.879	1	0
375.075	1	2
376.271	1	4
377.467	1	9
378.663	1	0
379.859	1	0
381.055	1	11
382.251	1	-8
383.447	1	4
384.643	1	8
385.839	1	-2
387.035	1	6
388.230	1	7
389.426	1	0
390.622	1	0
391.817	1	0
393.013	1	0
394.208	1	5
395.404	1	1
396.599	1	-10
397.795	1	3
398.990	1	-3
400.186	1	-8
401.381	1	-8
402.576	1	-1
403.771	1	4
404.967	1	-1
406.162	1	8
407.357	1	2
408.552	1	-6
409.747	1	2
410.942	1	1
412.137	1	1
413.332	1	0
414.526	1	-4
415.721	1	-2
416.916	1	-5
418.111	1	0
419.305	1	2
420.500	1	-10
421.695	1	-7
422.889	1	-2
424.084	1	1
425.278	1	10
426.472	1	-5
427.667	1	0
428.861	1	-5
430.055	1	-9
431.250	1	-5
432.444	1	1
433.638	1	-2
434.832	1	-1
436.026	1	9
437.220	1	8
438.414	1	-10
439.608	1	-11
440.802	1	-1
441.996	1	6
443.190	1	1
444.384	1	0
445.578	1	-5
446.771	1	3
447.965	1	3
449.159	1	-6
450.352	1	3
451.546	1	-6
452.739	1	4
453.933	1	3
455.126	1	-10
456.320	1	-9
457.513	1	7
458.706	1	4
459.899	1	2
461.093	1	2
462.286	1	1
463.479	1	2
464.672	1	-6
465.865	1	-6
467.058	1	-13
468.251	1	-6
469.444	1	0
470.637	1	-6
471.830	1	-2
473.023	1	3
474.215	1	11
475.408	1	-4
476.601	1	-10
477.793	1	0
478.986	1	3
480.179	1	5
481.371	1	3
482.564	1	1
483.756	1	-1
484.948	1	-4
486.141	1	1
487.333	1	4
488.525	1	1
489.718	1	-1
490.910	1	5
492.102	1	-4
493.294	1	-5
494.486	1	2
495.678	1	-7
496.870	1	7
498.062	1	3
499.254	1	2
500.446	1	-12
501.638	1	-6
502.829	1	3
504.021	1	-6
505.213	1	1
506.404	1	1
507.596	1	-2
508.788	1	13
509.979	1	0
511.171	1	-1
512.362	1	-12
513.553	1	-15
514.745	1	-3
515.936	1	-2
517.127	1	-1
518.319	1	-3
519.510	1	-2
520.701	1	2
521.892	1	-5
523.083	1	-5
524.274	1	-6
525.465	1	11
526.656	1	-6
527.847	1	2
529.038	1	-1
530.229	1	2
531.419	1	1
532.610	1	-3
533.801	1	7
534.991	1	-2
536.182	1	-4
537.373	1	1
538.563	1	0
539.754	1	-2
540.944	1	1
542.134	1	0
543.325	1	-5
544.515	1	-1
545.705	1	-12
546.896	1	0
548.086	1	2
549.276	1	-2
550.466	1	-1
551.656	1	4
552.846	1	1
554.036	1	-5
555.226	1	-5
556.416	1	-8
557.606	1	4
558.796	1	2
559.986	1	-7
561.175	1	-2
562.365	1	9
563.555	1	-3
564.744	1	0
565.934	1	14
567.123	1	5
568.313	1	8
569.502	1	-8
570.692	1	7
571.881	1	11
573.070	1	2
574.260	1	6
575.449	1	-7
576.638	1	-5
577.827	1	-6
579.016	1	4
580.205	1	2
581.394	1	0
582.583	1	8
583.772	1	7
584.961	1	2
586.150	1	-2
587.339	1	1
588.528	1	-1
589.717	1	-6
590.905	1	-8
592.094	1	-9
593.283	1	-2
594.471	1	7
595.660	1	-5
596.848	1	-4
598.037	1	-4
599.225	1	-10
600.413	1	10
601.602	1	9
602.790	1	-3
603.978	1	-8
605.166	1	6
606.355	1	0
607.543	1	-4
608.731	1	-11
609.919	1	4
611.107	1	4
612.295	1	0
613.483	1	2
614.671	1	10
615.858	1	0
617.046	1	-2
618.234	1	-10
619.422	1	-8
620.609	1	3
621.797	1	0
622.985	1	-2
624.172	1	4
625.360	1	0
626.547	1	-2
627.735	1	-4
628.922	1	4
630.109	1	-12
631.297	1	0
632.484	1	-2
633.671	1	0
634.858	1	-8
636.045	1	8
637.232	1	0
638.419	1	-6
639.606	1	-1
640.793	1	6
641.980	1	4
643.167	1	-2
644.354	1	-3
645.541	1	0
646.728	1	-9
647.914	1	-7
649.101	1	-2
650.288	1	11
651.474	1	-7
652.661	1	-5
653.847	1	3
655.034	1	-2
656.220	1	-9
657.406	1	2
658.593	1	7
659.779	1	-2
660.965	1	2
662.152	1	-6
663.338	1	4
664.524	1	3
665.710	1	0
666.896	1	-6
668.082	1	6
669.268	1	-8
670.454	1	4
671.640	1	-2
672.826	1	-2
674.011	1	1
675.197	1	-7
676.383	1	6
677.569	1	-10
678.754	1	-13
679.940	1	-5
681.125	1	4
682.311	1	6
683.496	1	0
684.682	1	-10
685.867	1	-3
687.053	1	2
688.238	1	-1
688.746	1	-1

File: GaN_sample F_spot 12_UVVIS_200 K_200um_800 ms 2x2mm1_430.txt
340.368	1	2
341.565	1	-15
342.763	1	-2
343.960	1	-4
345.157	1	-8
346.354	1	-1
347.552	1	1
348.749	1	-12
349.946	1	-5
351.143	1	0
352.340	1	4
353.537	1	1
354.734	1	3
355.931	1	-3
357.127	1	2
358.324	1	0
359.521	1	1
360.718	1	13
361.914	1	10
363.111	1	1
364.308	1	8
365.504	1	20
366.701	1	4
367.897	1	5
369.093	1	8
370.290	1	4
371.486	1	1
372.682	1	8
373.879	1	1
375.075	1	1
376.271	1	5
377.467	1	2
378.663	1	-5
379.859	1	-5
381.055	1	10
382.251	1	-8
383.447	1	-8
384.643	1	9
385.839	1	-1
387.035	1	5
388.230	1	6
389.426	1	-3
390.622	1	-6
391.817	1	2
393.013	1	5
394.208	1	5
395.404	1	-5
396.599	1	-5
397.795	1	-2
398.990	1	-8
400.186	1	1
401.381	1	-5
402.576	1	0
403.771	1	6
404.967	1	3
406.162	1	-3
407.357	1	-2
408.552	1	-5
409.747	1	-1
410.942	1	8
412.137	1	9
413.332	1	4
414.526	1	-8
415.721	1	2
416.916	1	-7
418.111	1	-2
419.305	1	3
420.500	1	-2
421.695	1	-9
422.889	1	-8
424.084	1	-11
425.278	1	9
426.472	1	-7
427.667	1	10
428.861	1	-2
430.055	1	4
431.250	1	-3
432.444	1	3
433.638	1	4
434.832	1	-1
436.026	1	4
437.220	1	5
438.414	1	-15
439.608	1	-8
440.802	1	-1
441.996	1	1
443.190	1	-5
444.384	1	-6
445.578	1	-17
446.771	1	8
447.965	1	-6
449.159	1	-2
450.352	1	-8
451.546	1	-1
452.739	1	5
453.933	1	-8
455.126	1	-6
456.320	1	3
457.513	1	2
458.706	1	-2
459.899	1	-2
461.093	1	-1
462.286	1	-3
463.479	1	-6
464.672	1	2
465.865	1	2
467.058	1	-5
468.251	1	-2
469.444	1	-1
470.637	1	2
471.830	1	1
473.023	1	3
474.215	1	9
475.408	1	-6
476.601	1	-1
477.793	1	-8
478.986	1	-14
480.179	1	1
481.371	1	3
482.564	1	2
483.756	1	12
484.948	1	-10
486.141	1	-7
487.333	1	-5
488.525	1	1
489.718	1	-3
490.910	1	4
492.102	1	-10
493.294	1	-1
494.486	1	5
495.678	1	-4
496.870	1	-1
498.062	1	-2
499.254	1	-9
500.446	1	-7
501.638	1	4
502.829	1	-1
504.021	1	1
505.213	1	5
506.404	1	-2
507.596	1	3
508.788	1	6
509.979	1	-2
511.171	1	-2
512.362	1	-1
513.553	1	-11
514.745	1	-2
515.936	1	-2
517.127	1	-9
518.319	1	-11
519.510	1	-2
520.701	1	-6
521.892	1	7
523.083	1	-4
524.274	1	-6
525.465	1	11
526.656	1	-3
527.847	1	2
529.038	1	-1
530.229	1	-3
531.419	1	0
532.610	1	-6
533.801	1	7
534.991	1	-5
536.182	1	6
537.373	1	-3
538.563	1	3
539.754	1	-2
540.944	1	-1
542.134	1	6
543.325	1	-1
544.515	1	-3
545.705	1	-1
546.896	1	-9
548.086	1	-7
549.276	1	1
550.466	1	-2
551.656	1	8
552.846	1	0
554.036	1	0
555.226	1	-9
556.416	1	-5
557.606	1	8
558.796	1	1
559.986	1	-7
561.175	1	-2
562.365	1	0
563.555	1	4
564.744	1	-2
565.934	1	17
567.123	1	0
568.313	1	3
569.502	1	-1
570.692	1	2
571.881	1	2
573.070	1	-1
574.260	1	7
575.449	1	-1
576.638	1	-2
577.827	1	0
579.016	1	3
580.205	1	-1
581.394	1	0
582.583	1	11
583.772	1	9
584.961	1	4
586.150	1	-1
587.339	1	6
588.528	1	3
589.717	1	0
590.905	1	-2
592.094	1	-3
593.283	1	-4
594.471	1	6
595.660	1	1
596.848	1	-4
598.037	1	-10
599.225	1	-3
600.413	1	8
601.602	1	11
602.790	1	3
603.978	1	-3
605.166	1	1
606.355	1	-2
607.543	1	0
608.731	1	-1
609.919	1	0
611.107	1	-2
612.295	1	-3
613.483	1	-7
614.671	1	-1
615.858	1	3
617.046	1	5
618.234	1	6
619.422	1	-4
620.609	1	5
621.797	1	3
622.985	1	-1
624.172	1	0
625.360	1	0
626.547	1	-2
627.735	1	2
628.922	1	-3
630.109	1	-5
631.297	1	-2
632.484	1	-11
633.671	1	-3
634.858	1	-4
636.045	1	9
637.232	1	-4
638.419	1	-2
639.606	1	-2
640.793	1	7
641.980	1	1
643.167	1	-8
644.354	1	1
645.541	1	-3
646.728	1	-2
647.914	1	-2
649.101	1	-7
650.288	1	0
651.474	1	-14
652.661	1	-5
653.847	1	9
655.034	1	-8
656.220	1	-6
657.406	1	1
658.593	1	9
659.779	1	2
660.965	1	-1
662.152	1	2
663.338	1	10
664.524	1	-1
665.710	1	1
666.896	1	-3
668.082	1	-11
669.268	1	-8
670.454	1	3
671.640	1	7
672.826	1	-6
674.011	1	5
675.197	1	-4
676.383	1	5
677.569	1	0
678.754	1	0
679.940	1	0
681.125	1	-2
682.311	1	11
683.496	1	9
684.682	1	-10
685.867	1	-4
687.053	1	-10
688.238	1	3
688.746	1	-8

File: GaN_sample F_spot 12_UVVIS_200 K_200um_800 ms 2x2mm1_431.txt
340.368	1	8
341.565	1	-12
342.763	1	4
343.960	1	-2
345.157	1	-8
346.354	1	0
347.552	1	-7
348.749	1	-4
349.946	1	-9
351.143	1	2
352.340	1	-2
353.537	1	1
354.734	1	7
355.931	1	-3
357.127	1	-16
358.324	1	2
359.521	1	5
360.718	1	5
361.914	1	4
363.111	1	-2
364.308	1	4
365.504	1	12
366.701	1	8
367.897	1	6
369.093	1	0
370.290	1	14
371.486	1	9
372.682	1	15
373.879	1	0
375.075	1	7
376.271	1	5
377.467	1	2
378.663	1	2
379.859	1	-7
381.055	1	-4
382.251	1	-1
383.447	1	1
384.643	1	5
385.839	1	4
387.035	1	8
388.230	1	12
389.426	1	-4
390.622	1	-11
391.817	1	2
393.013	1	0
394.208	1	-9
395.404	1	0
396.599	1	-5
397.795	1	-10
398.990	1	3
400.186	1	3
401.381	1	-3
402.576	1	-8
403.771	1	2
404.967	1	8
406.162	1	4
407.357	1	-1
408.552	1	1
409.747	1	-7
410.942	1	3
412.137	1	-4
413.332	1	-2
414.526	1	-2
415.721	1	0
416.916	1	0
418.111	1	0
419.305	1	5
420.500	1	0
421.695	1	-2
422.889	1	-10
424.084	1	-6
425.278	1	0
426.472	1	-5
427.667	1	6
428.861	1	-4
430.055	1	5
431.250	1	4
432.444	1	1
433.638	1	-7
434.832	1	10
436.026	1	9
437.220	1	-5
438.414	1	-11
439.608	1	-4
440.802	1	0
441.996	1	7
443.190	1	4
444.384	1	-21
445.578	1	-5
446.771	1	7
447.965	1	5
449.159	1	-12
450.352	1	-5
451.546	1	-8
452.739	1	6
453.933	1	2
455.126	1	2
456.320	1	0
457.513	1	8
458.706	1	5
459.899	1	-7
461.093	1	5
462.286	1	-4
463.479	1	-2
464.672	1	7
465.865	1	-6
467.058	1	-2
468.251	1	2
469.444	1	-10
470.637	1	0
471.830	1	-3
473.023	1	2
474.215	1	6
475.408	1	3
476.601	1	-4
477.793	1	-4
478.986	1	-5
480.179	1	-6
481.371	1	6
482.564	1	3
483.756	1	11
484.948	1	-7
486.141	1	-7
487.333	1	-1
488.525	1	-4
489.718	1	-15
490.910	1	9
492.102	1	-9
493.294	1	-7
494.486	1	4
495.678	1	-3
496.870	1	-1
498.062	1	-2
499.254	1	-7
500.446	1	-6
501.638	1	-8
502.829	1	-4
504.021	1	-2
505.213	1	5
506.404	1	1
507.596	1	-2
508.788	1	14
509.979	1	-4
511.171	1	2
512.362	1	-2
513.553	1	0
514.745	1	-3
515.936	1	2
517.127	1	-3
518.319	1	-3
519.510	1	-4
520.701	1	-4
521.892	1	3
523.083	1	-5
524.274	1	-4
525.465	1	12
526.656	1	-2
527.847	1	1
529.038	1	2
530.229	1	3
531.419	1	4
532.610	1	-2
533.801	1	14
534.991	1	1
536.182	1	-4
537.373	1	-1
538.563	1	6
539.754	1	2
540.944	1	4
542.134	1	6
543.325	1	-1
544.515	1	0
545.705	1	-2
546.896	1	-3
548.086	1	-2
549.276	1	-7
550.466	1	5
551.656	1	4
552.846	1	1
554.036	1	-3
555.226	1	-4
556.416	1	-1
557.606	1	12
558.796	1	-4
559.986	1	-3
561.175	1	3
562.365	1	4
563.555	1	-3
564.744	1	7
565.934	1	7
567.123	1	0
568.313	1	0
569.502	1	-7
570.692	1	6
571.881	1	10
573.070	1	-5
574.260	1	6
575.449	1	-12
576.638	1	-3
577.827	1	-4
579.016	1	15
580.205	1	0
581.394	1	2
582.583	1	8
583.772	1	10
584.961	1	6
586.150	1	-2
587.339	1	-2
588.528	1	7
589.717	1	11
590.905	1	-6
592.094	1	2
593.283	1	6
594.471	1	4
595.660	1	-7
596.848	1	-4
598.037	1	2
599.225	1	-5
600.413	1	5
601.602	1	17
602.790	1	2
603.978	1	1
605.166	1	5
606.355	1	4
607.543	1	2
608.731	1	-5
609.919	1	16
611.107	1	-3
612.295	1	0
613.483	1	5
614.671	1	3
615.858	1	-1
617.046	1	0
618.234	1	-3
619.422	1	-6
620.609	1	4
621.797	1	-4
622.985	1	3
624.172	1	0
625.360	1	2
626.547	1	2
627.735	1	9
628.922	1	-2
630.109	1	-5
631.297	1	-2
632.484	1	-7
633.671	1	-5
634.858	1	-2
636.045	1	7
637.232	1	-4
638.419	1	-5
639.606	1	1
640.793	1	9
641.980	1	5
643.167	1	0
644.354	1	-1
645.541	1	2
646.728	1	-4
647.914	1	-13
649.101	1	-9
650.288	1	1
651.474	1	2
652.661	1	-2
653.847	1	8
655.034	1	2
656.220	1	-9
657.406	1	-2
658.593	1	4
659.779	1	4
660.965	1	5
662.152	1	3
663.338	1	2
664.524	1	-5
665.710	1	-6
666.896	1	-10
668.082	1	7
669.268	1	-3
670.454	1	8
671.640	1	2
672.826	1	-12
674.011	1	-3
675.197	1	-3
676.383	1	1
677.569	1	-4
678.754	1	-14
679.940	1	-9
681.125	1	4
682.311	1	11
683.496	1	3
684.682	1	-7
685.867	1	8
687.053	1	8
688.238	1	11
688.746	1	-8

File: GaN_sample F_spot 12_UVVIS_200 K_200um_800 ms 2x2mm1_433.txt
340.368	1	1
341.565	1	-9
342.763	1	10
343.960	1	-9
345.157	1	2
346.354	1	-3
347.552	1	-3
348.749	1	-14
349.946	1	-5
351.143	1	-4
352.340	1	1
353.537	1	4
354.734	1	5
355.931	1	-3
357.127	1	-5
358.324	1	2
359.521	1	-1
360.718	1	-2
361.914	1	11
363.111	1	2
364.308	1	-1
365.504	1	19
366.701	1	2
367.897	1	14
369.093	1	-3
370.290	1	7
371.486	1	7
372.682	1	9
373.879	1	3
375.075	1	-3
376.271	1	6
377.467	1	0
378.663	1	-17
379.859	1	10
381.055	1	7
382.251	1	0
383.447	1	-8
384.643	1	6
385.839	1	-3
387.035	1	3
388.230	1	9
389.426	1	-1
390.622	1	-3
391.817	1	-1
393.013	1	-5
394.208	1	-6
395.404	1	-3
396.599	1	1
397.795	1	-2
398.990	1	-3
400.186	1	-3
401.381	1	1
402.576	1	-10
403.771	1	10
404.967	1	-6
406.162	1	6
407.357	1	-6
408.552	1	-6
409.747	1	-3
410.942	1	1
412.137	1	5
413.332	1	-1
414.526	1	0
415.721	1	0
416.916	1	-7
418.111	1	-2
419.305	1	2
420.500	1	-1
421.695	1	-4
422.889	1	-8
424.084	1	3
425.278	1	9
426.472	1	1
427.667	1	7
428.861	1	-4
430.055	1	2
431.250	1	-2
432.444	1	7
433.638	1	-15
434.832	1	7
436.026	1	3
437.220	1	8
438.414	1	-9
439.608	1	-21
440.802	1	-7
441.996	1	9
443.190	1	7
444.384	1	-1
445.578	1	-7
446.771	1	16
447.965	1	-3
449.159	1	-15
450.352	1	-9
451.546	1	0
452.739	1	-3
453.933	1	-4
455.126	1	-4
456.320	1	-2
457.513	1	-1
458.706	1	4
459.899	1	3
461.093	1	-2
462.286	1	2
463.479	1	2
464.672	1	1
465.865	1	-1
467.058	1	3
468.251	1	-5
469.444	1	-2
470.637	1	-1
471.830	1	-7
473.023	1	7
474.215	1	9
475.408	1	1
476.601	1	-9
477.793	1	6
478.986	1	-5
480.179	1	0
481.371	1	7
482.564	1	8
483.756	1	12
484.948	1	-6
486.141	1	-8
487.333	1	-7
488.525	1	-3
489.718	1	-4
490.910	1	-3
492.102	1	-3
493.294	1	-1
494.486	1	3
495.678	1	-3
496.870	1	1
498.062	1	-3
499.254	1	-4
500.446	1	-6
501.638	1	-5
502.829	1	-8
504.021	1	-4
505.213	1	4
506.404	1	-5
507.596	1	6
508.788	1	10
509.979	1	-4
511.171	1	-6
512.362	1	1
513.553	1	-15
514.745	1	1
515.936	1	2
517.127	1	1
518.319	1	0
519.510	1	-2
520.701	1	6
521.892	1	8
523.083	1	-7
524.274	1	-2
525.465	1	1
526.656	1	1
527.847	1	8
529.038	1	1
530.229	1	-2
531.419	1	0
532.610	1	-11
533.801	1	16
534.991	1	6
536.182	1	-2
537.373	1	-4
538.563	1	3
539.754	1	2
540.944	1	0
542.134	1	4
543.325	1	-5
544.515	1	1
545.705	1	-3
546.896	1	-10
548.086	1	-3
549.276	1	-8
550.466	1	4
551.656	1	6
552.846	1	1
554.036	1	-7
555.226	1	-5
556.416	1	-7
557.606	1	-1
558.796	1	6
559.986	1	0
561.175	1	10
562.365	1	2
563.555	1	-10
564.744	1	-1
565.934	1	6
567.123	1	7
568.313	1	10
569.502	1	0
570.692	1	-1
571.881	1	16
573.070	1	2
574.260	1	7
575.449	1	2
576.638	1	-4
577.827	1	-3
579.016	1	6
580.205	1	-3
581.394	1	-2
582.583	1	9
583.772	1	1
584.961	1	6
586.150	1	-1
587.339	1	4
588.528	1	2
589.717	1	-6
590.905	1	-4
592.094	1	-3
593.283	1	-4
594.471	1	9
595.660	1	4
596.848	1	-9
598.037	1	-9
599.225	1	-11
600.413	1	11
601.602	1	8
602.790	1	-1
603.978	1	1
605.166	1	-1
606.355	1	1
607.543	1	-2
608.731	1	-4
609.919	1	4
611.107	1	-9
612.295	1	-12
613.483	1	4
614.671	1	-5
615.858	1	7
617.046	1	0
618.234	1	-7
619.422	1	-2
620.609	1	3
621.797	1	-10
622.985	1	2
624.172	1	0
625.360	1	4
626.547	1	6
627.735	1	2
628.922	1	8
630.109	1	-8
631.297	1	-2
632.484	1	4
633.671	1	-4
634.858	1	-13
636.045	1	7
637.232	1	-1
638.419	1	-10
639.606	1	3
640.793	1	9
641.980	1	2
643.167	1	-5
644.354	1	7
645.541	1	3
646.728	1	-5
647.914	1	-14
649.101	1	-3
650.288	1	8
651.474	1	-3
652.661	1	-6
653.847	1	8
655.034	1	6
656.220	1	-7
657.406	1	5
658.593	1	4
659.779	1	-5
660.965	1	8
662.152	1	2
663.338	1	7
664.524	1	-6
665.710	1	0
666.896	1	-15
668.082	1	5
669.268	1	-3
670.454	1	1
671.640	1	4
672.826	1	-6
674.011	1	4
675.197	1	-7
676.383	1	4
677.569	1	0
678.754	1	-5
679.940	1	1
681.125	1	2
682.311	1	5
683.496	1	4
684.682	1	-5
685.867	1	-7
687.053	1	1
688.238	1	4
688.746	1	-1

File: GaN_sample F_spot 12_UVVIS_200 K_200um_800 ms 2x2mm1_445.txt
340.368	1	0
341.565	1	-11
342.763	1	-3
343.960	1	0
345.157	1	-1
346.354	1	13
347.552	1	-5
348.749	1	-8
349.946	1	-9
351.143	1	-7
352.340	1	3
353.537	1	4
354.734	1	-3
355.931	1	4
357.127	1	6
358.324	1	0
359.521	1	14
360.718	1	7
361.914	1	0
363.111	1	2
364.308	1	-6
365.504	1	9
366.701	1	-1
367.897	1	3
369.093	1	10
370.290	1	5
371.486	1	13
372.682	1	7
373.879	1	-5
375.075	1	2
376.271	1	12
377.467	1	13
378.663	1	-10
379.859	1	-3
381.055	1	12
382.251	1	-5
383.447	1	-2
384.643	1	4
385.839	1	-3
387.035	1	-7
388.230	1	9
389.426	1	7
390.622	1	-11
391.817	1	2
393.013	1	-8
394.208	1	-10
395.404	1	-4
396.599	1	-12
397.795	1	-6
398.990	1	0
400.186	1	4
401.381	1	-10
402.576	1	0
403.771	1	-9
404.967	1	-2
406.162	1	1
407.357	1	1
408.552	1	-3
409.747	1	2
410.942	1	6
412.137	1	-1
413.332	1	5
414.526	1	-8
415.721	1	0
416.916	1	-6
418.111	1	1
419.305	1	-5
420.500	1	-8
421.695	1	-5
422.889	1	-8
424.084	1	-5
425.278	1	11
426.472	1	-4
427.667	1	2
428.861	1	-6
430.055	1	-1
431.250	1	-7
432.444	1	5
433.638	1	-2
434.832	1	-4
436.026	1	4
437.220	1	0
438.414	1	-10
439.608	1	-6
440.802	1	0
441.996	1	-2
443.190	1	3
444.384	1	0
445.578	1	-7
446.771	1	8
447.965	1	7
449.159	1	-3
450.352	1	1
451.546	1	3
452.739	1	-2
453.933	1	-7
455.126	1	-12
456.320	1	-4
457.513	1	10
458.706	1	1
459.899	1	4
461.093	1	5
462.286	1	1
463.479	1	-5
464.672	1	-6
465.865	1	5
467.058	1	-8
468.251	1	5
469.444	1	-9
470.637	1	-6
471.830	1	1
473.023	1	-8
474.215	1	13
475.408	1	0
476.601	1	-2
477.793	1	5
478.986	1	-3
480.179	1	-6
481.371	1	-3
482.564	1	0
483.756	1	3
484.948	1	-9
486.141	1	1
487.333	1	-2
488.525	1	-1
489.718	1	3
490.910	1	-2
492.102	1	-7
493.294	1	-6
494.486	1	1
495.678	1	-1
496.870	1	4
498.062	1	-6
499.254	1	-6
500.446	1	-13
501.638	1	-2
502.829	1	5
504.021	1	3
505.213	1	3
506.404	1	0
507.596	1	-8
508.788	1	13
509.979	1	-5
511.171	1	-7
512.362	1	-6
513.553	1	-10
514.745	1	-7
515.936	1	-1
517.127	1	5
518.319	1	7
519.510	1	-7
520.701	1	6
521.892	1	7
523.083	1	0
524.274	1	1
525.465	1	9
526.656	1	-6
527.847	1	-3
529.038	1	10
530.229	1	-4
531.419	1	12
532.610	1	1
533.801	1	21
534.991	1	-4
536.182	1	-10
537.373	1	-9
538.563	1	11
539.754	1	1
540.944	1	-6
542.134	1	8
543.325	1	3
544.515	1	-8
545.705	1	-3
546.896	1	-1
548.086	1	4
549.276	1	-7
550.466	1	6
551.656	1	2
552.846	1	1
554.036	1	-4
555.226	1	-15
556.416	1	-3
557.606	1	1
558.796	1	-8
559.986	1	-4
561.175	1	6
562.365	1	-2
563.555	1	-1
564.744	1	3
565.934	1	3
567.123	1	6
568.313	1	5
569.502	1	4
570.692	1	-3
571.881	1	11
573.070	1	0
574.260	1	14
575.449	1	-2
576.638	1	-3
577.827	1	-6
579.016	1	14
580.205	1	-7
581.394	1	-8
582.583	1	6
583.772	1	7
584.961	1	3
586.150	1	7
587.339	1	2
588.528	1	-2
589.717	1	2
590.905	1	-10
592.094	1	6
593.283	1	1
594.471	1	-1
595.660	1	2
596.848	1	-5
598.037	1	-5
599.225	1	-7
600.413	1	6
601.602	1	3
602.790	1	-3
603.978	1	-6
605.166	1	0
606.355	1	-2
607.543	1	2
608.731	1	1
609.919	1	10
611.107	1	-3
612.295	1	0
613.483	1	8
614.671	1	7
615.858	1	-3
617.046	1	-4
618.234	1	-3
619.422	1	0
620.609	1	4
621.797	1	-3
622.985	1	0
624.172	1	-2
625.360	1	4
626.547	1	-3
627.735	1	3
628.922	1	-2
630.109	1	-11
631.297	1	8
632.484	1	-7
633.671	1	-10
634.858	1	-1
636.045	1	8
637.232	1	-3
638.419	1	-2
639.606	1	3
640.793	1	5
641.980	1	11
643.167	1	-11
644.354	1	-9
645.541	1	7
646.728	1	-7
647.914	1	-4
649.101	1	-13
650.288	1	-3
651.474	1	3
652.661	1	-4
653.847	1	2
655.034	1	-2
656.220	1	-9
657.406	1	4
658.593	1	4
659.779	1	-8
660.965	1	5
662.152	1	2
663.338	1	-1
664.524	1	2
665.710	1	-3
666.896	1	1
668.082	1	1
669.268	1	-5
670.454	1	4
671.640	1	-3
672.826	1	-8
674.011	1	1
675.197	1	-3
676.383	1	-1
677.569	1	-2
678.754	1	-1
679.940	1	-7
681.125	1	2
682.311	1	-3
683.496	1	11
684.682	1	-13
685.867	1	5
687.053	1	-3
688.238	1	4
688.746	1	1