Folder: cryo-il_analysis/Data/GaN_200K_800ms (part 35)

File: GaN_sample F_spot 12_UVVIS_200 K_200um_800 ms 2x2mm1_368.txt
340.368	1	3
341.565	1	-9
342.763	1	11
343.960	1	1
345.157	1	-6
346.354	1	-4
347.552	1	-9
348.749	1	-2
349.946	1	-6
351.143	1	-3
352.340	1	3
353.537	1	2
354.734	1	5
355.931	1	-5
357.127	1	-1
358.324	1	-3
359.521	1	12
360.718	1	2
361.914	1	5
363.111	1	1
364.308	1	6
365.504	1	14
366.701	1	8
367.897	1	7
369.093	1	1
370.290	1	12
371.486	1	26
372.682	1	5
373.879	1	2
375.075	1	0
376.271	1	12
377.467	1	6
378.663	1	1
379.859	1	5
381.055	1	22
382.251	1	-10
383.447	1	-5
384.643	1	5
385.839	1	1
387.035	1	-7
388.230	1	8
389.426	1	1
390.622	1	1
391.817	1	3
393.013	1	3
394.208	1	-3
395.404	1	2
396.599	1	-4
397.795	1	0
398.990	1	1
400.186	1	-2
401.381	1	-4
402.576	1	3
403.771	1	6
404.967	1	-2
406.162	1	8
407.357	1	-2
408.552	1	-8
409.747	1	-1
410.942	1	1
412.137	1	8
413.332	1	2
414.526	1	-1
415.721	1	-6
416.916	1	-4
418.111	1	-3
419.305	1	9
420.500	1	0
421.695	1	2
422.889	1	-5
424.084	1	2
425.278	1	12
426.472	1	2
427.667	1	11
428.861	1	-3
430.055	1	-3
431.250	1	-7
432.444	1	6
433.638	1	0
434.832	1	4
436.026	1	3
437.220	1	-1
438.414	1	-11
439.608	1	-4
440.802	1	-6
441.996	1	3
443.190	1	0
444.384	1	-11
445.578	1	-6
446.771	1	12
447.965	1	-4
449.159	1	-11
450.352	1	2
451.546	1	3
452.739	1	-4
453.933	1	0
455.126	1	-11
456.320	1	-8
457.513	1	9
458.706	1	-1
459.899	1	-4
461.093	1	0
462.286	1	-4
463.479	1	-10
464.672	1	-1
465.865	1	-4
467.058	1	-4
468.251	1	5
469.444	1	-4
470.637	1	-5
471.830	1	0
473.023	1	3
474.215	1	11
475.408	1	-2
476.601	1	-7
477.793	1	6
478.986	1	-8
480.179	1	1
481.371	1	2
482.564	1	8
483.756	1	-1
484.948	1	-8
486.141	1	-3
487.333	1	2
488.525	1	-5
489.718	1	-3
490.910	1	-4
492.102	1	-7
493.294	1	-2
494.486	1	0
495.678	1	-6
496.870	1	-4
498.062	1	-4
499.254	1	-5
500.446	1	-15
501.638	1	6
502.829	1	-8
504.021	1	-1
505.213	1	15
506.404	1	3
507.596	1	9
508.788	1	15
509.979	1	2
511.171	1	-9
512.362	1	-6
513.553	1	-12
514.745	1	-6
515.936	1	4
517.127	1	1
518.319	1	-4
519.510	1	-3
520.701	1	3
521.892	1	1
523.083	1	-3
524.274	1	0
525.465	1	-2
526.656	1	-1
527.847	1	-3
529.038	1	10
530.229	1	-1
531.419	1	3
532.610	1	-3
533.801	1	5
534.991	1	-6
536.182	1	-2
537.373	1	1
538.563	1	12
539.754	1	3
540.944	1	-1
542.134	1	1
543.325	1	2
544.515	1	-7
545.705	1	-2
546.896	1	2
548.086	1	3
549.276	1	1
550.466	1	5
551.656	1	7
552.846	1	0
554.036	1	7
555.226	1	-14
556.416	1	-3
557.606	1	6
558.796	1	-2
559.986	1	-6
561.175	1	2
562.365	1	4
563.555	1	2
564.744	1	1
565.934	1	7
567.123	1	1
568.313	1	8
569.502	1	-4
570.692	1	5
571.881	1	8
573.070	1	10
574.260	1	5
575.449	1	-3
576.638	1	-9
577.827	1	-1
579.016	1	11
580.205	1	-4
581.394	1	-4
582.583	1	12
583.772	1	3
584.961	1	0
586.150	1	-2
587.339	1	-4
588.528	1	7
589.717	1	6
590.905	1	1
592.094	1	-6
593.283	1	1
594.471	1	14
595.660	1	-2
596.848	1	3
598.037	1	-6
599.225	1	-15
600.413	1	11
601.602	1	7
602.790	1	2
603.978	1	0
605.166	1	7
606.355	1	1
607.543	1	-2
608.731	1	6
609.919	1	5
611.107	1	-1
612.295	1	-5
613.483	1	-4
614.671	1	2
615.858	1	-1
617.046	1	-5
618.234	1	-7
619.422	1	-1
620.609	1	-2
621.797	1	1
622.985	1	7
624.172	1	0
625.360	1	2
626.547	1	-5
627.735	1	2
628.922	1	-2
630.109	1	-17
631.297	1	0
632.484	1	-1
633.671	1	-6
634.858	1	1
636.045	1	8
637.232	1	2
638.419	1	-12
639.606	1	7
640.793	1	18
641.980	1	1
643.167	1	-3
644.354	1	3
645.541	1	1
646.728	1	-6
647.914	1	-11
649.101	1	1
650.288	1	9
651.474	1	1
652.661	1	3
653.847	1	3
655.034	1	-2
656.220	1	-8
657.406	1	5
658.593	1	4
659.779	1	-6
660.965	1	8
662.152	1	4
663.338	1	10
664.524	1	-4
665.710	1	2
666.896	1	-9
668.082	1	-3
669.268	1	-1
670.454	1	-3
671.640	1	-8
672.826	1	-5
674.011	1	5
675.197	1	-4
676.383	1	5
677.569	1	-5
678.754	1	-3
679.940	1	-3
681.125	1	7
682.311	1	-1
683.496	1	8
684.682	1	-6
685.867	1	-4
687.053	1	-2
688.238	1	9
688.746	1	-2

File: GaN_sample F_spot 12_UVVIS_200 K_200um_800 ms 2x2mm1_369.txt
340.368	1	6
341.565	1	-11
342.763	1	5
343.960	1	5
345.157	1	-1
346.354	1	-4
347.552	1	-2
348.749	1	-7
349.946	1	-3
351.143	1	-1
352.340	1	-4
353.537	1	-5
354.734	1	4
355.931	1	6
357.127	1	5
358.324	1	1
359.521	1	2
360.718	1	-2
361.914	1	1
363.111	1	2
364.308	1	6
365.504	1	6
366.701	1	11
367.897	1	9
369.093	1	12
370.290	1	11
371.486	1	16
372.682	1	7
373.879	1	5
375.075	1	1
376.271	1	7
377.467	1	12
378.663	1	0
379.859	1	-7
381.055	1	13
382.251	1	1
383.447	1	1
384.643	1	10
385.839	1	0
387.035	1	1
388.230	1	5
389.426	1	0
390.622	1	-4
391.817	1	3
393.013	1	-3
394.208	1	-2
395.404	1	-1
396.599	1	-2
397.795	1	-2
398.990	1	7
400.186	1	-4
401.381	1	-14
402.576	1	-2
403.771	1	2
404.967	1	4
406.162	1	3
407.357	1	-7
408.552	1	-6
409.747	1	-5
410.942	1	4
412.137	1	11
413.332	1	-4
414.526	1	-5
415.721	1	-3
416.916	1	1
418.111	1	5
419.305	1	4
420.500	1	-18
421.695	1	0
422.889	1	-12
424.084	1	0
425.278	1	2
426.472	1	4
427.667	1	5
428.861	1	-4
430.055	1	0
431.250	1	-4
432.444	1	9
433.638	1	4
434.832	1	1
436.026	1	5
437.220	1	4
438.414	1	-7
439.608	1	-8
440.802	1	-3
441.996	1	-3
443.190	1	1
444.384	1	-2
445.578	1	-6
446.771	1	11
447.965	1	-4
449.159	1	-2
450.352	1	4
451.546	1	4
452.739	1	-2
453.933	1	-2
455.126	1	-3
456.320	1	-3
457.513	1	3
458.706	1	-10
459.899	1	-4
461.093	1	3
462.286	1	0
463.479	1	-3
464.672	1	-2
465.865	1	-6
467.058	1	-1
468.251	1	-4
469.444	1	-6
470.637	1	0
471.830	1	-4
473.023	1	2
474.215	1	10
475.408	1	0
476.601	1	-12
477.793	1	-2
478.986	1	1
480.179	1	0
481.371	1	2
482.564	1	8
483.756	1	8
484.948	1	-9
486.141	1	-1
487.333	1	2
488.525	1	-17
489.718	1	0
490.910	1	0
492.102	1	-4
493.294	1	-2
494.486	1	6
495.678	1	-6
496.870	1	1
498.062	1	5
499.254	1	-1
500.446	1	-4
501.638	1	-4
502.829	1	-1
504.021	1	-3
505.213	1	4
506.404	1	0
507.596	1	5
508.788	1	9
509.979	1	-1
511.171	1	-3
512.362	1	-8
513.553	1	-13
514.745	1	1
515.936	1	-2
517.127	1	0
518.319	1	-3
519.510	1	4
520.701	1	9
521.892	1	-1
523.083	1	-2
524.274	1	-8
525.465	1	3
526.656	1	-6
527.847	1	0
529.038	1	-5
530.229	1	-1
531.419	1	-1
532.610	1	-9
533.801	1	10
534.991	1	3
536.182	1	3
537.373	1	7
538.563	1	7
539.754	1	5
540.944	1	-3
542.134	1	6
543.325	1	-1
544.515	1	0
545.705	1	5
546.896	1	-3
548.086	1	-7
549.276	1	-3
550.466	1	4
551.656	1	9
552.846	1	-7
554.036	1	-3
555.226	1	-9
556.416	1	0
557.606	1	3
558.796	1	1
559.986	1	0
561.175	1	0
562.365	1	3
563.555	1	-5
564.744	1	7
565.934	1	9
567.123	1	7
568.313	1	3
569.502	1	1
570.692	1	9
571.881	1	10
573.070	1	1
574.260	1	9
575.449	1	-1
576.638	1	1
577.827	1	-5
579.016	1	7
580.205	1	0
581.394	1	-4
582.583	1	12
583.772	1	4
584.961	1	-2
586.150	1	0
587.339	1	2
588.528	1	1
589.717	1	3
590.905	1	3
592.094	1	-5
593.283	1	10
594.471	1	3
595.660	1	3
596.848	1	0
598.037	1	-5
599.225	1	-13
600.413	1	9
601.602	1	12
602.790	1	3
603.978	1	0
605.166	1	4
606.355	1	8
607.543	1	-2
608.731	1	-1
609.919	1	5
611.107	1	-1
612.295	1	-5
613.483	1	3
614.671	1	3
615.858	1	-1
617.046	1	-2
618.234	1	-1
619.422	1	-12
620.609	1	1
621.797	1	-5
622.985	1	-5
624.172	1	6
625.360	1	1
626.547	1	-4
627.735	1	1
628.922	1	2
630.109	1	-13
631.297	1	-3
632.484	1	-6
633.671	1	2
634.858	1	-6
636.045	1	10
637.232	1	-3
638.419	1	-4
639.606	1	4
640.793	1	4
641.980	1	11
643.167	1	3
644.354	1	6
645.541	1	7
646.728	1	-12
647.914	1	-8
649.101	1	-2
650.288	1	-2
651.474	1	0
652.661	1	-7
653.847	1	6
655.034	1	-3
656.220	1	-9
657.406	1	5
658.593	1	11
659.779	1	7
660.965	1	9
662.152	1	2
663.338	1	13
664.524	1	-3
665.710	1	-2
666.896	1	-2
668.082	1	-2
669.268	1	-3
670.454	1	2
671.640	1	-2
672.826	1	-3
674.011	1	0
675.197	1	-12
676.383	1	-1
677.569	1	-10
678.754	1	-9
679.940	1	-5
681.125	1	2
682.311	1	4
683.496	1	-9
684.682	1	-9
685.867	1	-10
687.053	1	0
688.238	1	1
688.746	1	0

File: GaN_sample F_spot 12_UVVIS_200 K_200um_800 ms 2x2mm1_372.txt
340.368	1	4
341.565	1	-5
342.763	1	3
343.960	1	-3
345.157	1	-6
346.354	1	-1
347.552	1	-13
348.749	1	-10
349.946	1	-2
351.143	1	-8
352.340	1	1
353.537	1	2
354.734	1	-3
355.931	1	-4
357.127	1	2
358.324	1	-3
359.521	1	4
360.718	1	3
361.914	1	2
363.111	1	-1
364.308	1	0
365.504	1	12
366.701	1	8
367.897	1	3
369.093	1	10
370.290	1	5
371.486	1	13
372.682	1	16
373.879	1	11
375.075	1	5
376.271	1	14
377.467	1	13
378.663	1	0
379.859	1	1
381.055	1	7
382.251	1	0
383.447	1	0
384.643	1	6
385.839	1	-9
387.035	1	3
388.230	1	11
389.426	1	5
390.622	1	2
391.817	1	1
393.013	1	-3
394.208	1	-5
395.404	1	-3
396.599	1	-15
397.795	1	2
398.990	1	-2
400.186	1	1
401.381	1	-5
402.576	1	-5
403.771	1	4
404.967	1	-9
406.162	1	3
407.357	1	0
408.552	1	-9
409.747	1	-1
410.942	1	2
412.137	1	1
413.332	1	-4
414.526	1	-1
415.721	1	3
416.916	1	-15
418.111	1	-3
419.305	1	-4
420.500	1	-8
421.695	1	-1
422.889	1	-13
424.084	1	5
425.278	1	11
426.472	1	2
427.667	1	5
428.861	1	-8
430.055	1	-1
431.250	1	-3
432.444	1	10
433.638	1	-2
434.832	1	2
436.026	1	-4
437.220	1	6
438.414	1	-14
439.608	1	-6
440.802	1	-3
441.996	1	-3
443.190	1	2
444.384	1	-10
445.578	1	-10
446.771	1	17
447.965	1	-1
449.159	1	-15
450.352	1	1
451.546	1	-5
452.739	1	-3
453.933	1	-12
455.126	1	-6
456.320	1	0
457.513	1	5
458.706	1	-8
459.899	1	5
461.093	1	-1
462.286	1	-1
463.479	1	2
464.672	1	-14
465.865	1	-9
467.058	1	1
468.251	1	0
469.444	1	-4
470.637	1	1
471.830	1	-5
473.023	1	-2
474.215	1	7
475.408	1	0
476.601	1	4
477.793	1	-4
478.986	1	-10
480.179	1	-2
481.371	1	3
482.564	1	-1
483.756	1	0
484.948	1	-10
486.141	1	0
487.333	1	0
488.525	1	-6
489.718	1	-3
490.910	1	6
492.102	1	-8
493.294	1	-5
494.486	1	2
495.678	1	4
496.870	1	-1
498.062	1	1
499.254	1	-1
500.446	1	-8
501.638	1	-2
502.829	1	0
504.021	1	-1
505.213	1	4
506.404	1	5
507.596	1	-4
508.788	1	13
509.979	1	-3
511.171	1	-11
512.362	1	-4
513.553	1	-13
514.745	1	0
515.936	1	-4
517.127	1	-4
518.319	1	1
519.510	1	-1
520.701	1	0
521.892	1	3
523.083	1	1
524.274	1	-4
525.465	1	6
526.656	1	-6
527.847	1	-2
529.038	1	-2
530.229	1	7
531.419	1	4
532.610	1	-11
533.801	1	10
534.991	1	-2
536.182	1	-8
537.373	1	0
538.563	1	3
539.754	1	5
540.944	1	2
542.134	1	8
543.325	1	5
544.515	1	-5
545.705	1	2
546.896	1	-8
548.086	1	2
549.276	1	-5
550.466	1	-1
551.656	1	2
552.846	1	-5
554.036	1	-5
555.226	1	2
556.416	1	2
557.606	1	1
558.796	1	-3
559.986	1	-9
561.175	1	2
562.365	1	6
563.555	1	1
564.744	1	3
565.934	1	5
567.123	1	3
568.313	1	2
569.502	1	-2
570.692	1	-1
571.881	1	11
573.070	1	1
574.260	1	1
575.449	1	-5
576.638	1	-6
577.827	1	-7
579.016	1	15
580.205	1	0
581.394	1	-5
582.583	1	10
583.772	1	11
584.961	1	-1
586.150	1	2
587.339	1	-2
588.528	1	4
589.717	1	-7
590.905	1	-3
592.094	1	-10
593.283	1	3
594.471	1	10
595.660	1	9
596.848	1	2
598.037	1	-4
599.225	1	-7
600.413	1	11
601.602	1	8
602.790	1	3
603.978	1	-4
605.166	1	2
606.355	1	-1
607.543	1	-8
608.731	1	-2
609.919	1	5
611.107	1	-3
612.295	1	-5
613.483	1	1
614.671	1	1
615.858	1	2
617.046	1	-2
618.234	1	-4
619.422	1	-7
620.609	1	2
621.797	1	1
622.985	1	-2
624.172	1	2
625.360	1	-4
626.547	1	-1
627.735	1	4
628.922	1	-8
630.109	1	-17
631.297	1	-2
632.484	1	1
633.671	1	-7
634.858	1	-4
636.045	1	3
637.232	1	-4
638.419	1	0
639.606	1	1
640.793	1	9
641.980	1	-5
643.167	1	2
644.354	1	-1
645.541	1	-6
646.728	1	0
647.914	1	-1
649.101	1	-3
650.288	1	6
651.474	1	-5
652.661	1	1
653.847	1	0
655.034	1	-6
656.220	1	-6
657.406	1	-4
658.593	1	-4
659.779	1	-6
660.965	1	6
662.152	1	7
663.338	1	2
664.524	1	8
665.710	1	1
666.896	1	-1
668.082	1	-1
669.268	1	-10
670.454	1	1
671.640	1	-6
672.826	1	-4
674.011	1	-1
675.197	1	-10
676.383	1	0
677.569	1	-6
678.754	1	-4
679.940	1	-5
681.125	1	6
682.311	1	6
683.496	1	-1
684.682	1	-8
685.867	1	-1
687.053	1	-2
688.238	1	3
688.746	1	6

File: GaN_sample F_spot 12_UVVIS_200 K_200um_800 ms 2x2mm1_375.txt
340.368	1	6
341.565	1	-11
342.763	1	-1
343.960	1	-2
345.157	1	-6
346.354	1	-7
347.552	1	-12
348.749	1	-7
349.946	1	-4
351.143	1	1
352.340	1	3
353.537	1	0
354.734	1	-3
355.931	1	-5
357.127	1	-7
358.324	1	-4
359.521	1	-1
360.718	1	1
361.914	1	4
363.111	1	-3
364.308	1	6
365.504	1	9
366.701	1	5
367.897	1	19
369.093	1	1
370.290	1	8
371.486	1	22
372.682	1	9
373.879	1	5
375.075	1	1
376.271	1	6
377.467	1	11
378.663	1	-12
379.859	1	3
381.055	1	7
382.251	1	-3
383.447	1	-5
384.643	1	9
385.839	1	-3
387.035	1	0
388.230	1	17
389.426	1	-7
390.622	1	-13
391.817	1	-1
393.013	1	6
394.208	1	2
395.404	1	-4
396.599	1	-7
397.795	1	2
398.990	1	-1
400.186	1	-6
401.381	1	-5
402.576	1	-13
403.771	1	-1
404.967	1	9
406.162	1	3
407.357	1	-1
408.552	1	0
409.747	1	-3
410.942	1	5
412.137	1	3
413.332	1	1
414.526	1	-2
415.721	1	2
416.916	1	-7
418.111	1	-3
419.305	1	7
420.500	1	-6
421.695	1	-9
422.889	1	-5
424.084	1	1
425.278	1	9
426.472	1	2
427.667	1	7
428.861	1	-7
430.055	1	-7
431.250	1	-6
432.444	1	10
433.638	1	-11
434.832	1	2
436.026	1	-2
437.220	1	-2
438.414	1	-9
439.608	1	-17
440.802	1	-2
441.996	1	7
443.190	1	4
444.384	1	-14
445.578	1	-5
446.771	1	1
447.965	1	3
449.159	1	-3
450.352	1	-4
451.546	1	3
452.739	1	-3
453.933	1	-2
455.126	1	-5
456.320	1	-7
457.513	1	1
458.706	1	3
459.899	1	-2
461.093	1	-7
462.286	1	1
463.479	1	1
464.672	1	-1
465.865	1	4
467.058	1	-5
468.251	1	-4
469.444	1	-4
470.637	1	-7
471.830	1	-6
473.023	1	2
474.215	1	6
475.408	1	2
476.601	1	6
477.793	1	5
478.986	1	-2
480.179	1	-6
481.371	1	5
482.564	1	8
483.756	1	2
484.948	1	-8
486.141	1	-4
487.333	1	2
488.525	1	1
489.718	1	-4
490.910	1	4
492.102	1	-11
493.294	1	-1
494.486	1	-2
495.678	1	-2
496.870	1	-2
498.062	1	0
499.254	1	-1
500.446	1	-7
501.638	1	0
502.829	1	-6
504.021	1	4
505.213	1	12
506.404	1	5
507.596	1	-8
508.788	1	13
509.979	1	-2
511.171	1	-9
512.362	1	4
513.553	1	-7
514.745	1	-8
515.936	1	0
517.127	1	-4
518.319	1	7
519.510	1	-2
520.701	1	-3
521.892	1	2
523.083	1	-3
524.274	1	-6
525.465	1	10
526.656	1	-3
527.847	1	-1
529.038	1	-10
530.229	1	12
531.419	1	2
532.610	1	1
533.801	1	5
534.991	1	6
536.182	1	-5
537.373	1	-1
538.563	1	3
539.754	1	-4
540.944	1	-4
542.134	1	7
543.325	1	1
544.515	1	-6
545.705	1	4
546.896	1	0
548.086	1	-2
549.276	1	-2
550.466	1	-4
551.656	1	-1
552.846	1	1
554.036	1	4
555.226	1	-14
556.416	1	-9
557.606	1	0
558.796	1	-4
559.986	1	-15
561.175	1	2
562.365	1	6
563.555	1	-5
564.744	1	9
565.934	1	14
567.123	1	-4
568.313	1	3
569.502	1	-3
570.692	1	6
571.881	1	14
573.070	1	2
574.260	1	7
575.449	1	-2
576.638	1	-5
577.827	1	-4
579.016	1	13
580.205	1	-2
581.394	1	-8
582.583	1	5
583.772	1	-7
584.961	1	3
586.150	1	-4
587.339	1	6
588.528	1	0
589.717	1	1
590.905	1	-2
592.094	1	-9
593.283	1	-8
594.471	1	12
595.660	1	0
596.848	1	1
598.037	1	0
599.225	1	-11
600.413	1	8
601.602	1	7
602.790	1	6
603.978	1	-4
605.166	1	4
606.355	1	2
607.543	1	-3
608.731	1	-6
609.919	1	1
611.107	1	-10
612.295	1	-17
613.483	1	1
614.671	1	-3
615.858	1	2
617.046	1	-2
618.234	1	1
619.422	1	-8
620.609	1	8
621.797	1	0
622.985	1	6
624.172	1	-4
625.360	1	-1
626.547	1	4
627.735	1	4
628.922	1	4
630.109	1	-18
631.297	1	0
632.484	1	1
633.671	1	0
634.858	1	-5
636.045	1	4
637.232	1	-3
638.419	1	-8
639.606	1	6
640.793	1	9
641.980	1	1
643.167	1	-5
644.354	1	-2
645.541	1	-8
646.728	1	4
647.914	1	-4
649.101	1	-6
650.288	1	4
651.474	1	5
652.661	1	-7
653.847	1	-4
655.034	1	0
656.220	1	-1
657.406	1	5
658.593	1	1
659.779	1	-6
660.965	1	1
662.152	1	8
663.338	1	7
664.524	1	-3
665.710	1	5
666.896	1	-3
668.082	1	0
669.268	1	-3
670.454	1	8
671.640	1	-5
672.826	1	-6
674.011	1	0
675.197	1	-10
676.383	1	9
677.569	1	-9
678.754	1	-1
679.940	1	-11
681.125	1	2
682.311	1	6
683.496	1	5
684.682	1	-4
685.867	1	-4
687.053	1	1
688.238	1	-5
688.746	1	1

File: GaN_sample F_spot 12_UVVIS_200 K_200um_800 ms 2x2mm1_376.txt
340.368	1	5
341.565	1	-8
342.763	1	5
343.960	1	1
345.157	1	-5
346.354	1	2
347.552	1	-6
348.749	1	-12
349.946	1	-10
351.143	1	-1
352.340	1	6
353.537	1	-8
354.734	1	1
355.931	1	-5
357.127	1	-2
358.324	1	-4
359.521	1	4
360.718	1	8
361.914	1	-1
363.111	1	3
364.308	1	6
365.504	1	13
366.701	1	9
367.897	1	14
369.093	1	3
370.290	1	6
371.486	1	14
372.682	1	6
373.879	1	7
375.075	1	4
376.271	1	3
377.467	1	15
378.663	1	5
379.859	1	-11
381.055	1	0
382.251	1	-6
383.447	1	-5
384.643	1	5
385.839	1	-3
387.035	1	8
388.230	1	10
389.426	1	-1
390.622	1	2
391.817	1	2
393.013	1	1
394.208	1	5
395.404	1	-11
396.599	1	-3
397.795	1	3
398.990	1	0
400.186	1	5
401.381	1	-13
402.576	1	-6
403.771	1	3
404.967	1	2
406.162	1	-6
407.357	1	3
408.552	1	-1
409.747	1	-14
410.942	1	2
412.137	1	8
413.332	1	-3
414.526	1	-2
415.721	1	-1
416.916	1	-5
418.111	1	10
419.305	1	3
420.500	1	-2
421.695	1	-14
422.889	1	-13
424.084	1	-3
425.278	1	14
426.472	1	-7
427.667	1	-1
428.861	1	-4
430.055	1	-5
431.250	1	0
432.444	1	2
433.638	1	-2
434.832	1	-1
436.026	1	8
437.220	1	-1
438.414	1	-16
439.608	1	-3
440.802	1	-6
441.996	1	0
443.190	1	-1
444.384	1	-8
445.578	1	-7
446.771	1	5
447.965	1	-9
449.159	1	-4
450.352	1	0
451.546	1	0
452.739	1	-1
453.933	1	5
455.126	1	-7
456.320	1	-2
457.513	1	5
458.706	1	1
459.899	1	6
461.093	1	0
462.286	1	2
463.479	1	-4
464.672	1	-1
465.865	1	-11
467.058	1	6
468.251	1	-1
469.444	1	-3
470.637	1	2
471.830	1	2
473.023	1	-8
474.215	1	12
475.408	1	-5
476.601	1	4
477.793	1	3
478.986	1	5
480.179	1	3
481.371	1	0
482.564	1	2
483.756	1	2
484.948	1	-9
486.141	1	-1
487.333	1	2
488.525	1	2
489.718	1	0
490.910	1	-8
492.102	1	-7
493.294	1	-5
494.486	1	8
495.678	1	1
496.870	1	1
498.062	1	3
499.254	1	-8
500.446	1	-15
501.638	1	3
502.829	1	-9
504.021	1	1
505.213	1	8
506.404	1	4
507.596	1	-7
508.788	1	8
509.979	1	-8
511.171	1	-3
512.362	1	-9
513.553	1	-8
514.745	1	-11
515.936	1	-6
517.127	1	-7
518.319	1	1
519.510	1	-3
520.701	1	0
521.892	1	6
523.083	1	-7
524.274	1	-1
525.465	1	4
526.656	1	1
527.847	1	-1
529.038	1	-3
530.229	1	-2
531.419	1	6
532.610	1	-3
533.801	1	11
534.991	1	4
536.182	1	-11
537.373	1	-3
538.563	1	11
539.754	1	8
540.944	1	-6
542.134	1	8
543.325	1	0
544.515	1	3
545.705	1	-7
546.896	1	-8
548.086	1	-5
549.276	1	3
550.466	1	0
551.656	1	7
552.846	1	9
554.036	1	-9
555.226	1	-4
556.416	1	-2
557.606	1	1
558.796	1	4
559.986	1	1
561.175	1	4
562.365	1	5
563.555	1	1
564.744	1	-1
565.934	1	7
567.123	1	2
568.313	1	-1
569.502	1	-3
570.692	1	2
571.881	1	7
573.070	1	-6
574.260	1	6
575.449	1	0
576.638	1	1
577.827	1	-4
579.016	1	10
580.205	1	-1
581.394	1	-8
582.583	1	8
583.772	1	7
584.961	1	-2
586.150	1	2
587.339	1	7
588.528	1	-1
589.717	1	2
590.905	1	-1
592.094	1	8
593.283	1	-2
594.471	1	6
595.660	1	8
596.848	1	-4
598.037	1	-3
599.225	1	-10
600.413	1	14
601.602	1	11
602.790	1	0
603.978	1	7
605.166	1	4
606.355	1	-2
607.543	1	-3
608.731	1	-4
609.919	1	8
611.107	1	-7
612.295	1	-8
613.483	1	11
614.671	1	5
615.858	1	-3
617.046	1	1
618.234	1	0
619.422	1	-3
620.609	1	-1
621.797	1	-5
622.985	1	2
624.172	1	-3
625.360	1	0
626.547	1	-1
627.735	1	9
628.922	1	5
630.109	1	-8
631.297	1	-3
632.484	1	-1
633.671	1	-6
634.858	1	-5
636.045	1	5
637.232	1	-7
638.419	1	-6
639.606	1	4
640.793	1	-2
641.980	1	12
643.167	1	-6
644.354	1	-1
645.541	1	-2
646.728	1	6
647.914	1	-4
649.101	1	-1
650.288	1	5
651.474	1	-9
652.661	1	8
653.847	1	6
655.034	1	-3
656.220	1	-7
657.406	1	12
658.593	1	2
659.779	1	4
660.965	1	10
662.152	1	3
663.338	1	9
664.524	1	-8
665.710	1	3
666.896	1	-8
668.082	1	5
669.268	1	11
670.454	1	-4
671.640	1	9
672.826	1	-7
674.011	1	-7
675.197	1	-9
676.383	1	-2
677.569	1	4
678.754	1	-1
679.940	1	-5
681.125	1	1
682.311	1	14
683.496	1	7
684.682	1	-7
685.867	1	1
687.053	1	4
688.238	1	5
688.746	1	0

File: GaN_sample F_spot 12_UVVIS_200 K_200um_800 ms 2x2mm1_379.txt
340.368	1	-8
341.565	1	-13
342.763	1	11
343.960	1	2
345.157	1	0
346.354	1	-4
347.552	1	-1
348.749	1	-1
349.946	1	2
351.143	1	4
352.340	1	12
353.537	1	-5
354.734	1	5
355.931	1	-6
357.127	1	-9
358.324	1	1
359.521	1	-1
360.718	1	-6
361.914	1	-4
363.111	1	3
364.308	1	-4
365.504	1	10
366.701	1	5
367.897	1	7
369.093	1	5
370.290	1	4
371.486	1	19
372.682	1	9
373.879	1	2
375.075	1	3
376.271	1	16
377.467	1	1
378.663	1	-3
379.859	1	3
381.055	1	8
382.251	1	-13
383.447	1	0
384.643	1	12
385.839	1	5
387.035	1	1
388.230	1	15
389.426	1	0
390.622	1	-5
391.817	1	3
393.013	1	-9
394.208	1	4
395.404	1	-5
396.599	1	-6
397.795	1	11
398.990	1	-11
400.186	1	-1
401.381	1	-1
402.576	1	-5
403.771	1	6
404.967	1	5
406.162	1	0
407.357	1	0
408.552	1	-1
409.747	1	-4
410.942	1	0
412.137	1	-2
413.332	1	-2
414.526	1	-3
415.721	1	0
416.916	1	-15
418.111	1	-8
419.305	1	2
420.500	1	-4
421.695	1	-10
422.889	1	-8
424.084	1	2
425.278	1	0
426.472	1	2
427.667	1	13
428.861	1	-5
430.055	1	3
431.250	1	-5
432.444	1	8
433.638	1	-1
434.832	1	-1
436.026	1	8
437.220	1	10
438.414	1	-14
439.608	1	1
440.802	1	-8
441.996	1	0
443.190	1	2
444.384	1	-19
445.578	1	-7
446.771	1	11
447.965	1	-3
449.159	1	-14
450.352	1	-1
451.546	1	6
452.739	1	5
453.933	1	-2
455.126	1	-14
456.320	1	2
457.513	1	4
458.706	1	-4
459.899	1	-1
461.093	1	1
462.286	1	1
463.479	1	-4
464.672	1	-4
465.865	1	2
467.058	1	-7
468.251	1	-3
469.444	1	-5
470.637	1	0
471.830	1	3
473.023	1	3
474.215	1	6
475.408	1	-2
476.601	1	-2
477.793	1	-1
478.986	1	-11
480.179	1	-2
481.371	1	-3
482.564	1	-2
483.756	1	-1
484.948	1	-2
486.141	1	-8
487.333	1	2
488.525	1	2
489.718	1	5
490.910	1	3
492.102	1	-6
493.294	1	11
494.486	1	1
495.678	1	1
496.870	1	0
498.062	1	-1
499.254	1	6
500.446	1	-13
501.638	1	-11
502.829	1	5
504.021	1	-5
505.213	1	6
506.404	1	-5
507.596	1	-2
508.788	1	9
509.979	1	-9
511.171	1	-6
512.362	1	-5
513.553	1	-12
514.745	1	2
515.936	1	-8
517.127	1	-1
518.319	1	-5
519.510	1	6
520.701	1	6
521.892	1	1
523.083	1	1
524.274	1	3
525.465	1	1
526.656	1	5
527.847	1	1
529.038	1	-6
530.229	1	-7
531.419	1	5
532.610	1	-7
533.801	1	11
534.991	1	2
536.182	1	3
537.373	1	5
538.563	1	4
539.754	1	3
540.944	1	-2
542.134	1	3
543.325	1	2
544.515	1	6
545.705	1	-2
546.896	1	1
548.086	1	3
549.276	1	-1
550.466	1	2
551.656	1	-7
552.846	1	-7
554.036	1	0
555.226	1	-12
556.416	1	-5
557.606	1	7
558.796	1	-5
559.986	1	-10
561.175	1	-2
562.365	1	0
563.555	1	3
564.744	1	6
565.934	1	3
567.123	1	-2
568.313	1	-3
569.502	1	-10
570.692	1	2
571.881	1	8
573.070	1	3
574.260	1	11
575.449	1	-4
576.638	1	-12
577.827	1	0
579.016	1	11
580.205	1	-3
581.394	1	5
582.583	1	10
583.772	1	11
584.961	1	12
586.150	1	-6
587.339	1	3
588.528	1	10
589.717	1	4
590.905	1	0
592.094	1	-5
593.283	1	-3
594.471	1	7
595.660	1	2
596.848	1	-5
598.037	1	-6
599.225	1	-8
600.413	1	11
601.602	1	14
602.790	1	-6
603.978	1	-2
605.166	1	7
606.355	1	3
607.543	1	1
608.731	1	2
609.919	1	14
611.107	1	-2
612.295	1	-7
613.483	1	1
614.671	1	6
615.858	1	5
617.046	1	1
618.234	1	-3
619.422	1	-13
620.609	1	2
621.797	1	-3
622.985	1	2
624.172	1	-1
625.360	1	7
626.547	1	-3
627.735	1	6
628.922	1	3
630.109	1	-11
631.297	1	-2
632.484	1	-1
633.671	1	-4
634.858	1	-6
636.045	1	3
637.232	1	-6
638.419	1	-12
639.606	1	7
640.793	1	3
641.980	1	8
643.167	1	-11
644.354	1	0
645.541	1	4
646.728	1	-6
647.914	1	-2
649.101	1	-2
650.288	1	2
651.474	1	-4
652.661	1	-4
653.847	1	1
655.034	1	4
656.220	1	1
657.406	1	5
658.593	1	-1
659.779	1	4
660.965	1	8
662.152	1	7
663.338	1	9
664.524	1	-3
665.710	1	-7
666.896	1	0
668.082	1	9
669.268	1	0
670.454	1	2
671.640	1	6
672.826	1	1
674.011	1	2
675.197	1	-13
676.383	1	3
677.569	1	0
678.754	1	7
679.940	1	-2
681.125	1	-1
682.311	1	11
683.496	1	-3
684.682	1	-10
685.867	1	4
687.053	1	3
688.238	1	2
688.746	1	-1