Folder: cryo-il_analysis/Data/GaN_130K_350ms (part 16)

File: GaN_sample F_spot6_UVVIS_130 K_200um_350 ms 2x2mm1_203.txt
340.368	1	8
341.565	1	5
342.763	1	4
343.960	1	-8
345.157	1	-6
346.354	1	-3
347.552	1	2
348.749	1	7
349.946	1	1
351.143	1	-5
352.340	1	16
353.537	1	-3
354.734	1	5
355.931	1	1
357.127	1	2
358.324	1	11
359.521	1	2
360.718	1	9
361.914	1	6
363.111	1	18
364.308	1	21
365.504	1	23
366.701	1	18
367.897	1	25
369.093	1	12
370.290	1	23
371.486	1	19
372.682	1	8
373.879	1	15
375.075	1	13
376.271	1	15
377.467	1	8
378.663	1	14
379.859	1	6
381.055	1	10
382.251	1	2
383.447	1	8
384.643	1	6
385.839	1	9
387.035	1	15
388.230	1	3
389.426	1	5
390.622	1	-3
391.817	1	11
393.013	1	11
394.208	1	-5
395.404	1	-10
396.599	1	14
397.795	1	-3
398.990	1	7
400.186	1	8
401.381	1	9
402.576	1	4
403.771	1	3
404.967	1	6
406.162	1	1
407.357	1	2
408.552	1	9
409.747	1	8
410.942	1	5
412.137	1	-1
413.332	1	0
414.526	1	2
415.721	1	7
416.916	1	3
418.111	1	10
419.305	1	4
420.500	1	7
421.695	1	9
422.889	1	4
424.084	1	11
425.278	1	1
426.472	1	-4
427.667	1	15
428.861	1	2
430.055	1	5
431.250	1	10
432.444	1	10
433.638	1	13
434.832	1	3
436.026	1	9
437.220	1	-2
438.414	1	-5
439.608	1	7
440.802	1	3
441.996	1	14
443.190	1	4
444.384	1	1
445.578	1	-1
446.771	1	5
447.965	1	4
449.159	1	3
450.352	1	11
451.546	1	16
452.739	1	1
453.933	1	10
455.126	1	-4
456.320	1	0
457.513	1	-1
458.706	1	2
459.899	1	2
461.093	1	4
462.286	1	7
463.479	1	8
464.672	1	13
465.865	1	-4
467.058	1	5
468.251	1	14
469.444	1	0
470.637	1	7
471.830	1	13
473.023	1	9
474.215	1	8
475.408	1	8
476.601	1	-3
477.793	1	-6
478.986	1	2
480.179	1	0
481.371	1	3
482.564	1	0
483.756	1	-1
484.948	1	2
486.141	1	7
487.333	1	-3
488.525	1	14
489.718	1	2
490.910	1	-6
492.102	1	11
493.294	1	6
494.486	1	11
495.678	1	10
496.870	1	-4
498.062	1	3
499.254	1	11
500.446	1	4
501.638	1	4
502.829	1	2
504.021	1	3
505.213	1	5
506.404	1	-2
507.596	1	-5
508.788	1	9
509.979	1	7
511.171	1	11
512.362	1	10
513.553	1	5
514.745	1	11
515.936	1	10
517.127	1	8
518.319	1	-7
519.510	1	1
520.701	1	2
521.892	1	11
523.083	1	-4
524.274	1	0
525.465	1	8
526.656	1	12
527.847	1	6
529.038	1	-6
530.229	1	7
531.419	1	11
532.610	1	8
533.801	1	18
534.991	1	3
536.182	1	10
537.373	1	10
538.563	1	10
539.754	1	-7
540.944	1	11
542.134	1	6
543.325	1	5
544.515	1	17
545.705	1	9
546.896	1	10
548.086	1	-7
549.276	1	2
550.466	1	13
551.656	1	7
552.846	1	5
554.036	1	2
555.226	1	15
556.416	1	11
557.606	1	-1
558.796	1	9
559.986	1	11
561.175	1	2
562.365	1	0
563.555	1	9
564.744	1	2
565.934	1	9
567.123	1	9
568.313	1	-9
569.502	1	9
570.692	1	8
571.881	1	3
573.070	1	-2
574.260	1	-1
575.449	1	3
576.638	1	-2
577.827	1	-6
579.016	1	2
580.205	1	9
581.394	1	-3
582.583	1	13
583.772	1	5
584.961	1	-2
586.150	1	16
587.339	1	4
588.528	1	9
589.717	1	5
590.905	1	7
592.094	1	3
593.283	1	-2
594.471	1	-4
595.660	1	3
596.848	1	5
598.037	1	6
599.225	1	5
600.413	1	3
601.602	1	4
602.790	1	8
603.978	1	10
605.166	1	4
606.355	1	4
607.543	1	5
608.731	1	13
609.919	1	14
611.107	1	9
612.295	1	13
613.483	1	1
614.671	1	7
615.858	1	4
617.046	1	5
618.234	1	5
619.422	1	8
620.609	1	-3
621.797	1	3
622.985	1	2
624.172	1	-6
625.360	1	-5
626.547	1	1
627.735	1	5
628.922	1	-1
630.109	1	5
631.297	1	2
632.484	1	-1
633.671	1	-7
634.858	1	3
636.045	1	18
637.232	1	-6
638.419	1	8
639.606	1	16
640.793	1	-7
641.980	1	8
643.167	1	4
644.354	1	-7
645.541	1	7
646.728	1	8
647.914	1	-10
649.101	1	-6
650.288	1	14
651.474	1	-3
652.661	1	2
653.847	1	0
655.034	1	2
656.220	1	-2
657.406	1	9
658.593	1	9
659.779	1	0
660.965	1	-3
662.152	1	6
663.338	1	3
664.524	1	2
665.710	1	7
666.896	1	7
668.082	1	4
669.268	1	-3
670.454	1	12
671.640	1	-7
672.826	1	-1
674.011	1	3
675.197	1	3
676.383	1	5
677.569	1	0
678.754	1	0
679.940	1	3
681.125	1	12
682.311	1	-4
683.496	1	-5
684.682	1	-4
685.867	1	6
687.053	1	5
688.238	1	7
688.746	1	8

File: GaN_sample F_spot6_UVVIS_130 K_200um_350 ms 2x2mm1_204.txt
340.368	1	4
341.565	1	-5
342.763	1	7
343.960	1	-6
345.157	1	-10
346.354	1	0
347.552	1	0
348.749	1	11
349.946	1	8
351.143	1	10
352.340	1	10
353.537	1	0
354.734	1	1
355.931	1	9
357.127	1	8
358.324	1	7
359.521	1	3
360.718	1	3
361.914	1	14
363.111	1	20
364.308	1	16
365.504	1	15
366.701	1	15
367.897	1	5
369.093	1	19
370.290	1	21
371.486	1	15
372.682	1	17
373.879	1	17
375.075	1	16
376.271	1	8
377.467	1	11
378.663	1	13
379.859	1	4
381.055	1	17
382.251	1	4
383.447	1	1
384.643	1	7
385.839	1	3
387.035	1	8
388.230	1	0
389.426	1	5
390.622	1	11
391.817	1	5
393.013	1	5
394.208	1	-6
395.404	1	-7
396.599	1	8
397.795	1	3
398.990	1	-1
400.186	1	1
401.381	1	9
402.576	1	2
403.771	1	15
404.967	1	5
406.162	1	8
407.357	1	1
408.552	1	4
409.747	1	5
410.942	1	3
412.137	1	-7
413.332	1	-2
414.526	1	7
415.721	1	8
416.916	1	8
418.111	1	5
419.305	1	10
420.500	1	6
421.695	1	1
422.889	1	2
424.084	1	8
425.278	1	0
426.472	1	1
427.667	1	14
428.861	1	4
430.055	1	3
431.250	1	6
432.444	1	0
433.638	1	2
434.832	1	0
436.026	1	0
437.220	1	4
438.414	1	-4
439.608	1	14
440.802	1	0
441.996	1	12
443.190	1	-1
444.384	1	-1
445.578	1	3
446.771	1	5
447.965	1	8
449.159	1	14
450.352	1	8
451.546	1	12
452.739	1	2
453.933	1	6
455.126	1	-5
456.320	1	-3
457.513	1	0
458.706	1	7
459.899	1	-7
461.093	1	13
462.286	1	10
463.479	1	3
464.672	1	6
465.865	1	-7
467.058	1	10
468.251	1	6
469.444	1	-2
470.637	1	14
471.830	1	14
473.023	1	6
474.215	1	4
475.408	1	6
476.601	1	9
477.793	1	-3
478.986	1	0
480.179	1	4
481.371	1	-2
482.564	1	-3
483.756	1	5
484.948	1	0
486.141	1	1
487.333	1	-6
488.525	1	12
489.718	1	9
490.910	1	-8
492.102	1	11
493.294	1	5
494.486	1	10
495.678	1	-5
496.870	1	3
498.062	1	1
499.254	1	9
500.446	1	2
501.638	1	-2
502.829	1	11
504.021	1	4
505.213	1	6
506.404	1	8
507.596	1	1
508.788	1	-2
509.979	1	-2
511.171	1	13
512.362	1	-4
513.553	1	5
514.745	1	3
515.936	1	10
517.127	1	3
518.319	1	-2
519.510	1	-1
520.701	1	2
521.892	1	7
523.083	1	8
524.274	1	-2
525.465	1	9
526.656	1	8
527.847	1	4
529.038	1	8
530.229	1	9
531.419	1	10
532.610	1	11
533.801	1	21
534.991	1	-3
536.182	1	8
537.373	1	11
538.563	1	7
539.754	1	4
540.944	1	11
542.134	1	5
543.325	1	2
544.515	1	10
545.705	1	1
546.896	1	3
548.086	1	-1
549.276	1	4
550.466	1	9
551.656	1	10
552.846	1	-1
554.036	1	9
555.226	1	7
556.416	1	10
557.606	1	-1
558.796	1	19
559.986	1	2
561.175	1	12
562.365	1	5
563.555	1	6
564.744	1	1
565.934	1	0
567.123	1	-3
568.313	1	-3
569.502	1	7
570.692	1	4
571.881	1	4
573.070	1	4
574.260	1	7
575.449	1	5
576.638	1	0
577.827	1	1
579.016	1	-4
580.205	1	1
581.394	1	4
582.583	1	18
583.772	1	7
584.961	1	0
586.150	1	13
587.339	1	1
588.528	1	12
589.717	1	-10
590.905	1	2
592.094	1	-4
593.283	1	-5
594.471	1	7
595.660	1	9
596.848	1	6
598.037	1	1
599.225	1	3
600.413	1	2
601.602	1	-7
602.790	1	-4
603.978	1	-2
605.166	1	12
606.355	1	5
607.543	1	5
608.731	1	1
609.919	1	18
611.107	1	10
612.295	1	5
613.483	1	2
614.671	1	-7
615.858	1	-7
617.046	1	2
618.234	1	2
619.422	1	2
620.609	1	1
621.797	1	5
622.985	1	14
624.172	1	-3
625.360	1	2
626.547	1	3
627.735	1	6
628.922	1	-2
630.109	1	9
631.297	1	1
632.484	1	-6
633.671	1	-1
634.858	1	4
636.045	1	18
637.232	1	-14
638.419	1	5
639.606	1	7
640.793	1	-4
641.980	1	2
643.167	1	1
644.354	1	-2
645.541	1	3
646.728	1	6
647.914	1	-7
649.101	1	3
650.288	1	6
651.474	1	0
652.661	1	-1
653.847	1	3
655.034	1	4
656.220	1	-4
657.406	1	4
658.593	1	-4
659.779	1	1
660.965	1	0
662.152	1	7
663.338	1	-1
664.524	1	-6
665.710	1	10
666.896	1	5
668.082	1	4
669.268	1	1
670.454	1	0
671.640	1	-6
672.826	1	8
674.011	1	-2
675.197	1	-4
676.383	1	-3
677.569	1	4
678.754	1	3
679.940	1	-4
681.125	1	5
682.311	1	-4
683.496	1	-2
684.682	1	0
685.867	1	1
687.053	1	-1
688.238	1	1
688.746	1	0

File: GaN_sample F_spot6_UVVIS_130 K_200um_350 ms 2x2mm1_205.txt
340.368	1	7
341.565	1	2
342.763	1	2
343.960	1	-11
345.157	1	-7
346.354	1	7
347.552	1	0
348.749	1	9
349.946	1	7
351.143	1	2
352.340	1	12
353.537	1	0
354.734	1	3
355.931	1	5
357.127	1	3
358.324	1	-3
359.521	1	-2
360.718	1	15
361.914	1	12
363.111	1	20
364.308	1	19
365.504	1	17
366.701	1	14
367.897	1	15
369.093	1	11
370.290	1	18
371.486	1	11
372.682	1	7
373.879	1	22
375.075	1	26
376.271	1	13
377.467	1	16
378.663	1	9
379.859	1	2
381.055	1	10
382.251	1	13
383.447	1	3
384.643	1	19
385.839	1	6
387.035	1	18
388.230	1	2
389.426	1	6
390.622	1	4
391.817	1	20
393.013	1	8
394.208	1	-2
395.404	1	1
396.599	1	11
397.795	1	-8
398.990	1	7
400.186	1	-1
401.381	1	11
402.576	1	3
403.771	1	9
404.967	1	2
406.162	1	3
407.357	1	3
408.552	1	1
409.747	1	-1
410.942	1	5
412.137	1	4
413.332	1	-2
414.526	1	11
415.721	1	5
416.916	1	4
418.111	1	11
419.305	1	1
420.500	1	10
421.695	1	7
422.889	1	6
424.084	1	0
425.278	1	3
426.472	1	2
427.667	1	11
428.861	1	6
430.055	1	3
431.250	1	10
432.444	1	6
433.638	1	9
434.832	1	7
436.026	1	12
437.220	1	6
438.414	1	7
439.608	1	13
440.802	1	-7
441.996	1	15
443.190	1	4
444.384	1	-5
445.578	1	-5
446.771	1	0
447.965	1	0
449.159	1	2
450.352	1	2
451.546	1	6
452.739	1	3
453.933	1	7
455.126	1	0
456.320	1	2
457.513	1	-4
458.706	1	-3
459.899	1	2
461.093	1	14
462.286	1	10
463.479	1	10
464.672	1	7
465.865	1	-13
467.058	1	10
468.251	1	8
469.444	1	-7
470.637	1	3
471.830	1	-3
473.023	1	9
474.215	1	1
475.408	1	2
476.601	1	6
477.793	1	-1
478.986	1	-1
480.179	1	3
481.371	1	13
482.564	1	-1
483.756	1	4
484.948	1	3
486.141	1	-4
487.333	1	0
488.525	1	7
489.718	1	4
490.910	1	-9
492.102	1	4
493.294	1	9
494.486	1	10
495.678	1	6
496.870	1	5
498.062	1	3
499.254	1	10
500.446	1	7
501.638	1	2
502.829	1	6
504.021	1	4
505.213	1	9
506.404	1	-2
507.596	1	5
508.788	1	4
509.979	1	-3
511.171	1	14
512.362	1	3
513.553	1	8
514.745	1	2
515.936	1	10
517.127	1	6
518.319	1	-10
519.510	1	5
520.701	1	-1
521.892	1	15
523.083	1	4
524.274	1	2
525.465	1	10
526.656	1	6
527.847	1	7
529.038	1	4
530.229	1	4
531.419	1	4
532.610	1	6
533.801	1	7
534.991	1	2
536.182	1	3
537.373	1	2
538.563	1	13
539.754	1	11
540.944	1	16
542.134	1	3
543.325	1	4
544.515	1	7
545.705	1	0
546.896	1	5
548.086	1	2
549.276	1	-4
550.466	1	16
551.656	1	0
552.846	1	10
554.036	1	3
555.226	1	0
556.416	1	13
557.606	1	8
558.796	1	9
559.986	1	1
561.175	1	2
562.365	1	5
563.555	1	2
564.744	1	6
565.934	1	-2
567.123	1	9
568.313	1	2
569.502	1	3
570.692	1	12
571.881	1	-3
573.070	1	0
574.260	1	1
575.449	1	6
576.638	1	0
577.827	1	-1
579.016	1	-1
580.205	1	-3
581.394	1	5
582.583	1	16
583.772	1	6
584.961	1	4
586.150	1	12
587.339	1	2
588.528	1	10
589.717	1	-5
590.905	1	10
592.094	1	-6
593.283	1	-7
594.471	1	2
595.660	1	4
596.848	1	13
598.037	1	6
599.225	1	8
600.413	1	13
601.602	1	2
602.790	1	5
603.978	1	9
605.166	1	8
606.355	1	5
607.543	1	14
608.731	1	2
609.919	1	8
611.107	1	16
612.295	1	16
613.483	1	2
614.671	1	5
615.858	1	-4
617.046	1	4
618.234	1	10
619.422	1	5
620.609	1	-6
621.797	1	-8
622.985	1	-1
624.172	1	-1
625.360	1	4
626.547	1	6
627.735	1	10
628.922	1	2
630.109	1	9
631.297	1	0
632.484	1	-7
633.671	1	-7
634.858	1	7
636.045	1	10
637.232	1	0
638.419	1	4
639.606	1	5
640.793	1	-9
641.980	1	-12
643.167	1	12
644.354	1	-1
645.541	1	3
646.728	1	11
647.914	1	-6
649.101	1	-12
650.288	1	3
651.474	1	-10
652.661	1	-1
653.847	1	7
655.034	1	4
656.220	1	5
657.406	1	5
658.593	1	-1
659.779	1	-4
660.965	1	-7
662.152	1	-6
663.338	1	0
664.524	1	-9
665.710	1	1
666.896	1	2
668.082	1	1
669.268	1	5
670.454	1	7
671.640	1	-7
672.826	1	3
674.011	1	-2
675.197	1	4
676.383	1	12
677.569	1	10
678.754	1	7
679.940	1	-3
681.125	1	7
682.311	1	-10
683.496	1	6
684.682	1	0
685.867	1	5
687.053	1	-5
688.238	1	8
688.746	1	2

File: GaN_sample F_spot6_UVVIS_130 K_200um_350 ms 2x2mm1_209.txt
340.368	1	9
341.565	1	9
342.763	1	1
343.960	1	-6
345.157	1	-8
346.354	1	-1
347.552	1	6
348.749	1	5
349.946	1	1
351.143	1	4
352.340	1	13
353.537	1	1
354.734	1	-12
355.931	1	6
357.127	1	16
358.324	1	3
359.521	1	-7
360.718	1	9
361.914	1	-1
363.111	1	23
364.308	1	19
365.504	1	10
366.701	1	11
367.897	1	13
369.093	1	17
370.290	1	22
371.486	1	16
372.682	1	14
373.879	1	12
375.075	1	19
376.271	1	5
377.467	1	19
378.663	1	15
379.859	1	9
381.055	1	6
382.251	1	6
383.447	1	1
384.643	1	9
385.839	1	12
387.035	1	19
388.230	1	2
389.426	1	2
390.622	1	6
391.817	1	12
393.013	1	4
394.208	1	2
395.404	1	-5
396.599	1	10
397.795	1	6
398.990	1	8
400.186	1	-8
401.381	1	11
402.576	1	9
403.771	1	7
404.967	1	2
406.162	1	1
407.357	1	-1
408.552	1	4
409.747	1	4
410.942	1	-2
412.137	1	-2
413.332	1	-7
414.526	1	6
415.721	1	4
416.916	1	-9
418.111	1	10
419.305	1	-1
420.500	1	-3
421.695	1	1
422.889	1	11
424.084	1	9
425.278	1	-3
426.472	1	10
427.667	1	3
428.861	1	-2
430.055	1	7
431.250	1	12
432.444	1	3
433.638	1	3
434.832	1	8
436.026	1	6
437.220	1	1
438.414	1	-1
439.608	1	13
440.802	1	-1
441.996	1	15
443.190	1	9
444.384	1	-7
445.578	1	3
446.771	1	5
447.965	1	7
449.159	1	-1
450.352	1	10
451.546	1	14
452.739	1	7
453.933	1	7
455.126	1	-13
456.320	1	6
457.513	1	7
458.706	1	7
459.899	1	-2
461.093	1	14
462.286	1	-1
463.479	1	6
464.672	1	3
465.865	1	-2
467.058	1	9
468.251	1	6
469.444	1	4
470.637	1	4
471.830	1	6
473.023	1	4
474.215	1	-3
475.408	1	9
476.601	1	-7
477.793	1	-6
478.986	1	-2
480.179	1	-6
481.371	1	11
482.564	1	-6
483.756	1	1
484.948	1	14
486.141	1	1
487.333	1	0
488.525	1	5
489.718	1	7
490.910	1	-6
492.102	1	4
493.294	1	15
494.486	1	20
495.678	1	-6
496.870	1	8
498.062	1	-4
499.254	1	5
500.446	1	7
501.638	1	5
502.829	1	-1
504.021	1	-4
505.213	1	4
506.404	1	6
507.596	1	-2
508.788	1	-2
509.979	1	-3
511.171	1	7
512.362	1	1
513.553	1	5
514.745	1	10
515.936	1	22
517.127	1	12
518.319	1	2
519.510	1	1
520.701	1	6
521.892	1	6
523.083	1	9
524.274	1	-1
525.465	1	12
526.656	1	3
527.847	1	4
529.038	1	5
530.229	1	11
531.419	1	11
532.610	1	-4
533.801	1	21
534.991	1	16
536.182	1	7
537.373	1	2
538.563	1	13
539.754	1	9
540.944	1	13
542.134	1	10
543.325	1	-3
544.515	1	13
545.705	1	9
546.896	1	10
548.086	1	-1
549.276	1	-1
550.466	1	7
551.656	1	8
552.846	1	-3
554.036	1	-5
555.226	1	6
556.416	1	10
557.606	1	-2
558.796	1	12
559.986	1	6
561.175	1	6
562.365	1	10
563.555	1	6
564.744	1	10
565.934	1	0
567.123	1	11
568.313	1	-11
569.502	1	5
570.692	1	11
571.881	1	6
573.070	1	7
574.260	1	11
575.449	1	4
576.638	1	-7
577.827	1	1
579.016	1	-2
580.205	1	-7
581.394	1	-2
582.583	1	11
583.772	1	3
584.961	1	2
586.150	1	15
587.339	1	2
588.528	1	12
589.717	1	0
590.905	1	7
592.094	1	-2
593.283	1	-2
594.471	1	-5
595.660	1	8
596.848	1	6
598.037	1	1
599.225	1	4
600.413	1	11
601.602	1	0
602.790	1	6
603.978	1	2
605.166	1	14
606.355	1	6
607.543	1	7
608.731	1	1
609.919	1	15
611.107	1	10
612.295	1	12
613.483	1	4
614.671	1	5
615.858	1	-2
617.046	1	8
618.234	1	-1
619.422	1	6
620.609	1	-8
621.797	1	-1
622.985	1	9
624.172	1	3
625.360	1	0
626.547	1	4
627.735	1	3
628.922	1	-4
630.109	1	0
631.297	1	-1
632.484	1	2
633.671	1	-10
634.858	1	9
636.045	1	20
637.232	1	-1
638.419	1	2
639.606	1	5
640.793	1	-7
641.980	1	4
643.167	1	7
644.354	1	-9
645.541	1	7
646.728	1	5
647.914	1	-1
649.101	1	3
650.288	1	7
651.474	1	-4
652.661	1	0
653.847	1	-2
655.034	1	0
656.220	1	6
657.406	1	-3
658.593	1	1
659.779	1	0
660.965	1	-6
662.152	1	3
663.338	1	-1
664.524	1	-5
665.710	1	3
666.896	1	0
668.082	1	4
669.268	1	4
670.454	1	4
671.640	1	-1
672.826	1	-2
674.011	1	0
675.197	1	-5
676.383	1	1
677.569	1	-8
678.754	1	2
679.940	1	-2
681.125	1	8
682.311	1	-9
683.496	1	1
684.682	1	3
685.867	1	3
687.053	1	9
688.238	1	7
688.746	1	1

File: GaN_sample F_spot6_UVVIS_130 K_200um_350 ms 2x2mm1_210.txt
340.368	1	8
341.565	1	5
342.763	1	-6
343.960	1	-7
345.157	1	-5
346.354	1	-6
347.552	1	-11
348.749	1	-3
349.946	1	5
351.143	1	-5
352.340	1	14
353.537	1	4
354.734	1	-4
355.931	1	7
357.127	1	11
358.324	1	5
359.521	1	1
360.718	1	3
361.914	1	8
363.111	1	12
364.308	1	14
365.504	1	24
366.701	1	20
367.897	1	10
369.093	1	9
370.290	1	21
371.486	1	19
372.682	1	10
373.879	1	14
375.075	1	13
376.271	1	17
377.467	1	18
378.663	1	12
379.859	1	3
381.055	1	3
382.251	1	10
383.447	1	7
384.643	1	10
385.839	1	19
387.035	1	19
388.230	1	-6
389.426	1	4
390.622	1	10
391.817	1	11
393.013	1	12
394.208	1	-2
395.404	1	-7
396.599	1	5
397.795	1	-7
398.990	1	7
400.186	1	0
401.381	1	4
402.576	1	3
403.771	1	12
404.967	1	3
406.162	1	-4
407.357	1	1
408.552	1	-1
409.747	1	4
410.942	1	6
412.137	1	-2
413.332	1	-4
414.526	1	9
415.721	1	-5
416.916	1	4
418.111	1	3
419.305	1	-3
420.500	1	11
421.695	1	3
422.889	1	12
424.084	1	13
425.278	1	3
426.472	1	2
427.667	1	14
428.861	1	-2
430.055	1	2
431.250	1	5
432.444	1	4
433.638	1	8
434.832	1	0
436.026	1	7
437.220	1	-1
438.414	1	-7
439.608	1	10
440.802	1	-1
441.996	1	12
443.190	1	7
444.384	1	0
445.578	1	1
446.771	1	15
447.965	1	3
449.159	1	7
450.352	1	9
451.546	1	12
452.739	1	-4
453.933	1	0
455.126	1	-10
456.320	1	8
457.513	1	6
458.706	1	9
459.899	1	1
461.093	1	5
462.286	1	5
463.479	1	3
464.672	1	7
465.865	1	-2
467.058	1	9
468.251	1	4
469.444	1	0
470.637	1	13
471.830	1	6
473.023	1	9
474.215	1	4
475.408	1	9
476.601	1	1
477.793	1	1
478.986	1	1
480.179	1	0
481.371	1	8
482.564	1	6
483.756	1	0
484.948	1	1
486.141	1	-4
487.333	1	-2
488.525	1	10
489.718	1	11
490.910	1	-7
492.102	1	9
493.294	1	5
494.486	1	11
495.678	1	1
496.870	1	6
498.062	1	2
499.254	1	8
500.446	1	9
501.638	1	-4
502.829	1	7
504.021	1	-4
505.213	1	16
506.404	1	1
507.596	1	2
508.788	1	2
509.979	1	4
511.171	1	5
512.362	1	1
513.553	1	5
514.745	1	7
515.936	1	11
517.127	1	8
518.319	1	6
519.510	1	0
520.701	1	2
521.892	1	6
523.083	1	12
524.274	1	-3
525.465	1	6
526.656	1	10
527.847	1	5
529.038	1	-14
530.229	1	4
531.419	1	14
532.610	1	4
533.801	1	16
534.991	1	6
536.182	1	8
537.373	1	12
538.563	1	17
539.754	1	0
540.944	1	3
542.134	1	5
543.325	1	12
544.515	1	2
545.705	1	8
546.896	1	15
548.086	1	-6
549.276	1	1
550.466	1	1
551.656	1	10
552.846	1	0
554.036	1	7
555.226	1	7
556.416	1	13
557.606	1	-3
558.796	1	12
559.986	1	5
561.175	1	11
562.365	1	-5
563.555	1	5
564.744	1	6
565.934	1	9
567.123	1	5
568.313	1	-3
569.502	1	-6
570.692	1	11
571.881	1	1
573.070	1	2
574.260	1	4
575.449	1	0
576.638	1	1
577.827	1	6
579.016	1	3
580.205	1	3
581.394	1	0
582.583	1	13
583.772	1	10
584.961	1	2
586.150	1	7
587.339	1	4
588.528	1	6
589.717	1	-1
590.905	1	5
592.094	1	5
593.283	1	-9
594.471	1	-1
595.660	1	3
596.848	1	12
598.037	1	4
599.225	1	7
600.413	1	12
601.602	1	-5
602.790	1	1
603.978	1	3
605.166	1	5
606.355	1	8
607.543	1	3
608.731	1	2
609.919	1	16
611.107	1	14
612.295	1	10
613.483	1	-4
614.671	1	9
615.858	1	-4
617.046	1	3
618.234	1	1
619.422	1	-1
620.609	1	-11
621.797	1	-1
622.985	1	4
624.172	1	-1
625.360	1	-2
626.547	1	5
627.735	1	10
628.922	1	-3
630.109	1	10
631.297	1	1
632.484	1	-10
633.671	1	0
634.858	1	8
636.045	1	13
637.232	1	-5
638.419	1	5
639.606	1	3
640.793	1	-7
641.980	1	-6
643.167	1	2
644.354	1	-2
645.541	1	5
646.728	1	8
647.914	1	-8
649.101	1	-3
650.288	1	8
651.474	1	-1
652.661	1	0
653.847	1	7
655.034	1	0
656.220	1	2
657.406	1	-1
658.593	1	-3
659.779	1	10
660.965	1	4
662.152	1	8
663.338	1	-5
664.524	1	-5
665.710	1	2
666.896	1	13
668.082	1	7
669.268	1	3
670.454	1	1
671.640	1	-1
672.826	1	-7
674.011	1	2
675.197	1	4
676.383	1	11
677.569	1	0
678.754	1	9
679.940	1	-1
681.125	1	7
682.311	1	-5
683.496	1	-6
684.682	1	-2
685.867	1	-3
687.053	1	0
688.238	1	7
688.746	1	0

File: GaN_sample F_spot6_UVVIS_130 K_200um_350 ms 2x2mm1_211.txt
340.368	1	10
341.565	1	-1
342.763	1	1
343.960	1	-15
345.157	1	-6
346.354	1	-2
347.552	1	0
348.749	1	7
349.946	1	8
351.143	1	2
352.340	1	8
353.537	1	-1
354.734	1	2
355.931	1	-1
357.127	1	3
358.324	1	-1
359.521	1	1
360.718	1	1
361.914	1	15
363.111	1	15
364.308	1	18
365.504	1	8
366.701	1	18
367.897	1	18
369.093	1	22
370.290	1	13
371.486	1	9
372.682	1	10
373.879	1	7
375.075	1	12
376.271	1	7
377.467	1	21
378.663	1	9
379.859	1	7
381.055	1	-2
382.251	1	1
383.447	1	6
384.643	1	4
385.839	1	4
387.035	1	8
388.230	1	5
389.426	1	5
390.622	1	6
391.817	1	9
393.013	1	16
394.208	1	2
395.404	1	-13
396.599	1	6
397.795	1	-2
398.990	1	3
400.186	1	10
401.381	1	5
402.576	1	5
403.771	1	16
404.967	1	9
406.162	1	3
407.357	1	8
408.552	1	-1
409.747	1	-2
410.942	1	4
412.137	1	3
413.332	1	5
414.526	1	3
415.721	1	4
416.916	1	3
418.111	1	2
419.305	1	3
420.500	1	9
421.695	1	2
422.889	1	7
424.084	1	10
425.278	1	-2
426.472	1	4
427.667	1	2
428.861	1	2
430.055	1	6
431.250	1	14
432.444	1	8
433.638	1	14
434.832	1	7
436.026	1	3
437.220	1	1
438.414	1	-13
439.608	1	21
440.802	1	-3
441.996	1	9
443.190	1	4
444.384	1	-9
445.578	1	4
446.771	1	2
447.965	1	3
449.159	1	8
450.352	1	5
451.546	1	15
452.739	1	12
453.933	1	4
455.126	1	-13
456.320	1	2
457.513	1	-1
458.706	1	9
459.899	1	5
461.093	1	9
462.286	1	4
463.479	1	14
464.672	1	9
465.865	1	0
467.058	1	1
468.251	1	8
469.444	1	4
470.637	1	9
471.830	1	3
473.023	1	3
474.215	1	2
475.408	1	5
476.601	1	3
477.793	1	-1
478.986	1	-1
480.179	1	-1
481.371	1	7
482.564	1	2
483.756	1	1
484.948	1	4
486.141	1	1
487.333	1	1
488.525	1	6
489.718	1	9
490.910	1	-10
492.102	1	7
493.294	1	0
494.486	1	11
495.678	1	5
496.870	1	1
498.062	1	-4
499.254	1	3
500.446	1	12
501.638	1	8
502.829	1	0
504.021	1	5
505.213	1	2
506.404	1	0
507.596	1	5
508.788	1	5
509.979	1	5
511.171	1	17
512.362	1	-1
513.553	1	5
514.745	1	0
515.936	1	17
517.127	1	4
518.319	1	1
519.510	1	13
520.701	1	0
521.892	1	6
523.083	1	6
524.274	1	-3
525.465	1	11
526.656	1	13
527.847	1	-5
529.038	1	-2
530.229	1	4
531.419	1	10
532.610	1	8
533.801	1	16
534.991	1	-1
536.182	1	9
537.373	1	14
538.563	1	12
539.754	1	5
540.944	1	6
542.134	1	4
543.325	1	5
544.515	1	8
545.705	1	6
546.896	1	8
548.086	1	-2
549.276	1	-1
550.466	1	10
551.656	1	-3
552.846	1	-3
554.036	1	-7
555.226	1	3
556.416	1	15
557.606	1	10
558.796	1	12
559.986	1	6
561.175	1	8
562.365	1	8
563.555	1	6
564.744	1	12
565.934	1	0
567.123	1	2
568.313	1	4
569.502	1	2
570.692	1	11
571.881	1	1
573.070	1	-2
574.260	1	8
575.449	1	11
576.638	1	4
577.827	1	-1
579.016	1	-3
580.205	1	8
581.394	1	1
582.583	1	13
583.772	1	12
584.961	1	-5
586.150	1	7
587.339	1	-3
588.528	1	5
589.717	1	8
590.905	1	14
592.094	1	6
593.283	1	-8
594.471	1	6
595.660	1	2
596.848	1	6
598.037	1	12
599.225	1	4
600.413	1	7
601.602	1	2
602.790	1	-3
603.978	1	5
605.166	1	7
606.355	1	9
607.543	1	2
608.731	1	3
609.919	1	12
611.107	1	10
612.295	1	8
613.483	1	1
614.671	1	10
615.858	1	-3
617.046	1	4
618.234	1	-3
619.422	1	7
620.609	1	-8
621.797	1	-3
622.985	1	13
624.172	1	5
625.360	1	2
626.547	1	17
627.735	1	-1
628.922	1	2
630.109	1	10
631.297	1	-3
632.484	1	-4
633.671	1	-3
634.858	1	9
636.045	1	12
637.232	1	0
638.419	1	6
639.606	1	4
640.793	1	-3
641.980	1	-2
643.167	1	2
644.354	1	-8
645.541	1	6
646.728	1	1
647.914	1	-5
649.101	1	-1
650.288	1	19
651.474	1	-2
652.661	1	0
653.847	1	-1
655.034	1	4
656.220	1	4
657.406	1	9
658.593	1	1
659.779	1	-5
660.965	1	2
662.152	1	-3
663.338	1	2
664.524	1	-8
665.710	1	2
666.896	1	-2
668.082	1	8
669.268	1	-5
670.454	1	2
671.640	1	-5
672.826	1	3
674.011	1	2
675.197	1	4
676.383	1	5
677.569	1	-3
678.754	1	1
679.940	1	-12
681.125	1	3
682.311	1	-10
683.496	1	-1
684.682	1	0
685.867	1	3
687.053	1	5
688.238	1	3
688.746	1	0