Folder: cryo-il_analysis/Data/GaN_200K_800ms (part 31)

File: GaN_sample F_spot 12_UVVIS_200 K_200um_800 ms 2x2mm1_302.txt
340.368	1	-2
341.565	1	-9
342.763	1	3
343.960	1	-8
345.157	1	-5
346.354	1	6
347.552	1	-7
348.749	1	-5
349.946	1	-6
351.143	1	-1
352.340	1	6
353.537	1	2
354.734	1	7
355.931	1	1
357.127	1	6
358.324	1	2
359.521	1	3
360.718	1	3
361.914	1	7
363.111	1	3
364.308	1	7
365.504	1	19
366.701	1	8
367.897	1	19
369.093	1	7
370.290	1	2
371.486	1	18
372.682	1	26
373.879	1	15
375.075	1	13
376.271	1	15
377.467	1	0
378.663	1	10
379.859	1	6
381.055	1	11
382.251	1	5
383.447	1	1
384.643	1	3
385.839	1	10
387.035	1	2
388.230	1	11
389.426	1	0
390.622	1	-1
391.817	1	-3
393.013	1	-1
394.208	1	-3
395.404	1	-7
396.599	1	-8
397.795	1	0
398.990	1	-4
400.186	1	4
401.381	1	-1
402.576	1	4
403.771	1	6
404.967	1	3
406.162	1	-3
407.357	1	0
408.552	1	1
409.747	1	-2
410.942	1	2
412.137	1	4
413.332	1	8
414.526	1	-4
415.721	1	4
416.916	1	-1
418.111	1	-1
419.305	1	-1
420.500	1	4
421.695	1	-1
422.889	1	-9
424.084	1	-4
425.278	1	4
426.472	1	-8
427.667	1	3
428.861	1	5
430.055	1	-3
431.250	1	-5
432.444	1	-1
433.638	1	-2
434.832	1	5
436.026	1	-1
437.220	1	2
438.414	1	-5
439.608	1	-8
440.802	1	3
441.996	1	-2
443.190	1	0
444.384	1	2
445.578	1	1
446.771	1	11
447.965	1	-5
449.159	1	-5
450.352	1	-4
451.546	1	7
452.739	1	2
453.933	1	-12
455.126	1	-5
456.320	1	-6
457.513	1	5
458.706	1	2
459.899	1	-3
461.093	1	-4
462.286	1	-5
463.479	1	0
464.672	1	0
465.865	1	4
467.058	1	-1
468.251	1	1
469.444	1	-9
470.637	1	1
471.830	1	6
473.023	1	2
474.215	1	6
475.408	1	-5
476.601	1	-2
477.793	1	4
478.986	1	-4
480.179	1	-3
481.371	1	2
482.564	1	1
483.756	1	-5
484.948	1	-11
486.141	1	-3
487.333	1	-3
488.525	1	-5
489.718	1	-2
490.910	1	1
492.102	1	9
493.294	1	-7
494.486	1	5
495.678	1	-4
496.870	1	9
498.062	1	-2
499.254	1	8
500.446	1	-11
501.638	1	-5
502.829	1	4
504.021	1	3
505.213	1	1
506.404	1	6
507.596	1	6
508.788	1	15
509.979	1	0
511.171	1	-12
512.362	1	2
513.553	1	-11
514.745	1	-1
515.936	1	6
517.127	1	-2
518.319	1	3
519.510	1	2
520.701	1	4
521.892	1	4
523.083	1	-1
524.274	1	-3
525.465	1	7
526.656	1	1
527.847	1	0
529.038	1	-6
530.229	1	-8
531.419	1	6
532.610	1	-5
533.801	1	18
534.991	1	-8
536.182	1	-3
537.373	1	2
538.563	1	6
539.754	1	8
540.944	1	-3
542.134	1	7
543.325	1	-6
544.515	1	4
545.705	1	2
546.896	1	-2
548.086	1	10
549.276	1	-3
550.466	1	4
551.656	1	1
552.846	1	4
554.036	1	4
555.226	1	-4
556.416	1	-1
557.606	1	2
558.796	1	0
559.986	1	3
561.175	1	5
562.365	1	3
563.555	1	-4
564.744	1	0
565.934	1	2
567.123	1	0
568.313	1	-4
569.502	1	1
570.692	1	3
571.881	1	7
573.070	1	3
574.260	1	6
575.449	1	-5
576.638	1	1
577.827	1	5
579.016	1	3
580.205	1	3
581.394	1	1
582.583	1	6
583.772	1	2
584.961	1	5
586.150	1	-7
587.339	1	8
588.528	1	9
589.717	1	2
590.905	1	3
592.094	1	-8
593.283	1	-4
594.471	1	11
595.660	1	-2
596.848	1	1
598.037	1	-1
599.225	1	-6
600.413	1	17
601.602	1	14
602.790	1	0
603.978	1	8
605.166	1	2
606.355	1	2
607.543	1	0
608.731	1	1
609.919	1	10
611.107	1	4
612.295	1	-4
613.483	1	-2
614.671	1	1
615.858	1	-4
617.046	1	3
618.234	1	5
619.422	1	-14
620.609	1	8
621.797	1	-4
622.985	1	3
624.172	1	6
625.360	1	1
626.547	1	5
627.735	1	1
628.922	1	1
630.109	1	-6
631.297	1	-2
632.484	1	-3
633.671	1	-7
634.858	1	-6
636.045	1	6
637.232	1	-5
638.419	1	1
639.606	1	7
640.793	1	8
641.980	1	8
643.167	1	-11
644.354	1	-1
645.541	1	-7
646.728	1	5
647.914	1	-4
649.101	1	-3
650.288	1	-2
651.474	1	-3
652.661	1	-3
653.847	1	6
655.034	1	-6
656.220	1	-3
657.406	1	6
658.593	1	5
659.779	1	-1
660.965	1	7
662.152	1	7
663.338	1	2
664.524	1	-1
665.710	1	1
666.896	1	0
668.082	1	-2
669.268	1	-4
670.454	1	7
671.640	1	-5
672.826	1	2
674.011	1	5
675.197	1	-10
676.383	1	1
677.569	1	-4
678.754	1	-5
679.940	1	-6
681.125	1	2
682.311	1	9
683.496	1	5
684.682	1	-8
685.867	1	-2
687.053	1	-3
688.238	1	6
688.746	1	-9

File: GaN_sample F_spot 12_UVVIS_200 K_200um_800 ms 2x2mm1_310.txt
340.368	1	6
341.565	1	-8
342.763	1	-2
343.960	1	-4
345.157	1	2
346.354	1	-2
347.552	1	-9
348.749	1	-2
349.946	1	-2
351.143	1	6
352.340	1	-1
353.537	1	-9
354.734	1	10
355.931	1	-4
357.127	1	-3
358.324	1	3
359.521	1	16
360.718	1	9
361.914	1	16
363.111	1	-3
364.308	1	4
365.504	1	17
366.701	1	8
367.897	1	16
369.093	1	12
370.290	1	20
371.486	1	19
372.682	1	10
373.879	1	19
375.075	1	4
376.271	1	18
377.467	1	9
378.663	1	-2
379.859	1	-4
381.055	1	11
382.251	1	2
383.447	1	-3
384.643	1	11
385.839	1	8
387.035	1	12
388.230	1	8
389.426	1	1
390.622	1	-1
391.817	1	11
393.013	1	-10
394.208	1	0
395.404	1	-7
396.599	1	10
397.795	1	6
398.990	1	5
400.186	1	4
401.381	1	-8
402.576	1	-8
403.771	1	1
404.967	1	5
406.162	1	0
407.357	1	0
408.552	1	2
409.747	1	3
410.942	1	5
412.137	1	0
413.332	1	9
414.526	1	0
415.721	1	-10
416.916	1	-1
418.111	1	8
419.305	1	-1
420.500	1	-8
421.695	1	-2
422.889	1	-15
424.084	1	7
425.278	1	11
426.472	1	-6
427.667	1	7
428.861	1	3
430.055	1	-1
431.250	1	-5
432.444	1	9
433.638	1	-10
434.832	1	-4
436.026	1	8
437.220	1	4
438.414	1	-8
439.608	1	-14
440.802	1	5
441.996	1	-3
443.190	1	-6
444.384	1	-7
445.578	1	-5
446.771	1	17
447.965	1	-3
449.159	1	-3
450.352	1	-3
451.546	1	-2
452.739	1	7
453.933	1	0
455.126	1	-2
456.320	1	-1
457.513	1	8
458.706	1	-6
459.899	1	-3
461.093	1	9
462.286	1	3
463.479	1	-6
464.672	1	1
465.865	1	0
467.058	1	-8
468.251	1	-4
469.444	1	-6
470.637	1	2
471.830	1	-3
473.023	1	-3
474.215	1	11
475.408	1	4
476.601	1	-3
477.793	1	-5
478.986	1	-1
480.179	1	0
481.371	1	0
482.564	1	-3
483.756	1	7
484.948	1	-3
486.141	1	-4
487.333	1	0
488.525	1	1
489.718	1	4
490.910	1	0
492.102	1	-5
493.294	1	2
494.486	1	5
495.678	1	2
496.870	1	6
498.062	1	1
499.254	1	-2
500.446	1	-8
501.638	1	3
502.829	1	5
504.021	1	2
505.213	1	4
506.404	1	-3
507.596	1	9
508.788	1	21
509.979	1	2
511.171	1	-6
512.362	1	-7
513.553	1	-12
514.745	1	-7
515.936	1	8
517.127	1	-3
518.319	1	0
519.510	1	10
520.701	1	-2
521.892	1	2
523.083	1	-5
524.274	1	0
525.465	1	8
526.656	1	0
527.847	1	5
529.038	1	0
530.229	1	2
531.419	1	-2
532.610	1	0
533.801	1	14
534.991	1	-5
536.182	1	5
537.373	1	1
538.563	1	9
539.754	1	1
540.944	1	0
542.134	1	0
543.325	1	-2
544.515	1	1
545.705	1	1
546.896	1	0
548.086	1	4
549.276	1	-1
550.466	1	-3
551.656	1	6
552.846	1	8
554.036	1	-4
555.226	1	-7
556.416	1	-8
557.606	1	2
558.796	1	-7
559.986	1	-5
561.175	1	9
562.365	1	6
563.555	1	-4
564.744	1	7
565.934	1	6
567.123	1	2
568.313	1	-5
569.502	1	5
570.692	1	3
571.881	1	12
573.070	1	9
574.260	1	7
575.449	1	-6
576.638	1	-8
577.827	1	0
579.016	1	11
580.205	1	-1
581.394	1	0
582.583	1	13
583.772	1	9
584.961	1	1
586.150	1	0
587.339	1	1
588.528	1	7
589.717	1	-3
590.905	1	-5
592.094	1	3
593.283	1	1
594.471	1	6
595.660	1	-3
596.848	1	0
598.037	1	0
599.225	1	0
600.413	1	7
601.602	1	4
602.790	1	14
603.978	1	-4
605.166	1	8
606.355	1	3
607.543	1	-4
608.731	1	2
609.919	1	15
611.107	1	-3
612.295	1	-4
613.483	1	5
614.671	1	13
615.858	1	0
617.046	1	4
618.234	1	-2
619.422	1	-7
620.609	1	11
621.797	1	-4
622.985	1	5
624.172	1	-3
625.360	1	-6
626.547	1	-5
627.735	1	3
628.922	1	5
630.109	1	-14
631.297	1	3
632.484	1	-5
633.671	1	1
634.858	1	-9
636.045	1	8
637.232	1	-2
638.419	1	4
639.606	1	3
640.793	1	8
641.980	1	4
643.167	1	-3
644.354	1	-4
645.541	1	-5
646.728	1	0
647.914	1	3
649.101	1	0
650.288	1	0
651.474	1	-2
652.661	1	-7
653.847	1	8
655.034	1	5
656.220	1	-1
657.406	1	4
658.593	1	10
659.779	1	6
660.965	1	12
662.152	1	2
663.338	1	6
664.524	1	-4
665.710	1	-5
666.896	1	0
668.082	1	12
669.268	1	-10
670.454	1	15
671.640	1	3
672.826	1	-2
674.011	1	-1
675.197	1	-7
676.383	1	1
677.569	1	1
678.754	1	-4
679.940	1	-5
681.125	1	3
682.311	1	7
683.496	1	0
684.682	1	-3
685.867	1	5
687.053	1	4
688.238	1	8
688.746	1	-3

File: GaN_sample F_spot 12_UVVIS_200 K_200um_800 ms 2x2mm1_312.txt
340.368	1	4
341.565	1	-12
342.763	1	4
343.960	1	1
345.157	1	-4
346.354	1	0
347.552	1	-3
348.749	1	-7
349.946	1	0
351.143	1	3
352.340	1	3
353.537	1	-5
354.734	1	-5
355.931	1	-1
357.127	1	-10
358.324	1	2
359.521	1	4
360.718	1	1
361.914	1	8
363.111	1	0
364.308	1	4
365.504	1	15
366.701	1	16
367.897	1	14
369.093	1	8
370.290	1	9
371.486	1	22
372.682	1	18
373.879	1	9
375.075	1	10
376.271	1	14
377.467	1	6
378.663	1	3
379.859	1	2
381.055	1	7
382.251	1	-1
383.447	1	-2
384.643	1	9
385.839	1	8
387.035	1	-6
388.230	1	10
389.426	1	3
390.622	1	0
391.817	1	8
393.013	1	-6
394.208	1	-2
395.404	1	-4
396.599	1	1
397.795	1	6
398.990	1	4
400.186	1	3
401.381	1	0
402.576	1	-6
403.771	1	-2
404.967	1	2
406.162	1	11
407.357	1	2
408.552	1	1
409.747	1	-3
410.942	1	8
412.137	1	5
413.332	1	5
414.526	1	3
415.721	1	6
416.916	1	-2
418.111	1	1
419.305	1	-1
420.500	1	-7
421.695	1	-1
422.889	1	-4
424.084	1	1
425.278	1	9
426.472	1	4
427.667	1	4
428.861	1	-5
430.055	1	0
431.250	1	-3
432.444	1	4
433.638	1	-1
434.832	1	2
436.026	1	3
437.220	1	2
438.414	1	-6
439.608	1	3
440.802	1	0
441.996	1	0
443.190	1	-1
444.384	1	-10
445.578	1	-12
446.771	1	17
447.965	1	0
449.159	1	-5
450.352	1	-3
451.546	1	5
452.739	1	8
453.933	1	-2
455.126	1	1
456.320	1	-3
457.513	1	0
458.706	1	7
459.899	1	-4
461.093	1	3
462.286	1	3
463.479	1	-2
464.672	1	3
465.865	1	-4
467.058	1	5
468.251	1	-7
469.444	1	-5
470.637	1	2
471.830	1	-7
473.023	1	-4
474.215	1	6
475.408	1	10
476.601	1	-4
477.793	1	2
478.986	1	4
480.179	1	2
481.371	1	-1
482.564	1	-8
483.756	1	3
484.948	1	-11
486.141	1	-3
487.333	1	0
488.525	1	-4
489.718	1	1
490.910	1	1
492.102	1	-4
493.294	1	2
494.486	1	-7
495.678	1	4
496.870	1	9
498.062	1	2
499.254	1	0
500.446	1	-7
501.638	1	-3
502.829	1	5
504.021	1	-8
505.213	1	7
506.404	1	2
507.596	1	2
508.788	1	12
509.979	1	3
511.171	1	1
512.362	1	-8
513.553	1	-6
514.745	1	5
515.936	1	1
517.127	1	-4
518.319	1	2
519.510	1	-3
520.701	1	-2
521.892	1	-4
523.083	1	3
524.274	1	-8
525.465	1	5
526.656	1	6
527.847	1	3
529.038	1	2
530.229	1	7
531.419	1	0
532.610	1	-7
533.801	1	11
534.991	1	-2
536.182	1	1
537.373	1	1
538.563	1	-3
539.754	1	5
540.944	1	-6
542.134	1	10
543.325	1	0
544.515	1	-3
545.705	1	0
546.896	1	-3
548.086	1	5
549.276	1	0
550.466	1	9
551.656	1	6
552.846	1	-2
554.036	1	13
555.226	1	-11
556.416	1	-6
557.606	1	3
558.796	1	0
559.986	1	-2
561.175	1	-2
562.365	1	1
563.555	1	-4
564.744	1	6
565.934	1	-1
567.123	1	3
568.313	1	0
569.502	1	-3
570.692	1	9
571.881	1	14
573.070	1	1
574.260	1	1
575.449	1	0
576.638	1	-9
577.827	1	1
579.016	1	7
580.205	1	-1
581.394	1	-1
582.583	1	11
583.772	1	6
584.961	1	-8
586.150	1	6
587.339	1	7
588.528	1	2
589.717	1	8
590.905	1	-2
592.094	1	-2
593.283	1	-2
594.471	1	8
595.660	1	7
596.848	1	6
598.037	1	-5
599.225	1	-13
600.413	1	3
601.602	1	11
602.790	1	4
603.978	1	-4
605.166	1	3
606.355	1	11
607.543	1	-9
608.731	1	2
609.919	1	10
611.107	1	-6
612.295	1	-3
613.483	1	-1
614.671	1	7
615.858	1	-3
617.046	1	-5
618.234	1	-3
619.422	1	-9
620.609	1	4
621.797	1	-3
622.985	1	0
624.172	1	-2
625.360	1	3
626.547	1	-7
627.735	1	3
628.922	1	0
630.109	1	-4
631.297	1	7
632.484	1	-5
633.671	1	-2
634.858	1	1
636.045	1	5
637.232	1	-1
638.419	1	1
639.606	1	8
640.793	1	3
641.980	1	-4
643.167	1	-3
644.354	1	-2
645.541	1	6
646.728	1	0
647.914	1	-3
649.101	1	3
650.288	1	-3
651.474	1	-7
652.661	1	-1
653.847	1	5
655.034	1	-1
656.220	1	-3
657.406	1	-2
658.593	1	6
659.779	1	4
660.965	1	9
662.152	1	3
663.338	1	4
664.524	1	0
665.710	1	4
666.896	1	-4
668.082	1	4
669.268	1	-6
670.454	1	-1
671.640	1	0
672.826	1	3
674.011	1	0
675.197	1	0
676.383	1	-1
677.569	1	-4
678.754	1	-1
679.940	1	-17
681.125	1	6
682.311	1	0
683.496	1	0
684.682	1	-6
685.867	1	6
687.053	1	-3
688.238	1	7
688.746	1	-3

File: GaN_sample F_spot 12_UVVIS_200 K_200um_800 ms 2x2mm1_314.txt
340.368	1	-2
341.565	1	-10
342.763	1	2
343.960	1	-8
345.157	1	-2
346.354	1	-3
347.552	1	-3
348.749	1	-3
349.946	1	-5
351.143	1	2
352.340	1	2
353.537	1	-2
354.734	1	0
355.931	1	1
357.127	1	4
358.324	1	-6
359.521	1	7
360.718	1	13
361.914	1	10
363.111	1	12
364.308	1	-2
365.504	1	18
366.701	1	13
367.897	1	13
369.093	1	9
370.290	1	12
371.486	1	24
372.682	1	16
373.879	1	11
375.075	1	8
376.271	1	22
377.467	1	6
378.663	1	3
379.859	1	1
381.055	1	6
382.251	1	2
383.447	1	3
384.643	1	8
385.839	1	5
387.035	1	7
388.230	1	13
389.426	1	-5
390.622	1	-3
391.817	1	6
393.013	1	5
394.208	1	3
395.404	1	-5
396.599	1	-1
397.795	1	2
398.990	1	2
400.186	1	-5
401.381	1	-9
402.576	1	3
403.771	1	4
404.967	1	7
406.162	1	7
407.357	1	-4
408.552	1	-3
409.747	1	-3
410.942	1	11
412.137	1	6
413.332	1	-1
414.526	1	0
415.721	1	-1
416.916	1	2
418.111	1	5
419.305	1	4
420.500	1	-4
421.695	1	-4
422.889	1	-11
424.084	1	-6
425.278	1	4
426.472	1	-5
427.667	1	1
428.861	1	-2
430.055	1	-1
431.250	1	-3
432.444	1	11
433.638	1	-7
434.832	1	10
436.026	1	4
437.220	1	4
438.414	1	-11
439.608	1	-10
440.802	1	-5
441.996	1	2
443.190	1	-4
444.384	1	-12
445.578	1	-12
446.771	1	11
447.965	1	-3
449.159	1	-9
450.352	1	5
451.546	1	1
452.739	1	3
453.933	1	-8
455.126	1	-3
456.320	1	-2
457.513	1	5
458.706	1	1
459.899	1	-1
461.093	1	5
462.286	1	3
463.479	1	1
464.672	1	-9
465.865	1	3
467.058	1	1
468.251	1	5
469.444	1	-7
470.637	1	8
471.830	1	1
473.023	1	3
474.215	1	2
475.408	1	-7
476.601	1	3
477.793	1	-5
478.986	1	-7
480.179	1	-9
481.371	1	3
482.564	1	9
483.756	1	12
484.948	1	-6
486.141	1	-1
487.333	1	-2
488.525	1	0
489.718	1	6
490.910	1	0
492.102	1	-5
493.294	1	-7
494.486	1	2
495.678	1	-6
496.870	1	10
498.062	1	-2
499.254	1	3
500.446	1	-9
501.638	1	-4
502.829	1	1
504.021	1	2
505.213	1	-1
506.404	1	6
507.596	1	3
508.788	1	17
509.979	1	-3
511.171	1	-3
512.362	1	-3
513.553	1	-8
514.745	1	-4
515.936	1	2
517.127	1	-6
518.319	1	1
519.510	1	2
520.701	1	-5
521.892	1	-4
523.083	1	-3
524.274	1	2
525.465	1	7
526.656	1	-6
527.847	1	3
529.038	1	-3
530.229	1	-1
531.419	1	-1
532.610	1	-10
533.801	1	16
534.991	1	-4
536.182	1	-4
537.373	1	2
538.563	1	11
539.754	1	11
540.944	1	6
542.134	1	7
543.325	1	9
544.515	1	-12
545.705	1	-6
546.896	1	1
548.086	1	6
549.276	1	-7
550.466	1	4
551.656	1	6
552.846	1	-1
554.036	1	-5
555.226	1	-14
556.416	1	1
557.606	1	10
558.796	1	-1
559.986	1	-2
561.175	1	-2
562.365	1	-1
563.555	1	4
564.744	1	3
565.934	1	14
567.123	1	0
568.313	1	6
569.502	1	2
570.692	1	1
571.881	1	7
573.070	1	-2
574.260	1	6
575.449	1	2
576.638	1	-2
577.827	1	-1
579.016	1	15
580.205	1	-6
581.394	1	1
582.583	1	13
583.772	1	11
584.961	1	-1
586.150	1	-8
587.339	1	9
588.528	1	-2
589.717	1	7
590.905	1	-4
592.094	1	0
593.283	1	2
594.471	1	4
595.660	1	1
596.848	1	3
598.037	1	-6
599.225	1	-8
600.413	1	12
601.602	1	14
602.790	1	1
603.978	1	-5
605.166	1	-3
606.355	1	-1
607.543	1	6
608.731	1	-4
609.919	1	4
611.107	1	-1
612.295	1	-4
613.483	1	-1
614.671	1	12
615.858	1	-1
617.046	1	4
618.234	1	-2
619.422	1	-4
620.609	1	-4
621.797	1	-2
622.985	1	9
624.172	1	-8
625.360	1	2
626.547	1	-3
627.735	1	6
628.922	1	5
630.109	1	-10
631.297	1	2
632.484	1	2
633.671	1	-10
634.858	1	-2
636.045	1	11
637.232	1	-3
638.419	1	-3
639.606	1	6
640.793	1	5
641.980	1	0
643.167	1	-7
644.354	1	14
645.541	1	7
646.728	1	-5
647.914	1	-9
649.101	1	-5
650.288	1	9
651.474	1	-3
652.661	1	-2
653.847	1	-3
655.034	1	0
656.220	1	-6
657.406	1	6
658.593	1	7
659.779	1	-5
660.965	1	8
662.152	1	13
663.338	1	5
664.524	1	-2
665.710	1	-2
666.896	1	-5
668.082	1	1
669.268	1	4
670.454	1	4
671.640	1	3
672.826	1	1
674.011	1	-1
675.197	1	-9
676.383	1	-1
677.569	1	1
678.754	1	-10
679.940	1	-1
681.125	1	5
682.311	1	6
683.496	1	-1
684.682	1	-1
685.867	1	1
687.053	1	-1
688.238	1	8
688.746	1	2

File: GaN_sample F_spot 12_UVVIS_200 K_200um_800 ms 2x2mm1_316.txt
340.368	1	-6
341.565	1	-8
342.763	1	4
343.960	1	5
345.157	1	-7
346.354	1	-4
347.552	1	-2
348.749	1	-17
349.946	1	-7
351.143	1	-3
352.340	1	4
353.537	1	4
354.734	1	0
355.931	1	7
357.127	1	5
358.324	1	0
359.521	1	5
360.718	1	0
361.914	1	5
363.111	1	6
364.308	1	9
365.504	1	9
366.701	1	17
367.897	1	21
369.093	1	4
370.290	1	16
371.486	1	22
372.682	1	15
373.879	1	7
375.075	1	9
376.271	1	8
377.467	1	8
378.663	1	-1
379.859	1	-2
381.055	1	4
382.251	1	-1
383.447	1	-2
384.643	1	2
385.839	1	1
387.035	1	3
388.230	1	15
389.426	1	4
390.622	1	5
391.817	1	2
393.013	1	-5
394.208	1	2
395.404	1	5
396.599	1	0
397.795	1	9
398.990	1	-5
400.186	1	-1
401.381	1	1
402.576	1	1
403.771	1	-1
404.967	1	-2
406.162	1	4
407.357	1	-1
408.552	1	-9
409.747	1	4
410.942	1	8
412.137	1	3
413.332	1	0
414.526	1	-2
415.721	1	2
416.916	1	3
418.111	1	3
419.305	1	11
420.500	1	-3
421.695	1	1
422.889	1	-10
424.084	1	-9
425.278	1	11
426.472	1	4
427.667	1	10
428.861	1	3
430.055	1	6
431.250	1	-3
432.444	1	2
433.638	1	0
434.832	1	-4
436.026	1	8
437.220	1	-2
438.414	1	-6
439.608	1	-7
440.802	1	-11
441.996	1	1
443.190	1	-2
444.384	1	-11
445.578	1	-11
446.771	1	3
447.965	1	-2
449.159	1	-7
450.352	1	-4
451.546	1	-9
452.739	1	8
453.933	1	-11
455.126	1	3
456.320	1	-2
457.513	1	-1
458.706	1	-9
459.899	1	-1
461.093	1	7
462.286	1	1
463.479	1	-3
464.672	1	3
465.865	1	4
467.058	1	-9
468.251	1	-8
469.444	1	-10
470.637	1	-2
471.830	1	-7
473.023	1	5
474.215	1	4
475.408	1	-5
476.601	1	-1
477.793	1	-5
478.986	1	4
480.179	1	8
481.371	1	8
482.564	1	1
483.756	1	4
484.948	1	-6
486.141	1	0
487.333	1	-3
488.525	1	1
489.718	1	-8
490.910	1	-2
492.102	1	4
493.294	1	-3
494.486	1	6
495.678	1	-4
496.870	1	2
498.062	1	4
499.254	1	-4
500.446	1	-3
501.638	1	-1
502.829	1	5
504.021	1	-3
505.213	1	10
506.404	1	2
507.596	1	4
508.788	1	8
509.979	1	2
511.171	1	-5
512.362	1	-9
513.553	1	-12
514.745	1	6
515.936	1	-4
517.127	1	0
518.319	1	4
519.510	1	7
520.701	1	1
521.892	1	-4
523.083	1	5
524.274	1	7
525.465	1	4
526.656	1	7
527.847	1	0
529.038	1	1
530.229	1	5
531.419	1	1
532.610	1	-7
533.801	1	18
534.991	1	12
536.182	1	4
537.373	1	0
538.563	1	1
539.754	1	8
540.944	1	4
542.134	1	11
543.325	1	5
544.515	1	-1
545.705	1	-3
546.896	1	1
548.086	1	-5
549.276	1	-1
550.466	1	3
551.656	1	12
552.846	1	2
554.036	1	0
555.226	1	-7
556.416	1	-1
557.606	1	5
558.796	1	1
559.986	1	4
561.175	1	0
562.365	1	9
563.555	1	-1
564.744	1	8
565.934	1	4
567.123	1	6
568.313	1	0
569.502	1	0
570.692	1	2
571.881	1	11
573.070	1	3
574.260	1	8
575.449	1	-7
576.638	1	-3
577.827	1	-5
579.016	1	8
580.205	1	2
581.394	1	0
582.583	1	7
583.772	1	4
584.961	1	-3
586.150	1	-1
587.339	1	-2
588.528	1	-2
589.717	1	-1
590.905	1	1
592.094	1	4
593.283	1	5
594.471	1	7
595.660	1	1
596.848	1	-4
598.037	1	-1
599.225	1	-6
600.413	1	5
601.602	1	13
602.790	1	4
603.978	1	1
605.166	1	5
606.355	1	2
607.543	1	-8
608.731	1	1
609.919	1	7
611.107	1	-6
612.295	1	-3
613.483	1	2
614.671	1	-2
615.858	1	8
617.046	1	8
618.234	1	3
619.422	1	-7
620.609	1	6
621.797	1	5
622.985	1	-1
624.172	1	-3
625.360	1	-8
626.547	1	0
627.735	1	-1
628.922	1	-1
630.109	1	-5
631.297	1	3
632.484	1	-9
633.671	1	-6
634.858	1	-2
636.045	1	6
637.232	1	1
638.419	1	-4
639.606	1	4
640.793	1	14
641.980	1	6
643.167	1	-9
644.354	1	14
645.541	1	2
646.728	1	-2
647.914	1	-6
649.101	1	-7
650.288	1	7
651.474	1	-5
652.661	1	-2
653.847	1	4
655.034	1	7
656.220	1	-14
657.406	1	2
658.593	1	1
659.779	1	3
660.965	1	5
662.152	1	2
663.338	1	10
664.524	1	3
665.710	1	1
666.896	1	-9
668.082	1	4
669.268	1	-11
670.454	1	2
671.640	1	-1
672.826	1	3
674.011	1	-1
675.197	1	-11
676.383	1	1
677.569	1	0
678.754	1	-9
679.940	1	-6
681.125	1	7
682.311	1	10
683.496	1	-3
684.682	1	-13
685.867	1	-4
687.053	1	-4
688.238	1	1
688.746	1	3

File: GaN_sample F_spot 12_UVVIS_200 K_200um_800 ms 2x2mm1_317.txt
340.368	1	8
341.565	1	-11
342.763	1	1
343.960	1	4
345.157	1	-2
346.354	1	0
347.552	1	-3
348.749	1	-11
349.946	1	1
351.143	1	-3
352.340	1	10
353.537	1	-9
354.734	1	3
355.931	1	3
357.127	1	0
358.324	1	5
359.521	1	5
360.718	1	5
361.914	1	3
363.111	1	3
364.308	1	3
365.504	1	8
366.701	1	13
367.897	1	22
369.093	1	7
370.290	1	20
371.486	1	16
372.682	1	12
373.879	1	9
375.075	1	6
376.271	1	13
377.467	1	13
378.663	1	2
379.859	1	2
381.055	1	13
382.251	1	-1
383.447	1	-1
384.643	1	7
385.839	1	-1
387.035	1	6
388.230	1	5
389.426	1	1
390.622	1	-2
391.817	1	3
393.013	1	-1
394.208	1	0
395.404	1	-1
396.599	1	-6
397.795	1	-2
398.990	1	-2
400.186	1	5
401.381	1	-3
402.576	1	-2
403.771	1	3
404.967	1	-4
406.162	1	3
407.357	1	1
408.552	1	-9
409.747	1	-1
410.942	1	6
412.137	1	8
413.332	1	3
414.526	1	-9
415.721	1	13
416.916	1	-13
418.111	1	-1
419.305	1	-2
420.500	1	-10
421.695	1	-4
422.889	1	-4
424.084	1	0
425.278	1	6
426.472	1	-7
427.667	1	17
428.861	1	-9
430.055	1	-3
431.250	1	-5
432.444	1	11
433.638	1	1
434.832	1	5
436.026	1	4
437.220	1	12
438.414	1	-5
439.608	1	-15
440.802	1	-5
441.996	1	4
443.190	1	7
444.384	1	-10
445.578	1	-8
446.771	1	14
447.965	1	-2
449.159	1	-2
450.352	1	-4
451.546	1	-7
452.739	1	5
453.933	1	-5
455.126	1	-15
456.320	1	-1
457.513	1	7
458.706	1	5
459.899	1	7
461.093	1	2
462.286	1	-1
463.479	1	7
464.672	1	-3
465.865	1	2
467.058	1	2
468.251	1	-2
469.444	1	-9
470.637	1	-1
471.830	1	4
473.023	1	3
474.215	1	8
475.408	1	0
476.601	1	6
477.793	1	-5
478.986	1	-3
480.179	1	4
481.371	1	5
482.564	1	6
483.756	1	10
484.948	1	-1
486.141	1	-7
487.333	1	-3
488.525	1	-4
489.718	1	4
490.910	1	1
492.102	1	-1
493.294	1	-7
494.486	1	-2
495.678	1	9
496.870	1	3
498.062	1	-5
499.254	1	8
500.446	1	-13
501.638	1	-7
502.829	1	-4
504.021	1	-6
505.213	1	3
506.404	1	-8
507.596	1	-2
508.788	1	18
509.979	1	-3
511.171	1	-11
512.362	1	-8
513.553	1	-6
514.745	1	-1
515.936	1	4
517.127	1	-3
518.319	1	1
519.510	1	-4
520.701	1	0
521.892	1	-3
523.083	1	-2
524.274	1	1
525.465	1	14
526.656	1	-3
527.847	1	1
529.038	1	-9
530.229	1	-4
531.419	1	-1
532.610	1	-1
533.801	1	7
534.991	1	3
536.182	1	-6
537.373	1	8
538.563	1	8
539.754	1	0
540.944	1	5
542.134	1	8
543.325	1	-2
544.515	1	1
545.705	1	9
546.896	1	5
548.086	1	-1
549.276	1	-8
550.466	1	7
551.656	1	4
552.846	1	-5
554.036	1	-4
555.226	1	-6
556.416	1	4
557.606	1	0
558.796	1	0
559.986	1	-3
561.175	1	10
562.365	1	-4
563.555	1	-4
564.744	1	-9
565.934	1	10
567.123	1	9
568.313	1	4
569.502	1	3
570.692	1	0
571.881	1	16
573.070	1	-2
574.260	1	11
575.449	1	0
576.638	1	1
577.827	1	-3
579.016	1	15
580.205	1	0
581.394	1	2
582.583	1	14
583.772	1	7
584.961	1	5
586.150	1	-6
587.339	1	7
588.528	1	-3
589.717	1	12
590.905	1	-1
592.094	1	5
593.283	1	7
594.471	1	11
595.660	1	4
596.848	1	6
598.037	1	1
599.225	1	-2
600.413	1	6
601.602	1	14
602.790	1	-5
603.978	1	-2
605.166	1	6
606.355	1	10
607.543	1	-6
608.731	1	3
609.919	1	11
611.107	1	4
612.295	1	3
613.483	1	0
614.671	1	-5
615.858	1	3
617.046	1	5
618.234	1	0
619.422	1	-1
620.609	1	8
621.797	1	2
622.985	1	6
624.172	1	-13
625.360	1	4
626.547	1	6
627.735	1	2
628.922	1	8
630.109	1	-1
631.297	1	-3
632.484	1	-8
633.671	1	-8
634.858	1	5
636.045	1	16
637.232	1	-3
638.419	1	-9
639.606	1	5
640.793	1	11
641.980	1	4
643.167	1	-6
644.354	1	-2
645.541	1	7
646.728	1	3
647.914	1	0
649.101	1	-8
650.288	1	5
651.474	1	-9
652.661	1	-10
653.847	1	-3
655.034	1	7
656.220	1	-3
657.406	1	2
658.593	1	-5
659.779	1	1
660.965	1	9
662.152	1	4
663.338	1	9
664.524	1	-4
665.710	1	3
666.896	1	-7
668.082	1	3
669.268	1	-8
670.454	1	3
671.640	1	6
672.826	1	-8
674.011	1	-4
675.197	1	-6
676.383	1	1
677.569	1	-5
678.754	1	2
679.940	1	-6
681.125	1	5
682.311	1	1
683.496	1	-1
684.682	1	-3
685.867	1	-1
687.053	1	6
688.238	1	6
688.746	1	-10