Folder: cryo-il_analysis/Data/GaN_130K_350ms (part 25)

File: GaN_sample F_spot6_UVVIS_130 K_200um_350 ms 2x2mm1_310.txt
340.368	1	1
341.565	1	1
342.763	1	6
343.960	1	-2
345.157	1	-9
346.354	1	-3
347.552	1	-1
348.749	1	6
349.946	1	6
351.143	1	1
352.340	1	6
353.537	1	0
354.734	1	-7
355.931	1	4
357.127	1	8
358.324	1	0
359.521	1	3
360.718	1	-2
361.914	1	9
363.111	1	13
364.308	1	10
365.504	1	9
366.701	1	10
367.897	1	14
369.093	1	5
370.290	1	8
371.486	1	7
372.682	1	-1
373.879	1	7
375.075	1	7
376.271	1	13
377.467	1	4
378.663	1	6
379.859	1	-3
381.055	1	1
382.251	1	5
383.447	1	3
384.643	1	9
385.839	1	5
387.035	1	8
388.230	1	8
389.426	1	9
390.622	1	7
391.817	1	17
393.013	1	8
394.208	1	-7
395.404	1	-6
396.599	1	14
397.795	1	-11
398.990	1	10
400.186	1	-1
401.381	1	5
402.576	1	1
403.771	1	8
404.967	1	0
406.162	1	5
407.357	1	1
408.552	1	-9
409.747	1	3
410.942	1	2
412.137	1	-3
413.332	1	-2
414.526	1	9
415.721	1	5
416.916	1	-1
418.111	1	1
419.305	1	4
420.500	1	2
421.695	1	2
422.889	1	9
424.084	1	11
425.278	1	1
426.472	1	16
427.667	1	11
428.861	1	0
430.055	1	4
431.250	1	19
432.444	1	12
433.638	1	6
434.832	1	5
436.026	1	7
437.220	1	-3
438.414	1	-4
439.608	1	13
440.802	1	-12
441.996	1	-3
443.190	1	-3
444.384	1	0
445.578	1	-5
446.771	1	3
447.965	1	-2
449.159	1	1
450.352	1	9
451.546	1	8
452.739	1	8
453.933	1	12
455.126	1	-9
456.320	1	5
457.513	1	-16
458.706	1	1
459.899	1	-2
461.093	1	3
462.286	1	6
463.479	1	9
464.672	1	10
465.865	1	-9
467.058	1	8
468.251	1	-1
469.444	1	4
470.637	1	6
471.830	1	11
473.023	1	11
474.215	1	14
475.408	1	7
476.601	1	-1
477.793	1	-4
478.986	1	6
480.179	1	4
481.371	1	8
482.564	1	2
483.756	1	0
484.948	1	-4
486.141	1	0
487.333	1	1
488.525	1	8
489.718	1	3
490.910	1	-4
492.102	1	3
493.294	1	3
494.486	1	11
495.678	1	-1
496.870	1	-4
498.062	1	0
499.254	1	8
500.446	1	6
501.638	1	-2
502.829	1	3
504.021	1	-3
505.213	1	-1
506.404	1	3
507.596	1	-1
508.788	1	6
509.979	1	-8
511.171	1	2
512.362	1	8
513.553	1	9
514.745	1	-1
515.936	1	11
517.127	1	-2
518.319	1	-4
519.510	1	2
520.701	1	3
521.892	1	9
523.083	1	2
524.274	1	0
525.465	1	-1
526.656	1	9
527.847	1	6
529.038	1	-7
530.229	1	13
531.419	1	-1
532.610	1	-2
533.801	1	14
534.991	1	5
536.182	1	9
537.373	1	-5
538.563	1	14
539.754	1	5
540.944	1	6
542.134	1	0
543.325	1	0
544.515	1	-6
545.705	1	-3
546.896	1	1
548.086	1	5
549.276	1	0
550.466	1	10
551.656	1	0
552.846	1	-5
554.036	1	-2
555.226	1	12
556.416	1	12
557.606	1	-3
558.796	1	2
559.986	1	3
561.175	1	2
562.365	1	11
563.555	1	4
564.744	1	3
565.934	1	11
567.123	1	6
568.313	1	-8
569.502	1	7
570.692	1	4
571.881	1	6
573.070	1	3
574.260	1	-3
575.449	1	-1
576.638	1	-2
577.827	1	-5
579.016	1	0
580.205	1	-7
581.394	1	5
582.583	1	13
583.772	1	-1
584.961	1	2
586.150	1	4
587.339	1	-4
588.528	1	13
589.717	1	-1
590.905	1	14
592.094	1	5
593.283	1	-6
594.471	1	3
595.660	1	-2
596.848	1	4
598.037	1	3
599.225	1	-7
600.413	1	3
601.602	1	-2
602.790	1	-10
603.978	1	8
605.166	1	7
606.355	1	9
607.543	1	6
608.731	1	2
609.919	1	2
611.107	1	9
612.295	1	3
613.483	1	-2
614.671	1	1
615.858	1	-3
617.046	1	6
618.234	1	4
619.422	1	-6
620.609	1	1
621.797	1	-2
622.985	1	10
624.172	1	-5
625.360	1	10
626.547	1	6
627.735	1	12
628.922	1	-1
630.109	1	12
631.297	1	4
632.484	1	-2
633.671	1	-1
634.858	1	0
636.045	1	18
637.232	1	-7
638.419	1	3
639.606	1	3
640.793	1	3
641.980	1	8
643.167	1	0
644.354	1	-7
645.541	1	3
646.728	1	6
647.914	1	-9
649.101	1	4
650.288	1	11
651.474	1	-7
652.661	1	-1
653.847	1	-8
655.034	1	7
656.220	1	-2
657.406	1	0
658.593	1	-1
659.779	1	-3
660.965	1	4
662.152	1	4
663.338	1	2
664.524	1	-3
665.710	1	0
666.896	1	11
668.082	1	3
669.268	1	4
670.454	1	4
671.640	1	-1
672.826	1	-3
674.011	1	7
675.197	1	-5
676.383	1	5
677.569	1	8
678.754	1	1
679.940	1	-2
681.125	1	10
682.311	1	-15
683.496	1	3
684.682	1	-6
685.867	1	5
687.053	1	5
688.238	1	2
688.746	1	5