Folder: cryo-il_analysis/Data/GaN_170K_550ms (part 9)

File: GaN_sample D_spot 18_UVVIS_170 K_200um_550 ms 2x2mm1_89.txt
340.368	1	-3
341.565	1	10
342.763	1	3
343.960	1	-6
345.157	1	1
346.354	1	-1
347.552	1	12
348.749	1	11
349.946	1	12
351.143	1	10
352.340	1	5
353.537	1	9
354.734	1	12
355.931	1	13
357.127	1	10
358.324	1	24
359.521	1	24
360.718	1	22
361.914	1	35
363.111	1	57
364.308	1	73
365.504	1	90
366.701	1	117
367.897	1	119
369.093	1	119
370.290	1	129
371.486	1	106
372.682	1	86
373.879	1	83
375.075	1	65
376.271	1	56
377.467	1	49
378.663	1	49
379.859	1	46
381.055	1	40
382.251	1	18
383.447	1	31
384.643	1	22
385.839	1	8
387.035	1	19
388.230	1	13
389.426	1	20
390.622	1	4
391.817	1	13
393.013	1	7
394.208	1	14
395.404	1	13
396.599	1	6
397.795	1	7
398.990	1	-9
400.186	1	-2
401.381	1	14
402.576	1	6
403.771	1	-4
404.967	1	10
406.162	1	14
407.357	1	-1
408.552	1	-2
409.747	1	3
410.942	1	7
412.137	1	-4
413.332	1	8
414.526	1	11
415.721	1	13
416.916	1	4
418.111	1	14
419.305	1	3
420.500	1	-1
421.695	1	-2
422.889	1	3
424.084	1	11
425.278	1	1
426.472	1	2
427.667	1	-2
428.861	1	7
430.055	1	6
431.250	1	22
432.444	1	1
433.638	1	9
434.832	1	6
436.026	1	3
437.220	1	7
438.414	1	-5
439.608	1	-1
440.802	1	8
441.996	1	2
443.190	1	-2
444.384	1	-6
445.578	1	11
446.771	1	-8
447.965	1	1
449.159	1	5
450.352	1	-8
451.546	1	-14
452.739	1	13
453.933	1	0
455.126	1	14
456.320	1	3
457.513	1	12
458.706	1	11
459.899	1	5
461.093	1	13
462.286	1	-6
463.479	1	-4
464.672	1	-6
465.865	1	9
467.058	1	6
468.251	1	6
469.444	1	7
470.637	1	11
471.830	1	7
473.023	1	1
474.215	1	-1
475.408	1	-6
476.601	1	12
477.793	1	12
478.986	1	-4
480.179	1	-1
481.371	1	6
482.564	1	1
483.756	1	2
484.948	1	1
486.141	1	9
487.333	1	1
488.525	1	4
489.718	1	15
490.910	1	8
492.102	1	4
493.294	1	10
494.486	1	6
495.678	1	11
496.870	1	0
498.062	1	9
499.254	1	12
500.446	1	9
501.638	1	-2
502.829	1	7
504.021	1	6
505.213	1	7
506.404	1	13
507.596	1	21
508.788	1	1
509.979	1	23
511.171	1	21
512.362	1	10
513.553	1	18
514.745	1	10
515.936	1	11
517.127	1	19
518.319	1	19
519.510	1	18
520.701	1	18
521.892	1	16
523.083	1	16
524.274	1	20
525.465	1	29
526.656	1	25
527.847	1	19
529.038	1	18
530.229	1	25
531.419	1	26
532.610	1	24
533.801	1	33
534.991	1	11
536.182	1	19
537.373	1	22
538.563	1	14
539.754	1	21
540.944	1	8
542.134	1	15
543.325	1	23
544.515	1	9
545.705	1	23
546.896	1	15
548.086	1	21
549.276	1	18
550.466	1	14
551.656	1	18
552.846	1	13
554.036	1	25
555.226	1	8
556.416	1	17
557.606	1	19
558.796	1	16
559.986	1	23
561.175	1	8
562.365	1	21
563.555	1	12
564.744	1	14
565.934	1	5
567.123	1	18
568.313	1	12
569.502	1	11
570.692	1	16
571.881	1	12
573.070	1	14
574.260	1	7
575.449	1	11
576.638	1	20
577.827	1	13
579.016	1	21
580.205	1	-5
581.394	1	2
582.583	1	10
583.772	1	5
584.961	1	5
586.150	1	9
587.339	1	16
588.528	1	4
589.717	1	8
590.905	1	19
592.094	1	13
593.283	1	8
594.471	1	17
595.660	1	5
596.848	1	5
598.037	1	5
599.225	1	8
600.413	1	0
601.602	1	3
602.790	1	19
603.978	1	14
605.166	1	5
606.355	1	6
607.543	1	8
608.731	1	12
609.919	1	4
611.107	1	-2
612.295	1	7
613.483	1	-1
614.671	1	17
615.858	1	7
617.046	1	1
618.234	1	10
619.422	1	-6
620.609	1	16
621.797	1	7
622.985	1	4
624.172	1	8
625.360	1	6
626.547	1	3
627.735	1	-8
628.922	1	1
630.109	1	0
631.297	1	5
632.484	1	-1
633.671	1	16
634.858	1	11
636.045	1	5
637.232	1	9
638.419	1	-6
639.606	1	2
640.793	1	-3
641.980	1	4
643.167	1	-3
644.354	1	12
645.541	1	-1
646.728	1	-1
647.914	1	5
649.101	1	-5
650.288	1	5
651.474	1	5
652.661	1	10
653.847	1	5
655.034	1	-1
656.220	1	7
657.406	1	10
658.593	1	1
659.779	1	13
660.965	1	11
662.152	1	11
663.338	1	1
664.524	1	3
665.710	1	-4
666.896	1	13
668.082	1	9
669.268	1	0
670.454	1	-3
671.640	1	8
672.826	1	5
674.011	1	14
675.197	1	10
676.383	1	8
677.569	1	4
678.754	1	4
679.940	1	18
681.125	1	2
682.311	1	6
683.496	1	8
684.682	1	10
685.867	1	12
687.053	1	-5
688.238	1	0
688.746	1	-4

File: GaN_sample D_spot 18_UVVIS_170 K_200um_550 ms 2x2mm1_90.txt
340.368	1	2
341.565	1	12
342.763	1	4
343.960	1	6
345.157	1	6
346.354	1	5
347.552	1	7
348.749	1	9
349.946	1	13
351.143	1	1
352.340	1	16
353.537	1	0
354.734	1	17
355.931	1	10
357.127	1	18
358.324	1	23
359.521	1	34
360.718	1	30
361.914	1	35
363.111	1	60
364.308	1	69
365.504	1	82
366.701	1	113
367.897	1	135
369.093	1	126
370.290	1	117
371.486	1	95
372.682	1	96
373.879	1	73
375.075	1	60
376.271	1	67
377.467	1	58
378.663	1	40
379.859	1	35
381.055	1	29
382.251	1	27
383.447	1	34
384.643	1	17
385.839	1	13
387.035	1	16
388.230	1	18
389.426	1	12
390.622	1	9
391.817	1	16
393.013	1	8
394.208	1	13
395.404	1	19
396.599	1	9
397.795	1	7
398.990	1	2
400.186	1	-8
401.381	1	3
402.576	1	4
403.771	1	0
404.967	1	0
406.162	1	15
407.357	1	-1
408.552	1	8
409.747	1	7
410.942	1	-1
412.137	1	-3
413.332	1	-4
414.526	1	5
415.721	1	3
416.916	1	4
418.111	1	6
419.305	1	1
420.500	1	8
421.695	1	1
422.889	1	-3
424.084	1	18
425.278	1	4
426.472	1	5
427.667	1	5
428.861	1	3
430.055	1	4
431.250	1	27
432.444	1	4
433.638	1	9
434.832	1	4
436.026	1	0
437.220	1	6
438.414	1	-3
439.608	1	5
440.802	1	9
441.996	1	-3
443.190	1	3
444.384	1	2
445.578	1	14
446.771	1	-13
447.965	1	9
449.159	1	4
450.352	1	-10
451.546	1	-6
452.739	1	2
453.933	1	4
455.126	1	6
456.320	1	11
457.513	1	12
458.706	1	11
459.899	1	4
461.093	1	4
462.286	1	-2
463.479	1	3
464.672	1	8
465.865	1	-2
467.058	1	9
468.251	1	1
469.444	1	3
470.637	1	11
471.830	1	3
473.023	1	2
474.215	1	-4
475.408	1	-4
476.601	1	4
477.793	1	9
478.986	1	5
480.179	1	4
481.371	1	-1
482.564	1	7
483.756	1	4
484.948	1	5
486.141	1	16
487.333	1	12
488.525	1	11
489.718	1	12
490.910	1	12
492.102	1	9
493.294	1	1
494.486	1	17
495.678	1	13
496.870	1	12
498.062	1	11
499.254	1	18
500.446	1	7
501.638	1	0
502.829	1	11
504.021	1	13
505.213	1	14
506.404	1	19
507.596	1	17
508.788	1	12
509.979	1	16
511.171	1	10
512.362	1	7
513.553	1	21
514.745	1	12
515.936	1	8
517.127	1	25
518.319	1	21
519.510	1	19
520.701	1	18
521.892	1	19
523.083	1	15
524.274	1	20
525.465	1	14
526.656	1	26
527.847	1	17
529.038	1	7
530.229	1	24
531.419	1	33
532.610	1	20
533.801	1	20
534.991	1	16
536.182	1	12
537.373	1	14
538.563	1	15
539.754	1	22
540.944	1	15
542.134	1	10
543.325	1	17
544.515	1	9
545.705	1	24
546.896	1	17
548.086	1	12
549.276	1	22
550.466	1	15
551.656	1	17
552.846	1	17
554.036	1	14
555.226	1	9
556.416	1	13
557.606	1	19
558.796	1	20
559.986	1	15
561.175	1	1
562.365	1	14
563.555	1	9
564.744	1	19
565.934	1	16
567.123	1	7
568.313	1	16
569.502	1	8
570.692	1	20
571.881	1	5
573.070	1	16
574.260	1	13
575.449	1	10
576.638	1	18
577.827	1	5
579.016	1	14
580.205	1	6
581.394	1	2
582.583	1	5
583.772	1	9
584.961	1	7
586.150	1	6
587.339	1	12
588.528	1	9
589.717	1	10
590.905	1	16
592.094	1	4
593.283	1	8
594.471	1	13
595.660	1	5
596.848	1	10
598.037	1	9
599.225	1	4
600.413	1	-7
601.602	1	11
602.790	1	16
603.978	1	4
605.166	1	8
606.355	1	7
607.543	1	11
608.731	1	7
609.919	1	2
611.107	1	-2
612.295	1	7
613.483	1	9
614.671	1	9
615.858	1	5
617.046	1	-6
618.234	1	-3
619.422	1	-2
620.609	1	11
621.797	1	1
622.985	1	9
624.172	1	5
625.360	1	6
626.547	1	4
627.735	1	-3
628.922	1	-10
630.109	1	5
631.297	1	3
632.484	1	-2
633.671	1	11
634.858	1	14
636.045	1	8
637.232	1	7
638.419	1	3
639.606	1	-1
640.793	1	5
641.980	1	2
643.167	1	-1
644.354	1	12
645.541	1	7
646.728	1	6
647.914	1	2
649.101	1	5
650.288	1	3
651.474	1	13
652.661	1	3
653.847	1	5
655.034	1	0
656.220	1	0
657.406	1	9
658.593	1	10
659.779	1	5
660.965	1	18
662.152	1	-2
663.338	1	5
664.524	1	3
665.710	1	8
666.896	1	10
668.082	1	14
669.268	1	5
670.454	1	-5
671.640	1	-1
672.826	1	1
674.011	1	12
675.197	1	5
676.383	1	10
677.569	1	2
678.754	1	1
679.940	1	10
681.125	1	12
682.311	1	11
683.496	1	10
684.682	1	8
685.867	1	11
687.053	1	0
688.238	1	10
688.746	1	0

File: GaN_sample D_spot 18_UVVIS_170 K_200um_550 ms 2x2mm1_91.txt
340.368	1	-6
341.565	1	15
342.763	1	3
343.960	1	3
345.157	1	3
346.354	1	0
347.552	1	11
348.749	1	12
349.946	1	11
351.143	1	6
352.340	1	12
353.537	1	9
354.734	1	6
355.931	1	4
357.127	1	8
358.324	1	20
359.521	1	23
360.718	1	24
361.914	1	30
363.111	1	56
364.308	1	68
365.504	1	88
366.701	1	109
367.897	1	114
369.093	1	114
370.290	1	118
371.486	1	88
372.682	1	87
373.879	1	79
375.075	1	57
376.271	1	55
377.467	1	57
378.663	1	39
379.859	1	30
381.055	1	33
382.251	1	22
383.447	1	25
384.643	1	18
385.839	1	16
387.035	1	17
388.230	1	19
389.426	1	7
390.622	1	4
391.817	1	9
393.013	1	9
394.208	1	17
395.404	1	14
396.599	1	2
397.795	1	1
398.990	1	5
400.186	1	-6
401.381	1	19
402.576	1	3
403.771	1	7
404.967	1	7
406.162	1	0
407.357	1	-3
408.552	1	2
409.747	1	5
410.942	1	6
412.137	1	-5
413.332	1	6
414.526	1	8
415.721	1	1
416.916	1	-4
418.111	1	4
419.305	1	-2
420.500	1	-4
421.695	1	4
422.889	1	-3
424.084	1	19
425.278	1	2
426.472	1	5
427.667	1	6
428.861	1	5
430.055	1	4
431.250	1	16
432.444	1	6
433.638	1	8
434.832	1	15
436.026	1	-3
437.220	1	5
438.414	1	-4
439.608	1	7
440.802	1	13
441.996	1	6
443.190	1	6
444.384	1	3
445.578	1	6
446.771	1	-1
447.965	1	0
449.159	1	2
450.352	1	-5
451.546	1	2
452.739	1	13
453.933	1	2
455.126	1	9
456.320	1	-3
457.513	1	15
458.706	1	3
459.899	1	1
461.093	1	11
462.286	1	-3
463.479	1	0
464.672	1	8
465.865	1	9
467.058	1	11
468.251	1	5
469.444	1	1
470.637	1	3
471.830	1	-6
473.023	1	8
474.215	1	3
475.408	1	9
476.601	1	2
477.793	1	9
478.986	1	-4
480.179	1	3
481.371	1	3
482.564	1	2
483.756	1	5
484.948	1	0
486.141	1	16
487.333	1	1
488.525	1	9
489.718	1	16
490.910	1	10
492.102	1	8
493.294	1	5
494.486	1	11
495.678	1	12
496.870	1	9
498.062	1	14
499.254	1	11
500.446	1	14
501.638	1	4
502.829	1	17
504.021	1	7
505.213	1	13
506.404	1	12
507.596	1	18
508.788	1	-2
509.979	1	27
511.171	1	22
512.362	1	4
513.553	1	16
514.745	1	21
515.936	1	12
517.127	1	18
518.319	1	24
519.510	1	22
520.701	1	18
521.892	1	20
523.083	1	15
524.274	1	18
525.465	1	24
526.656	1	26
527.847	1	21
529.038	1	11
530.229	1	31
531.419	1	29
532.610	1	14
533.801	1	22
534.991	1	17
536.182	1	14
537.373	1	10
538.563	1	18
539.754	1	3
540.944	1	14
542.134	1	15
543.325	1	14
544.515	1	20
545.705	1	22
546.896	1	12
548.086	1	15
549.276	1	19
550.466	1	6
551.656	1	15
552.846	1	12
554.036	1	16
555.226	1	1
556.416	1	13
557.606	1	17
558.796	1	9
559.986	1	19
561.175	1	4
562.365	1	12
563.555	1	13
564.744	1	20
565.934	1	7
567.123	1	12
568.313	1	2
569.502	1	2
570.692	1	17
571.881	1	12
573.070	1	6
574.260	1	13
575.449	1	13
576.638	1	15
577.827	1	0
579.016	1	12
580.205	1	-5
581.394	1	9
582.583	1	9
583.772	1	14
584.961	1	7
586.150	1	5
587.339	1	5
588.528	1	2
589.717	1	14
590.905	1	12
592.094	1	14
593.283	1	16
594.471	1	8
595.660	1	1
596.848	1	8
598.037	1	4
599.225	1	15
600.413	1	8
601.602	1	8
602.790	1	9
603.978	1	16
605.166	1	7
606.355	1	11
607.543	1	9
608.731	1	8
609.919	1	4
611.107	1	4
612.295	1	5
613.483	1	3
614.671	1	4
615.858	1	-2
617.046	1	4
618.234	1	6
619.422	1	-1
620.609	1	7
621.797	1	2
622.985	1	5
624.172	1	-3
625.360	1	12
626.547	1	2
627.735	1	-8
628.922	1	-17
630.109	1	-4
631.297	1	4
632.484	1	6
633.671	1	-2
634.858	1	10
636.045	1	9
637.232	1	4
638.419	1	-5
639.606	1	-7
640.793	1	2
641.980	1	2
643.167	1	-4
644.354	1	3
645.541	1	6
646.728	1	5
647.914	1	1
649.101	1	1
650.288	1	8
651.474	1	14
652.661	1	4
653.847	1	6
655.034	1	-5
656.220	1	7
657.406	1	3
658.593	1	1
659.779	1	-1
660.965	1	14
662.152	1	-3
663.338	1	4
664.524	1	11
665.710	1	-4
666.896	1	-10
668.082	1	5
669.268	1	-3
670.454	1	-13
671.640	1	9
672.826	1	3
674.011	1	5
675.197	1	7
676.383	1	3
677.569	1	-2
678.754	1	4
679.940	1	12
681.125	1	13
682.311	1	1
683.496	1	7
684.682	1	14
685.867	1	3
687.053	1	3
688.238	1	-6
688.746	1	4

File: GaN_sample D_spot 18_UVVIS_170 K_200um_550 ms 2x2mm1_93.txt
340.368	1	-2
341.565	1	-1
342.763	1	2
343.960	1	-3
345.157	1	-3
346.354	1	8
347.552	1	12
348.749	1	9
349.946	1	11
351.143	1	3
352.340	1	8
353.537	1	10
354.734	1	10
355.931	1	7
357.127	1	11
358.324	1	15
359.521	1	26
360.718	1	26
361.914	1	44
363.111	1	53
364.308	1	66
365.504	1	81
366.701	1	87
367.897	1	111
369.093	1	109
370.290	1	100
371.486	1	92
372.682	1	74
373.879	1	70
375.075	1	59
376.271	1	48
377.467	1	45
378.663	1	44
379.859	1	36
381.055	1	37
382.251	1	20
383.447	1	29
384.643	1	14
385.839	1	11
387.035	1	15
388.230	1	9
389.426	1	15
390.622	1	6
391.817	1	17
393.013	1	0
394.208	1	15
395.404	1	18
396.599	1	2
397.795	1	4
398.990	1	-7
400.186	1	4
401.381	1	8
402.576	1	-4
403.771	1	7
404.967	1	4
406.162	1	15
407.357	1	11
408.552	1	6
409.747	1	-3
410.942	1	3
412.137	1	-1
413.332	1	-1
414.526	1	4
415.721	1	4
416.916	1	-4
418.111	1	18
419.305	1	4
420.500	1	-2
421.695	1	-2
422.889	1	4
424.084	1	16
425.278	1	4
426.472	1	-7
427.667	1	13
428.861	1	1
430.055	1	5
431.250	1	16
432.444	1	3
433.638	1	10
434.832	1	11
436.026	1	0
437.220	1	6
438.414	1	-1
439.608	1	0
440.802	1	8
441.996	1	1
443.190	1	1
444.384	1	-3
445.578	1	6
446.771	1	-11
447.965	1	3
449.159	1	-1
450.352	1	2
451.546	1	-6
452.739	1	2
453.933	1	14
455.126	1	16
456.320	1	4
457.513	1	15
458.706	1	11
459.899	1	5
461.093	1	10
462.286	1	5
463.479	1	-4
464.672	1	7
465.865	1	5
467.058	1	0
468.251	1	4
469.444	1	2
470.637	1	11
471.830	1	9
473.023	1	0
474.215	1	8
475.408	1	2
476.601	1	5
477.793	1	2
478.986	1	4
480.179	1	5
481.371	1	6
482.564	1	-4
483.756	1	5
484.948	1	1
486.141	1	18
487.333	1	3
488.525	1	18
489.718	1	11
490.910	1	0
492.102	1	6
493.294	1	8
494.486	1	14
495.678	1	8
496.870	1	5
498.062	1	7
499.254	1	20
500.446	1	9
501.638	1	3
502.829	1	13
504.021	1	22
505.213	1	11
506.404	1	12
507.596	1	8
508.788	1	6
509.979	1	18
511.171	1	16
512.362	1	14
513.553	1	10
514.745	1	0
515.936	1	13
517.127	1	13
518.319	1	22
519.510	1	26
520.701	1	27
521.892	1	20
523.083	1	14
524.274	1	19
525.465	1	15
526.656	1	24
527.847	1	15
529.038	1	15
530.229	1	33
531.419	1	20
532.610	1	20
533.801	1	22
534.991	1	10
536.182	1	18
537.373	1	21
538.563	1	18
539.754	1	9
540.944	1	5
542.134	1	19
543.325	1	14
544.515	1	24
545.705	1	26
546.896	1	17
548.086	1	22
549.276	1	15
550.466	1	9
551.656	1	22
552.846	1	15
554.036	1	19
555.226	1	11
556.416	1	9
557.606	1	16
558.796	1	11
559.986	1	13
561.175	1	-2
562.365	1	19
563.555	1	8
564.744	1	18
565.934	1	15
567.123	1	10
568.313	1	11
569.502	1	9
570.692	1	22
571.881	1	1
573.070	1	6
574.260	1	21
575.449	1	6
576.638	1	9
577.827	1	3
579.016	1	3
580.205	1	11
581.394	1	11
582.583	1	13
583.772	1	9
584.961	1	4
586.150	1	8
587.339	1	-3
588.528	1	4
589.717	1	4
590.905	1	14
592.094	1	14
593.283	1	9
594.471	1	11
595.660	1	6
596.848	1	11
598.037	1	2
599.225	1	6
600.413	1	6
601.602	1	8
602.790	1	18
603.978	1	7
605.166	1	15
606.355	1	8
607.543	1	15
608.731	1	8
609.919	1	-1
611.107	1	-9
612.295	1	4
613.483	1	3
614.671	1	13
615.858	1	1
617.046	1	4
618.234	1	2
619.422	1	1
620.609	1	10
621.797	1	11
622.985	1	3
624.172	1	2
625.360	1	9
626.547	1	-3
627.735	1	0
628.922	1	-2
630.109	1	6
631.297	1	-2
632.484	1	-3
633.671	1	18
634.858	1	1
636.045	1	11
637.232	1	7
638.419	1	-4
639.606	1	-8
640.793	1	2
641.980	1	1
643.167	1	6
644.354	1	10
645.541	1	7
646.728	1	2
647.914	1	4
649.101	1	6
650.288	1	-4
651.474	1	3
652.661	1	10
653.847	1	3
655.034	1	-10
656.220	1	11
657.406	1	6
658.593	1	-7
659.779	1	-2
660.965	1	9
662.152	1	5
663.338	1	11
664.524	1	13
665.710	1	2
666.896	1	4
668.082	1	15
669.268	1	3
670.454	1	4
671.640	1	6
672.826	1	6
674.011	1	3
675.197	1	6
676.383	1	7
677.569	1	0
678.754	1	5
679.940	1	6
681.125	1	8
682.311	1	10
683.496	1	9
684.682	1	14
685.867	1	6
687.053	1	-6
688.238	1	2
688.746	1	-2

File: GaN_sample D_spot 18_UVVIS_170 K_200um_550 ms 2x2mm1_94.txt
340.368	1	3
341.565	1	7
342.763	1	2
343.960	1	-3
345.157	1	3
346.354	1	-3
347.552	1	5
348.749	1	14
349.946	1	10
351.143	1	2
352.340	1	11
353.537	1	17
354.734	1	10
355.931	1	18
357.127	1	16
358.324	1	20
359.521	1	26
360.718	1	22
361.914	1	23
363.111	1	54
364.308	1	65
365.504	1	65
366.701	1	97
367.897	1	105
369.093	1	96
370.290	1	99
371.486	1	82
372.682	1	77
373.879	1	69
375.075	1	42
376.271	1	60
377.467	1	57
378.663	1	38
379.859	1	32
381.055	1	31
382.251	1	21
383.447	1	25
384.643	1	11
385.839	1	12
387.035	1	16
388.230	1	4
389.426	1	11
390.622	1	6
391.817	1	15
393.013	1	8
394.208	1	13
395.404	1	12
396.599	1	-1
397.795	1	6
398.990	1	-4
400.186	1	0
401.381	1	14
402.576	1	9
403.771	1	6
404.967	1	6
406.162	1	19
407.357	1	7
408.552	1	-3
409.747	1	2
410.942	1	3
412.137	1	-7
413.332	1	2
414.526	1	1
415.721	1	-6
416.916	1	-2
418.111	1	10
419.305	1	-1
420.500	1	3
421.695	1	-4
422.889	1	2
424.084	1	16
425.278	1	7
426.472	1	-1
427.667	1	3
428.861	1	-5
430.055	1	0
431.250	1	18
432.444	1	4
433.638	1	9
434.832	1	6
436.026	1	10
437.220	1	1
438.414	1	2
439.608	1	5
440.802	1	15
441.996	1	-1
443.190	1	2
444.384	1	4
445.578	1	8
446.771	1	-9
447.965	1	2
449.159	1	-3
450.352	1	-6
451.546	1	-9
452.739	1	0
453.933	1	2
455.126	1	7
456.320	1	0
457.513	1	6
458.706	1	8
459.899	1	-1
461.093	1	10
462.286	1	0
463.479	1	-1
464.672	1	6
465.865	1	8
467.058	1	5
468.251	1	-2
469.444	1	-4
470.637	1	8
471.830	1	-4
473.023	1	4
474.215	1	0
475.408	1	-7
476.601	1	8
477.793	1	13
478.986	1	2
480.179	1	0
481.371	1	0
482.564	1	-3
483.756	1	16
484.948	1	-2
486.141	1	9
487.333	1	-1
488.525	1	11
489.718	1	12
490.910	1	7
492.102	1	8
493.294	1	5
494.486	1	8
495.678	1	9
496.870	1	-2
498.062	1	6
499.254	1	14
500.446	1	9
501.638	1	13
502.829	1	13
504.021	1	13
505.213	1	15
506.404	1	19
507.596	1	23
508.788	1	4
509.979	1	19
511.171	1	16
512.362	1	18
513.553	1	17
514.745	1	6
515.936	1	13
517.127	1	24
518.319	1	12
519.510	1	19
520.701	1	16
521.892	1	14
523.083	1	9
524.274	1	11
525.465	1	15
526.656	1	22
527.847	1	24
529.038	1	15
530.229	1	27
531.419	1	22
532.610	1	19
533.801	1	19
534.991	1	13
536.182	1	12
537.373	1	5
538.563	1	18
539.754	1	17
540.944	1	8
542.134	1	12
543.325	1	15
544.515	1	21
545.705	1	10
546.896	1	23
548.086	1	17
549.276	1	17
550.466	1	20
551.656	1	10
552.846	1	14
554.036	1	11
555.226	1	5
556.416	1	10
557.606	1	14
558.796	1	12
559.986	1	15
561.175	1	-2
562.365	1	9
563.555	1	8
564.744	1	15
565.934	1	19
567.123	1	20
568.313	1	4
569.502	1	8
570.692	1	16
571.881	1	2
573.070	1	3
574.260	1	15
575.449	1	13
576.638	1	16
577.827	1	6
579.016	1	7
580.205	1	1
581.394	1	7
582.583	1	8
583.772	1	3
584.961	1	4
586.150	1	6
587.339	1	1
588.528	1	-2
589.717	1	16
590.905	1	10
592.094	1	11
593.283	1	16
594.471	1	13
595.660	1	8
596.848	1	12
598.037	1	-4
599.225	1	8
600.413	1	2
601.602	1	4
602.790	1	16
603.978	1	9
605.166	1	11
606.355	1	11
607.543	1	11
608.731	1	11
609.919	1	2
611.107	1	0
612.295	1	8
613.483	1	3
614.671	1	6
615.858	1	6
617.046	1	0
618.234	1	12
619.422	1	-5
620.609	1	7
621.797	1	5
622.985	1	5
624.172	1	0
625.360	1	1
626.547	1	-6
627.735	1	-6
628.922	1	-10
630.109	1	3
631.297	1	3
632.484	1	1
633.671	1	5
634.858	1	12
636.045	1	10
637.232	1	2
638.419	1	-2
639.606	1	-7
640.793	1	-1
641.980	1	2
643.167	1	0
644.354	1	4
645.541	1	8
646.728	1	18
647.914	1	9
649.101	1	10
650.288	1	11
651.474	1	6
652.661	1	6
653.847	1	-4
655.034	1	3
656.220	1	4
657.406	1	-2
658.593	1	7
659.779	1	4
660.965	1	17
662.152	1	6
663.338	1	8
664.524	1	7
665.710	1	5
666.896	1	5
668.082	1	11
669.268	1	4
670.454	1	-6
671.640	1	7
672.826	1	2
674.011	1	4
675.197	1	17
676.383	1	-1
677.569	1	8
678.754	1	10
679.940	1	14
681.125	1	13
682.311	1	5
683.496	1	15
684.682	1	8
685.867	1	4
687.053	1	1
688.238	1	-5
688.746	1	0

File: GaN_sample D_spot 18_UVVIS_170 K_200um_550 ms 2x2mm1_96.txt
340.368	1	3
341.565	1	-3
342.763	1	0
343.960	1	0
345.157	1	7
346.354	1	-3
347.552	1	4
348.749	1	4
349.946	1	10
351.143	1	9
352.340	1	11
353.537	1	13
354.734	1	13
355.931	1	10
357.127	1	4
358.324	1	22
359.521	1	23
360.718	1	23
361.914	1	36
363.111	1	60
364.308	1	57
365.504	1	73
366.701	1	83
367.897	1	102
369.093	1	101
370.290	1	96
371.486	1	79
372.682	1	75
373.879	1	66
375.075	1	57
376.271	1	52
377.467	1	35
378.663	1	44
379.859	1	41
381.055	1	35
382.251	1	30
383.447	1	28
384.643	1	15
385.839	1	10
387.035	1	8
388.230	1	7
389.426	1	11
390.622	1	7
391.817	1	15
393.013	1	11
394.208	1	16
395.404	1	14
396.599	1	-2
397.795	1	-1
398.990	1	5
400.186	1	5
401.381	1	13
402.576	1	8
403.771	1	-4
404.967	1	2
406.162	1	11
407.357	1	4
408.552	1	7
409.747	1	-3
410.942	1	2
412.137	1	7
413.332	1	-1
414.526	1	3
415.721	1	0
416.916	1	-1
418.111	1	7
419.305	1	10
420.500	1	-1
421.695	1	-4
422.889	1	3
424.084	1	13
425.278	1	0
426.472	1	1
427.667	1	13
428.861	1	6
430.055	1	2
431.250	1	17
432.444	1	14
433.638	1	4
434.832	1	-1
436.026	1	3
437.220	1	-2
438.414	1	-2
439.608	1	0
440.802	1	12
441.996	1	2
443.190	1	1
444.384	1	5
445.578	1	6
446.771	1	1
447.965	1	-1
449.159	1	-12
450.352	1	0
451.546	1	-4
452.739	1	11
453.933	1	1
455.126	1	8
456.320	1	8
457.513	1	17
458.706	1	5
459.899	1	9
461.093	1	12
462.286	1	5
463.479	1	1
464.672	1	-2
465.865	1	0
467.058	1	8
468.251	1	6
469.444	1	0
470.637	1	3
471.830	1	4
473.023	1	4
474.215	1	11
475.408	1	2
476.601	1	6
477.793	1	3
478.986	1	8
480.179	1	2
481.371	1	1
482.564	1	3
483.756	1	5
484.948	1	7
486.141	1	8
487.333	1	4
488.525	1	15
489.718	1	6
490.910	1	8
492.102	1	3
493.294	1	9
494.486	1	23
495.678	1	1
496.870	1	9
498.062	1	9
499.254	1	15
500.446	1	8
501.638	1	1
502.829	1	19
504.021	1	19
505.213	1	11
506.404	1	15
507.596	1	20
508.788	1	9
509.979	1	17
511.171	1	17
512.362	1	14
513.553	1	17
514.745	1	18
515.936	1	18
517.127	1	19
518.319	1	17
519.510	1	16
520.701	1	22
521.892	1	19
523.083	1	9
524.274	1	4
525.465	1	11
526.656	1	27
527.847	1	12
529.038	1	9
530.229	1	32
531.419	1	25
532.610	1	13
533.801	1	25
534.991	1	10
536.182	1	13
537.373	1	11
538.563	1	20
539.754	1	8
540.944	1	8
542.134	1	8
543.325	1	20
544.515	1	19
545.705	1	19
546.896	1	14
548.086	1	11
549.276	1	16
550.466	1	15
551.656	1	15
552.846	1	16
554.036	1	10
555.226	1	2
556.416	1	7
557.606	1	17
558.796	1	11
559.986	1	15
561.175	1	3
562.365	1	12
563.555	1	5
564.744	1	12
565.934	1	12
567.123	1	10
568.313	1	6
569.502	1	10
570.692	1	11
571.881	1	8
573.070	1	12
574.260	1	11
575.449	1	14
576.638	1	12
577.827	1	6
579.016	1	0
580.205	1	-5
581.394	1	12
582.583	1	1
583.772	1	4
584.961	1	11
586.150	1	-1
587.339	1	2
588.528	1	12
589.717	1	8
590.905	1	15
592.094	1	7
593.283	1	8
594.471	1	16
595.660	1	6
596.848	1	9
598.037	1	5
599.225	1	6
600.413	1	-2
601.602	1	9
602.790	1	10
603.978	1	-3
605.166	1	6
606.355	1	10
607.543	1	10
608.731	1	5
609.919	1	2
611.107	1	-1
612.295	1	0
613.483	1	-3
614.671	1	10
615.858	1	0
617.046	1	-2
618.234	1	4
619.422	1	5
620.609	1	6
621.797	1	7
622.985	1	6
624.172	1	5
625.360	1	8
626.547	1	1
627.735	1	-5
628.922	1	2
630.109	1	0
631.297	1	-5
632.484	1	5
633.671	1	10
634.858	1	2
636.045	1	7
637.232	1	1
638.419	1	0
639.606	1	-5
640.793	1	5
641.980	1	-4
643.167	1	4
644.354	1	2
645.541	1	2
646.728	1	17
647.914	1	3
649.101	1	4
650.288	1	9
651.474	1	5
652.661	1	4
653.847	1	5
655.034	1	1
656.220	1	4
657.406	1	8
658.593	1	6
659.779	1	2
660.965	1	8
662.152	1	3
663.338	1	12
664.524	1	8
665.710	1	2
666.896	1	3
668.082	1	16
669.268	1	-2
670.454	1	-6
671.640	1	6
672.826	1	0
674.011	1	12
675.197	1	0
676.383	1	-1
677.569	1	2
678.754	1	8
679.940	1	14
681.125	1	10
682.311	1	-4
683.496	1	1
684.682	1	6
685.867	1	14
687.053	1	-9
688.238	1	6
688.746	1	-8