Folder: cryo-il_analysis/Data/GaN_170K_550ms (part 6)

File: GaN_sample D_spot 18_UVVIS_170 K_200um_550 ms 2x2mm1_70.txt
340.368	1	-9
341.565	1	10
342.763	1	7
343.960	1	10
345.157	1	5
346.354	1	-2
347.552	1	13
348.749	1	10
349.946	1	23
351.143	1	3
352.340	1	7
353.537	1	14
354.734	1	18
355.931	1	19
357.127	1	25
358.324	1	34
359.521	1	35
360.718	1	52
361.914	1	78
363.111	1	108
364.308	1	149
365.504	1	208
366.701	1	267
367.897	1	299
369.093	1	316
370.290	1	301
371.486	1	227
372.682	1	200
373.879	1	159
375.075	1	135
376.271	1	124
377.467	1	98
378.663	1	79
379.859	1	66
381.055	1	44
382.251	1	49
383.447	1	54
384.643	1	39
385.839	1	29
387.035	1	35
388.230	1	32
389.426	1	25
390.622	1	16
391.817	1	31
393.013	1	17
394.208	1	20
395.404	1	18
396.599	1	9
397.795	1	6
398.990	1	-2
400.186	1	6
401.381	1	19
402.576	1	9
403.771	1	2
404.967	1	15
406.162	1	9
407.357	1	11
408.552	1	9
409.747	1	3
410.942	1	5
412.137	1	7
413.332	1	4
414.526	1	11
415.721	1	-1
416.916	1	-5
418.111	1	13
419.305	1	0
420.500	1	5
421.695	1	-6
422.889	1	-3
424.084	1	22
425.278	1	3
426.472	1	2
427.667	1	1
428.861	1	12
430.055	1	4
431.250	1	20
432.444	1	6
433.638	1	11
434.832	1	6
436.026	1	0
437.220	1	5
438.414	1	4
439.608	1	4
440.802	1	9
441.996	1	10
443.190	1	5
444.384	1	9
445.578	1	5
446.771	1	-4
447.965	1	1
449.159	1	5
450.352	1	-3
451.546	1	0
452.739	1	13
453.933	1	0
455.126	1	16
456.320	1	0
457.513	1	13
458.706	1	7
459.899	1	-3
461.093	1	19
462.286	1	1
463.479	1	-6
464.672	1	7
465.865	1	16
467.058	1	4
468.251	1	-1
469.444	1	13
470.637	1	0
471.830	1	6
473.023	1	14
474.215	1	7
475.408	1	5
476.601	1	9
477.793	1	13
478.986	1	-2
480.179	1	-2
481.371	1	6
482.564	1	11
483.756	1	23
484.948	1	9
486.141	1	14
487.333	1	8
488.525	1	14
489.718	1	13
490.910	1	15
492.102	1	15
493.294	1	15
494.486	1	27
495.678	1	16
496.870	1	17
498.062	1	23
499.254	1	25
500.446	1	25
501.638	1	21
502.829	1	19
504.021	1	35
505.213	1	22
506.404	1	36
507.596	1	36
508.788	1	25
509.979	1	38
511.171	1	42
512.362	1	30
513.553	1	34
514.745	1	37
515.936	1	41
517.127	1	42
518.319	1	49
519.510	1	47
520.701	1	53
521.892	1	42
523.083	1	40
524.274	1	46
525.465	1	49
526.656	1	44
527.847	1	43
529.038	1	45
530.229	1	58
531.419	1	47
532.610	1	49
533.801	1	50
534.991	1	36
536.182	1	38
537.373	1	34
538.563	1	37
539.754	1	36
540.944	1	23
542.134	1	39
543.325	1	42
544.515	1	37
545.705	1	58
546.896	1	46
548.086	1	36
549.276	1	37
550.466	1	48
551.656	1	48
552.846	1	41
554.036	1	39
555.226	1	29
556.416	1	37
557.606	1	38
558.796	1	37
559.986	1	36
561.175	1	15
562.365	1	41
563.555	1	27
564.744	1	30
565.934	1	30
567.123	1	21
568.313	1	27
569.502	1	21
570.692	1	27
571.881	1	12
573.070	1	41
574.260	1	25
575.449	1	19
576.638	1	22
577.827	1	17
579.016	1	14
580.205	1	13
581.394	1	20
582.583	1	16
583.772	1	15
584.961	1	7
586.150	1	14
587.339	1	14
588.528	1	10
589.717	1	11
590.905	1	24
592.094	1	18
593.283	1	15
594.471	1	8
595.660	1	15
596.848	1	19
598.037	1	14
599.225	1	17
600.413	1	13
601.602	1	8
602.790	1	23
603.978	1	17
605.166	1	25
606.355	1	18
607.543	1	14
608.731	1	14
609.919	1	6
611.107	1	5
612.295	1	6
613.483	1	4
614.671	1	11
615.858	1	5
617.046	1	7
618.234	1	8
619.422	1	2
620.609	1	15
621.797	1	3
622.985	1	14
624.172	1	1
625.360	1	3
626.547	1	14
627.735	1	-6
628.922	1	1
630.109	1	11
631.297	1	2
632.484	1	5
633.671	1	15
634.858	1	9
636.045	1	9
637.232	1	8
638.419	1	-3
639.606	1	-5
640.793	1	-2
641.980	1	1
643.167	1	1
644.354	1	7
645.541	1	7
646.728	1	10
647.914	1	5
649.101	1	10
650.288	1	7
651.474	1	10
652.661	1	10
653.847	1	5
655.034	1	7
656.220	1	5
657.406	1	12
658.593	1	9
659.779	1	7
660.965	1	23
662.152	1	11
663.338	1	11
664.524	1	8
665.710	1	6
666.896	1	5
668.082	1	15
669.268	1	-3
670.454	1	-1
671.640	1	9
672.826	1	2
674.011	1	11
675.197	1	18
676.383	1	3
677.569	1	3
678.754	1	8
679.940	1	11
681.125	1	6
682.311	1	7
683.496	1	7
684.682	1	11
685.867	1	12
687.053	1	-1
688.238	1	2
688.746	1	0

File: GaN_sample D_spot 18_UVVIS_170 K_200um_550 ms 2x2mm1_71.txt
340.368	1	-2
341.565	1	11
342.763	1	8
343.960	1	-2
345.157	1	0
346.354	1	-8
347.552	1	18
348.749	1	13
349.946	1	7
351.143	1	7
352.340	1	2
353.537	1	12
354.734	1	18
355.931	1	21
357.127	1	29
358.324	1	30
359.521	1	43
360.718	1	47
361.914	1	68
363.111	1	91
364.308	1	146
365.504	1	189
366.701	1	243
367.897	1	282
369.093	1	273
370.290	1	273
371.486	1	230
372.682	1	177
373.879	1	158
375.075	1	123
376.271	1	99
377.467	1	83
378.663	1	85
379.859	1	65
381.055	1	59
382.251	1	44
383.447	1	45
384.643	1	34
385.839	1	32
387.035	1	36
388.230	1	34
389.426	1	21
390.622	1	16
391.817	1	22
393.013	1	20
394.208	1	18
395.404	1	23
396.599	1	13
397.795	1	2
398.990	1	3
400.186	1	3
401.381	1	11
402.576	1	6
403.771	1	3
404.967	1	11
406.162	1	7
407.357	1	2
408.552	1	10
409.747	1	8
410.942	1	23
412.137	1	-4
413.332	1	7
414.526	1	8
415.721	1	-4
416.916	1	1
418.111	1	15
419.305	1	5
420.500	1	9
421.695	1	-9
422.889	1	3
424.084	1	20
425.278	1	2
426.472	1	4
427.667	1	13
428.861	1	14
430.055	1	6
431.250	1	15
432.444	1	5
433.638	1	6
434.832	1	18
436.026	1	-2
437.220	1	5
438.414	1	-2
439.608	1	2
440.802	1	6
441.996	1	2
443.190	1	11
444.384	1	0
445.578	1	7
446.771	1	-1
447.965	1	4
449.159	1	-4
450.352	1	-2
451.546	1	-9
452.739	1	3
453.933	1	6
455.126	1	5
456.320	1	5
457.513	1	12
458.706	1	12
459.899	1	2
461.093	1	14
462.286	1	-2
463.479	1	4
464.672	1	5
465.865	1	2
467.058	1	2
468.251	1	15
469.444	1	-1
470.637	1	12
471.830	1	-2
473.023	1	6
474.215	1	-8
475.408	1	2
476.601	1	3
477.793	1	12
478.986	1	9
480.179	1	4
481.371	1	8
482.564	1	7
483.756	1	9
484.948	1	1
486.141	1	16
487.333	1	6
488.525	1	23
489.718	1	22
490.910	1	19
492.102	1	15
493.294	1	10
494.486	1	24
495.678	1	27
496.870	1	11
498.062	1	18
499.254	1	23
500.446	1	22
501.638	1	10
502.829	1	26
504.021	1	37
505.213	1	25
506.404	1	33
507.596	1	36
508.788	1	19
509.979	1	38
511.171	1	34
512.362	1	43
513.553	1	33
514.745	1	36
515.936	1	36
517.127	1	42
518.319	1	42
519.510	1	41
520.701	1	40
521.892	1	42
523.083	1	44
524.274	1	38
525.465	1	45
526.656	1	51
527.847	1	45
529.038	1	40
530.229	1	47
531.419	1	53
532.610	1	46
533.801	1	41
534.991	1	31
536.182	1	33
537.373	1	31
538.563	1	34
539.754	1	35
540.944	1	37
542.134	1	36
543.325	1	39
544.515	1	32
545.705	1	51
546.896	1	42
548.086	1	43
549.276	1	43
550.466	1	42
551.656	1	40
552.846	1	29
554.036	1	40
555.226	1	24
556.416	1	32
557.606	1	37
558.796	1	30
559.986	1	45
561.175	1	18
562.365	1	25
563.555	1	32
564.744	1	23
565.934	1	17
567.123	1	19
568.313	1	15
569.502	1	14
570.692	1	34
571.881	1	13
573.070	1	25
574.260	1	27
575.449	1	22
576.638	1	24
577.827	1	21
579.016	1	16
580.205	1	8
581.394	1	16
582.583	1	13
583.772	1	23
584.961	1	16
586.150	1	9
587.339	1	16
588.528	1	10
589.717	1	14
590.905	1	16
592.094	1	25
593.283	1	11
594.471	1	20
595.660	1	15
596.848	1	8
598.037	1	9
599.225	1	18
600.413	1	1
601.602	1	18
602.790	1	19
603.978	1	12
605.166	1	16
606.355	1	13
607.543	1	11
608.731	1	11
609.919	1	3
611.107	1	6
612.295	1	7
613.483	1	9
614.671	1	14
615.858	1	13
617.046	1	-1
618.234	1	8
619.422	1	4
620.609	1	7
621.797	1	15
622.985	1	11
624.172	1	12
625.360	1	11
626.547	1	-1
627.735	1	-3
628.922	1	-2
630.109	1	10
631.297	1	0
632.484	1	-2
633.671	1	14
634.858	1	4
636.045	1	4
637.232	1	8
638.419	1	6
639.606	1	-2
640.793	1	-3
641.980	1	-3
643.167	1	8
644.354	1	4
645.541	1	10
646.728	1	4
647.914	1	9
649.101	1	4
650.288	1	3
651.474	1	12
652.661	1	10
653.847	1	12
655.034	1	5
656.220	1	-1
657.406	1	7
658.593	1	4
659.779	1	4
660.965	1	6
662.152	1	-3
663.338	1	11
664.524	1	15
665.710	1	4
666.896	1	11
668.082	1	16
669.268	1	3
670.454	1	0
671.640	1	12
672.826	1	4
674.011	1	12
675.197	1	15
676.383	1	4
677.569	1	5
678.754	1	4
679.940	1	9
681.125	1	15
682.311	1	1
683.496	1	7
684.682	1	9
685.867	1	16
687.053	1	6
688.238	1	2
688.746	1	-9

File: GaN_sample D_spot 18_UVVIS_170 K_200um_550 ms 2x2mm1_72.txt
340.368	1	1
341.565	1	6
342.763	1	7
343.960	1	4
345.157	1	1
346.354	1	3
347.552	1	18
348.749	1	11
349.946	1	14
351.143	1	5
352.340	1	5
353.537	1	15
354.734	1	17
355.931	1	14
357.127	1	15
358.324	1	25
359.521	1	42
360.718	1	43
361.914	1	61
363.111	1	93
364.308	1	129
365.504	1	163
366.701	1	227
367.897	1	264
369.093	1	279
370.290	1	250
371.486	1	193
372.682	1	180
373.879	1	153
375.075	1	126
376.271	1	103
377.467	1	87
378.663	1	64
379.859	1	64
381.055	1	56
382.251	1	49
383.447	1	48
384.643	1	33
385.839	1	26
387.035	1	31
388.230	1	25
389.426	1	26
390.622	1	20
391.817	1	12
393.013	1	7
394.208	1	19
395.404	1	15
396.599	1	-5
397.795	1	11
398.990	1	5
400.186	1	-4
401.381	1	19
402.576	1	8
403.771	1	9
404.967	1	9
406.162	1	4
407.357	1	3
408.552	1	7
409.747	1	7
410.942	1	5
412.137	1	7
413.332	1	2
414.526	1	12
415.721	1	0
416.916	1	-6
418.111	1	11
419.305	1	7
420.500	1	7
421.695	1	-1
422.889	1	3
424.084	1	11
425.278	1	2
426.472	1	0
427.667	1	7
428.861	1	4
430.055	1	6
431.250	1	16
432.444	1	8
433.638	1	12
434.832	1	7
436.026	1	3
437.220	1	11
438.414	1	-4
439.608	1	3
440.802	1	13
441.996	1	8
443.190	1	3
444.384	1	5
445.578	1	6
446.771	1	-6
447.965	1	3
449.159	1	-1
450.352	1	-6
451.546	1	-12
452.739	1	7
453.933	1	3
455.126	1	16
456.320	1	1
457.513	1	17
458.706	1	13
459.899	1	6
461.093	1	13
462.286	1	12
463.479	1	-1
464.672	1	-2
465.865	1	8
467.058	1	5
468.251	1	9
469.444	1	9
470.637	1	4
471.830	1	1
473.023	1	16
474.215	1	9
475.408	1	5
476.601	1	4
477.793	1	14
478.986	1	3
480.179	1	2
481.371	1	9
482.564	1	8
483.756	1	14
484.948	1	11
486.141	1	17
487.333	1	3
488.525	1	28
489.718	1	14
490.910	1	7
492.102	1	14
493.294	1	6
494.486	1	18
495.678	1	15
496.870	1	14
498.062	1	18
499.254	1	31
500.446	1	29
501.638	1	19
502.829	1	30
504.021	1	24
505.213	1	23
506.404	1	33
507.596	1	39
508.788	1	25
509.979	1	40
511.171	1	39
512.362	1	36
513.553	1	38
514.745	1	26
515.936	1	32
517.127	1	38
518.319	1	34
519.510	1	46
520.701	1	40
521.892	1	46
523.083	1	46
524.274	1	46
525.465	1	42
526.656	1	45
527.847	1	38
529.038	1	34
530.229	1	47
531.419	1	50
532.610	1	45
533.801	1	42
534.991	1	38
536.182	1	45
537.373	1	36
538.563	1	37
539.754	1	32
540.944	1	30
542.134	1	33
543.325	1	39
544.515	1	23
545.705	1	38
546.896	1	24
548.086	1	45
549.276	1	35
550.466	1	41
551.656	1	38
552.846	1	36
554.036	1	43
555.226	1	30
556.416	1	31
557.606	1	21
558.796	1	34
559.986	1	28
561.175	1	16
562.365	1	24
563.555	1	29
564.744	1	22
565.934	1	24
567.123	1	16
568.313	1	14
569.502	1	16
570.692	1	18
571.881	1	7
573.070	1	11
574.260	1	17
575.449	1	18
576.638	1	22
577.827	1	13
579.016	1	17
580.205	1	20
581.394	1	15
582.583	1	14
583.772	1	1
584.961	1	14
586.150	1	13
587.339	1	15
588.528	1	10
589.717	1	9
590.905	1	13
592.094	1	17
593.283	1	10
594.471	1	17
595.660	1	12
596.848	1	10
598.037	1	18
599.225	1	15
600.413	1	-1
601.602	1	13
602.790	1	16
603.978	1	11
605.166	1	20
606.355	1	17
607.543	1	8
608.731	1	13
609.919	1	6
611.107	1	6
612.295	1	7
613.483	1	7
614.671	1	14
615.858	1	3
617.046	1	3
618.234	1	6
619.422	1	-1
620.609	1	1
621.797	1	5
622.985	1	5
624.172	1	4
625.360	1	2
626.547	1	-1
627.735	1	4
628.922	1	3
630.109	1	8
631.297	1	7
632.484	1	5
633.671	1	17
634.858	1	6
636.045	1	11
637.232	1	14
638.419	1	3
639.606	1	-7
640.793	1	4
641.980	1	-4
643.167	1	5
644.354	1	5
645.541	1	1
646.728	1	19
647.914	1	1
649.101	1	3
650.288	1	8
651.474	1	10
652.661	1	5
653.847	1	3
655.034	1	8
656.220	1	2
657.406	1	6
658.593	1	2
659.779	1	8
660.965	1	12
662.152	1	3
663.338	1	6
664.524	1	7
665.710	1	5
666.896	1	8
668.082	1	19
669.268	1	2
670.454	1	-3
671.640	1	7
672.826	1	9
674.011	1	10
675.197	1	12
676.383	1	3
677.569	1	1
678.754	1	9
679.940	1	9
681.125	1	18
682.311	1	7
683.496	1	7
684.682	1	16
685.867	1	10
687.053	1	5
688.238	1	1
688.746	1	8

File: GaN_sample D_spot 18_UVVIS_170 K_200um_550 ms 2x2mm1_73.txt
340.368	1	-4
341.565	1	-1
342.763	1	5
343.960	1	3
345.157	1	8
346.354	1	-3
347.552	1	14
348.749	1	2
349.946	1	10
351.143	1	7
352.340	1	11
353.537	1	10
354.734	1	16
355.931	1	11
357.127	1	17
358.324	1	27
359.521	1	37
360.718	1	48
361.914	1	60
363.111	1	95
364.308	1	112
365.504	1	161
366.701	1	212
367.897	1	259
369.093	1	252
370.290	1	230
371.486	1	202
372.682	1	162
373.879	1	140
375.075	1	121
376.271	1	98
377.467	1	85
378.663	1	71
379.859	1	58
381.055	1	55
382.251	1	43
383.447	1	38
384.643	1	38
385.839	1	23
387.035	1	25
388.230	1	28
389.426	1	25
390.622	1	17
391.817	1	21
393.013	1	10
394.208	1	17
395.404	1	15
396.599	1	11
397.795	1	12
398.990	1	2
400.186	1	2
401.381	1	11
402.576	1	6
403.771	1	8
404.967	1	6
406.162	1	10
407.357	1	7
408.552	1	3
409.747	1	6
410.942	1	13
412.137	1	0
413.332	1	1
414.526	1	9
415.721	1	1
416.916	1	-6
418.111	1	18
419.305	1	11
420.500	1	2
421.695	1	-5
422.889	1	1
424.084	1	13
425.278	1	5
426.472	1	11
427.667	1	13
428.861	1	9
430.055	1	0
431.250	1	10
432.444	1	7
433.638	1	0
434.832	1	12
436.026	1	3
437.220	1	3
438.414	1	5
439.608	1	6
440.802	1	8
441.996	1	12
443.190	1	1
444.384	1	4
445.578	1	16
446.771	1	-7
447.965	1	3
449.159	1	0
450.352	1	-1
451.546	1	-2
452.739	1	2
453.933	1	1
455.126	1	8
456.320	1	5
457.513	1	8
458.706	1	0
459.899	1	1
461.093	1	8
462.286	1	3
463.479	1	13
464.672	1	-6
465.865	1	1
467.058	1	4
468.251	1	9
469.444	1	-1
470.637	1	9
471.830	1	3
473.023	1	5
474.215	1	8
475.408	1	-4
476.601	1	10
477.793	1	14
478.986	1	1
480.179	1	3
481.371	1	11
482.564	1	6
483.756	1	12
484.948	1	9
486.141	1	21
487.333	1	14
488.525	1	28
489.718	1	21
490.910	1	13
492.102	1	21
493.294	1	14
494.486	1	23
495.678	1	14
496.870	1	20
498.062	1	14
499.254	1	18
500.446	1	17
501.638	1	9
502.829	1	22
504.021	1	27
505.213	1	20
506.404	1	25
507.596	1	26
508.788	1	21
509.979	1	32
511.171	1	40
512.362	1	34
513.553	1	41
514.745	1	27
515.936	1	29
517.127	1	37
518.319	1	35
519.510	1	43
520.701	1	44
521.892	1	36
523.083	1	42
524.274	1	34
525.465	1	40
526.656	1	45
527.847	1	36
529.038	1	40
530.229	1	51
531.419	1	50
532.610	1	40
533.801	1	48
534.991	1	32
536.182	1	39
537.373	1	35
538.563	1	27
539.754	1	34
540.944	1	24
542.134	1	30
543.325	1	36
544.515	1	30
545.705	1	35
546.896	1	40
548.086	1	31
549.276	1	35
550.466	1	40
551.656	1	35
552.846	1	35
554.036	1	34
555.226	1	17
556.416	1	34
557.606	1	28
558.796	1	22
559.986	1	34
561.175	1	12
562.365	1	39
563.555	1	30
564.744	1	29
565.934	1	23
567.123	1	17
568.313	1	25
569.502	1	16
570.692	1	23
571.881	1	21
573.070	1	15
574.260	1	21
575.449	1	15
576.638	1	21
577.827	1	19
579.016	1	20
580.205	1	11
581.394	1	12
582.583	1	12
583.772	1	14
584.961	1	6
586.150	1	11
587.339	1	13
588.528	1	12
589.717	1	15
590.905	1	15
592.094	1	21
593.283	1	17
594.471	1	19
595.660	1	13
596.848	1	10
598.037	1	18
599.225	1	21
600.413	1	5
601.602	1	16
602.790	1	17
603.978	1	14
605.166	1	18
606.355	1	11
607.543	1	19
608.731	1	9
609.919	1	4
611.107	1	8
612.295	1	4
613.483	1	8
614.671	1	22
615.858	1	7
617.046	1	1
618.234	1	11
619.422	1	6
620.609	1	7
621.797	1	7
622.985	1	16
624.172	1	2
625.360	1	10
626.547	1	5
627.735	1	-10
628.922	1	-5
630.109	1	5
631.297	1	3
632.484	1	-3
633.671	1	13
634.858	1	3
636.045	1	6
637.232	1	13
638.419	1	2
639.606	1	9
640.793	1	7
641.980	1	0
643.167	1	7
644.354	1	5
645.541	1	11
646.728	1	8
647.914	1	3
649.101	1	9
650.288	1	13
651.474	1	13
652.661	1	6
653.847	1	13
655.034	1	11
656.220	1	8
657.406	1	6
658.593	1	1
659.779	1	6
660.965	1	20
662.152	1	9
663.338	1	14
664.524	1	8
665.710	1	5
666.896	1	4
668.082	1	12
669.268	1	2
670.454	1	1
671.640	1	4
672.826	1	5
674.011	1	14
675.197	1	8
676.383	1	9
677.569	1	-1
678.754	1	13
679.940	1	17
681.125	1	15
682.311	1	3
683.496	1	14
684.682	1	13
685.867	1	4
687.053	1	10
688.238	1	1
688.746	1	10

File: GaN_sample D_spot 18_UVVIS_170 K_200um_550 ms 2x2mm1_75.txt
340.368	1	5
341.565	1	7
342.763	1	13
343.960	1	1
345.157	1	4
346.354	1	0
347.552	1	12
348.749	1	16
349.946	1	8
351.143	1	5
352.340	1	9
353.537	1	8
354.734	1	18
355.931	1	14
357.127	1	19
358.324	1	29
359.521	1	44
360.718	1	41
361.914	1	64
363.111	1	81
364.308	1	113
365.504	1	151
366.701	1	203
367.897	1	223
369.093	1	235
370.290	1	219
371.486	1	161
372.682	1	149
373.879	1	126
375.075	1	96
376.271	1	95
377.467	1	76
378.663	1	58
379.859	1	64
381.055	1	57
382.251	1	46
383.447	1	40
384.643	1	28
385.839	1	28
387.035	1	32
388.230	1	24
389.426	1	20
390.622	1	10
391.817	1	23
393.013	1	16
394.208	1	14
395.404	1	15
396.599	1	4
397.795	1	9
398.990	1	5
400.186	1	2
401.381	1	15
402.576	1	16
403.771	1	6
404.967	1	14
406.162	1	14
407.357	1	7
408.552	1	-2
409.747	1	8
410.942	1	-1
412.137	1	0
413.332	1	3
414.526	1	9
415.721	1	5
416.916	1	0
418.111	1	10
419.305	1	6
420.500	1	5
421.695	1	4
422.889	1	0
424.084	1	20
425.278	1	1
426.472	1	-3
427.667	1	12
428.861	1	-2
430.055	1	13
431.250	1	13
432.444	1	-2
433.638	1	9
434.832	1	11
436.026	1	0
437.220	1	8
438.414	1	-3
439.608	1	1
440.802	1	8
441.996	1	2
443.190	1	4
444.384	1	7
445.578	1	6
446.771	1	-7
447.965	1	3
449.159	1	3
450.352	1	-7
451.546	1	0
452.739	1	7
453.933	1	1
455.126	1	11
456.320	1	0
457.513	1	2
458.706	1	12
459.899	1	0
461.093	1	20
462.286	1	1
463.479	1	1
464.672	1	-7
465.865	1	5
467.058	1	0
468.251	1	2
469.444	1	-5
470.637	1	8
471.830	1	-1
473.023	1	5
474.215	1	14
475.408	1	5
476.601	1	4
477.793	1	11
478.986	1	4
480.179	1	7
481.371	1	-7
482.564	1	3
483.756	1	12
484.948	1	10
486.141	1	15
487.333	1	6
488.525	1	14
489.718	1	25
490.910	1	8
492.102	1	16
493.294	1	11
494.486	1	26
495.678	1	16
496.870	1	12
498.062	1	19
499.254	1	22
500.446	1	17
501.638	1	9
502.829	1	17
504.021	1	25
505.213	1	20
506.404	1	26
507.596	1	30
508.788	1	22
509.979	1	31
511.171	1	25
512.362	1	27
513.553	1	30
514.745	1	21
515.936	1	35
517.127	1	28
518.319	1	35
519.510	1	40
520.701	1	34
521.892	1	37
523.083	1	34
524.274	1	40
525.465	1	39
526.656	1	45
527.847	1	37
529.038	1	34
530.229	1	41
531.419	1	39
532.610	1	36
533.801	1	39
534.991	1	26
536.182	1	27
537.373	1	30
538.563	1	36
539.754	1	28
540.944	1	26
542.134	1	32
543.325	1	46
544.515	1	33
545.705	1	34
546.896	1	41
548.086	1	27
549.276	1	34
550.466	1	31
551.656	1	31
552.846	1	36
554.036	1	18
555.226	1	17
556.416	1	24
557.606	1	21
558.796	1	27
559.986	1	17
561.175	1	18
562.365	1	19
563.555	1	22
564.744	1	20
565.934	1	27
567.123	1	14
568.313	1	9
569.502	1	16
570.692	1	16
571.881	1	7
573.070	1	20
574.260	1	7
575.449	1	25
576.638	1	20
577.827	1	11
579.016	1	26
580.205	1	11
581.394	1	20
582.583	1	16
583.772	1	11
584.961	1	10
586.150	1	6
587.339	1	6
588.528	1	9
589.717	1	19
590.905	1	15
592.094	1	20
593.283	1	14
594.471	1	19
595.660	1	5
596.848	1	13
598.037	1	13
599.225	1	9
600.413	1	5
601.602	1	9
602.790	1	23
603.978	1	10
605.166	1	14
606.355	1	13
607.543	1	15
608.731	1	6
609.919	1	10
611.107	1	-2
612.295	1	5
613.483	1	3
614.671	1	9
615.858	1	3
617.046	1	11
618.234	1	1
619.422	1	6
620.609	1	10
621.797	1	8
622.985	1	11
624.172	1	6
625.360	1	11
626.547	1	1
627.735	1	5
628.922	1	3
630.109	1	-1
631.297	1	1
632.484	1	6
633.671	1	14
634.858	1	10
636.045	1	7
637.232	1	8
638.419	1	8
639.606	1	5
640.793	1	-2
641.980	1	-1
643.167	1	3
644.354	1	4
645.541	1	7
646.728	1	13
647.914	1	3
649.101	1	1
650.288	1	5
651.474	1	11
652.661	1	11
653.847	1	0
655.034	1	11
656.220	1	7
657.406	1	2
658.593	1	8
659.779	1	16
660.965	1	11
662.152	1	3
663.338	1	9
664.524	1	8
665.710	1	4
666.896	1	3
668.082	1	16
669.268	1	-2
670.454	1	0
671.640	1	4
672.826	1	4
674.011	1	10
675.197	1	5
676.383	1	0
677.569	1	4
678.754	1	11
679.940	1	7
681.125	1	7
682.311	1	6
683.496	1	10
684.682	1	7
685.867	1	13
687.053	1	2
688.238	1	6
688.746	1	2

File: GaN_sample D_spot 18_UVVIS_170 K_200um_550 ms 2x2mm1_76.txt
340.368	1	8
341.565	1	9
342.763	1	4
343.960	1	4
345.157	1	6
346.354	1	4
347.552	1	13
348.749	1	0
349.946	1	17
351.143	1	0
352.340	1	7
353.537	1	12
354.734	1	19
355.931	1	8
357.127	1	18
358.324	1	30
359.521	1	32
360.718	1	42
361.914	1	49
363.111	1	80
364.308	1	116
365.504	1	145
366.701	1	196
367.897	1	223
369.093	1	228
370.290	1	198
371.486	1	174
372.682	1	138
373.879	1	123
375.075	1	87
376.271	1	105
377.467	1	79
378.663	1	70
379.859	1	61
381.055	1	43
382.251	1	39
383.447	1	38
384.643	1	42
385.839	1	28
387.035	1	21
388.230	1	31
389.426	1	25
390.622	1	10
391.817	1	12
393.013	1	15
394.208	1	21
395.404	1	16
396.599	1	4
397.795	1	10
398.990	1	-2
400.186	1	6
401.381	1	15
402.576	1	12
403.771	1	11
404.967	1	9
406.162	1	8
407.357	1	0
408.552	1	9
409.747	1	4
410.942	1	12
412.137	1	2
413.332	1	2
414.526	1	4
415.721	1	3
416.916	1	-6
418.111	1	5
419.305	1	8
420.500	1	10
421.695	1	1
422.889	1	8
424.084	1	24
425.278	1	8
426.472	1	2
427.667	1	6
428.861	1	7
430.055	1	-4
431.250	1	14
432.444	1	4
433.638	1	13
434.832	1	8
436.026	1	1
437.220	1	4
438.414	1	1
439.608	1	7
440.802	1	11
441.996	1	3
443.190	1	5
444.384	1	9
445.578	1	8
446.771	1	-9
447.965	1	9
449.159	1	0
450.352	1	-7
451.546	1	-3
452.739	1	8
453.933	1	3
455.126	1	6
456.320	1	6
457.513	1	5
458.706	1	7
459.899	1	5
461.093	1	8
462.286	1	-2
463.479	1	-7
464.672	1	1
465.865	1	-3
467.058	1	13
468.251	1	9
469.444	1	9
470.637	1	8
471.830	1	4
473.023	1	11
474.215	1	8
475.408	1	8
476.601	1	6
477.793	1	11
478.986	1	2
480.179	1	1
481.371	1	5
482.564	1	4
483.756	1	10
484.948	1	-1
486.141	1	19
487.333	1	-3
488.525	1	13
489.718	1	26
490.910	1	14
492.102	1	10
493.294	1	8
494.486	1	20
495.678	1	14
496.870	1	16
498.062	1	12
499.254	1	24
500.446	1	15
501.638	1	19
502.829	1	20
504.021	1	23
505.213	1	15
506.404	1	18
507.596	1	31
508.788	1	14
509.979	1	21
511.171	1	26
512.362	1	15
513.553	1	36
514.745	1	24
515.936	1	27
517.127	1	37
518.319	1	46
519.510	1	39
520.701	1	35
521.892	1	39
523.083	1	30
524.274	1	34
525.465	1	40
526.656	1	37
527.847	1	37
529.038	1	36
530.229	1	46
531.419	1	47
532.610	1	42
533.801	1	42
534.991	1	31
536.182	1	20
537.373	1	25
538.563	1	38
539.754	1	39
540.944	1	24
542.134	1	35
543.325	1	32
544.515	1	26
545.705	1	27
546.896	1	28
548.086	1	37
549.276	1	38
550.466	1	27
551.656	1	32
552.846	1	21
554.036	1	29
555.226	1	14
556.416	1	25
557.606	1	24
558.796	1	17
559.986	1	32
561.175	1	19
562.365	1	21
563.555	1	25
564.744	1	17
565.934	1	14
567.123	1	20
568.313	1	11
569.502	1	16
570.692	1	25
571.881	1	7
573.070	1	16
574.260	1	21
575.449	1	18
576.638	1	16
577.827	1	9
579.016	1	12
580.205	1	10
581.394	1	5
582.583	1	11
583.772	1	5
584.961	1	11
586.150	1	9
587.339	1	11
588.528	1	15
589.717	1	11
590.905	1	12
592.094	1	17
593.283	1	12
594.471	1	11
595.660	1	6
596.848	1	6
598.037	1	12
599.225	1	9
600.413	1	13
601.602	1	9
602.790	1	17
603.978	1	12
605.166	1	15
606.355	1	9
607.543	1	17
608.731	1	6
609.919	1	13
611.107	1	7
612.295	1	4
613.483	1	2
614.671	1	11
615.858	1	10
617.046	1	8
618.234	1	6
619.422	1	-7
620.609	1	5
621.797	1	9
622.985	1	6
624.172	1	13
625.360	1	-3
626.547	1	4
627.735	1	-2
628.922	1	2
630.109	1	6
631.297	1	10
632.484	1	-2
633.671	1	5
634.858	1	7
636.045	1	16
637.232	1	2
638.419	1	-6
639.606	1	3
640.793	1	5
641.980	1	2
643.167	1	-4
644.354	1	9
645.541	1	5
646.728	1	11
647.914	1	6
649.101	1	5
650.288	1	5
651.474	1	-3
652.661	1	12
653.847	1	5
655.034	1	6
656.220	1	1
657.406	1	8
658.593	1	1
659.779	1	10
660.965	1	14
662.152	1	6
663.338	1	10
664.524	1	6
665.710	1	2
666.896	1	17
668.082	1	20
669.268	1	4
670.454	1	-7
671.640	1	8
672.826	1	6
674.011	1	16
675.197	1	16
676.383	1	1
677.569	1	-4
678.754	1	5
679.940	1	16
681.125	1	7
682.311	1	-2
683.496	1	12
684.682	1	8
685.867	1	18
687.053	1	-2
688.238	1	-1
688.746	1	4