Folder: cryo-il_analysis/Data/GaN_170K_550ms (part 7)

File: GaN_sample D_spot 18_UVVIS_170 K_200um_550 ms 2x2mm1_77.txt
340.368	1	3
341.565	1	1
342.763	1	9
343.960	1	9
345.157	1	-3
346.354	1	-2
347.552	1	24
348.749	1	8
349.946	1	14
351.143	1	-1
352.340	1	9
353.537	1	10
354.734	1	15
355.931	1	17
357.127	1	15
358.324	1	26
359.521	1	38
360.718	1	46
361.914	1	54
363.111	1	81
364.308	1	102
365.504	1	140
366.701	1	184
367.897	1	209
369.093	1	212
370.290	1	194
371.486	1	152
372.682	1	138
373.879	1	117
375.075	1	97
376.271	1	74
377.467	1	68
378.663	1	59
379.859	1	58
381.055	1	40
382.251	1	35
383.447	1	46
384.643	1	31
385.839	1	25
387.035	1	26
388.230	1	24
389.426	1	18
390.622	1	7
391.817	1	12
393.013	1	14
394.208	1	16
395.404	1	17
396.599	1	6
397.795	1	12
398.990	1	-1
400.186	1	6
401.381	1	17
402.576	1	1
403.771	1	3
404.967	1	8
406.162	1	14
407.357	1	6
408.552	1	10
409.747	1	2
410.942	1	10
412.137	1	-2
413.332	1	2
414.526	1	6
415.721	1	2
416.916	1	2
418.111	1	3
419.305	1	5
420.500	1	-6
421.695	1	-11
422.889	1	1
424.084	1	19
425.278	1	-7
426.472	1	9
427.667	1	3
428.861	1	9
430.055	1	6
431.250	1	15
432.444	1	9
433.638	1	7
434.832	1	10
436.026	1	3
437.220	1	6
438.414	1	-3
439.608	1	-2
440.802	1	7
441.996	1	-1
443.190	1	10
444.384	1	0
445.578	1	8
446.771	1	-11
447.965	1	2
449.159	1	2
450.352	1	-5
451.546	1	-2
452.739	1	0
453.933	1	2
455.126	1	12
456.320	1	8
457.513	1	5
458.706	1	12
459.899	1	2
461.093	1	14
462.286	1	-1
463.479	1	2
464.672	1	0
465.865	1	9
467.058	1	4
468.251	1	-1
469.444	1	3
470.637	1	3
471.830	1	-1
473.023	1	8
474.215	1	3
475.408	1	0
476.601	1	1
477.793	1	-2
478.986	1	10
480.179	1	4
481.371	1	1
482.564	1	7
483.756	1	15
484.948	1	10
486.141	1	11
487.333	1	4
488.525	1	9
489.718	1	9
490.910	1	18
492.102	1	25
493.294	1	16
494.486	1	17
495.678	1	16
496.870	1	14
498.062	1	11
499.254	1	27
500.446	1	13
501.638	1	10
502.829	1	24
504.021	1	20
505.213	1	17
506.404	1	28
507.596	1	19
508.788	1	9
509.979	1	15
511.171	1	36
512.362	1	16
513.553	1	32
514.745	1	35
515.936	1	35
517.127	1	28
518.319	1	39
519.510	1	27
520.701	1	38
521.892	1	32
523.083	1	40
524.274	1	36
525.465	1	31
526.656	1	41
527.847	1	32
529.038	1	33
530.229	1	38
531.419	1	43
532.610	1	48
533.801	1	42
534.991	1	29
536.182	1	36
537.373	1	22
538.563	1	30
539.754	1	32
540.944	1	22
542.134	1	23
543.325	1	29
544.515	1	36
545.705	1	35
546.896	1	35
548.086	1	32
549.276	1	34
550.466	1	26
551.656	1	30
552.846	1	19
554.036	1	37
555.226	1	15
556.416	1	25
557.606	1	33
558.796	1	26
559.986	1	28
561.175	1	18
562.365	1	21
563.555	1	22
564.744	1	18
565.934	1	18
567.123	1	18
568.313	1	20
569.502	1	12
570.692	1	23
571.881	1	13
573.070	1	19
574.260	1	20
575.449	1	13
576.638	1	17
577.827	1	8
579.016	1	19
580.205	1	1
581.394	1	15
582.583	1	18
583.772	1	16
584.961	1	11
586.150	1	0
587.339	1	13
588.528	1	11
589.717	1	11
590.905	1	22
592.094	1	18
593.283	1	14
594.471	1	14
595.660	1	10
596.848	1	18
598.037	1	7
599.225	1	8
600.413	1	0
601.602	1	5
602.790	1	3
603.978	1	2
605.166	1	11
606.355	1	13
607.543	1	20
608.731	1	12
609.919	1	4
611.107	1	7
612.295	1	11
613.483	1	2
614.671	1	11
615.858	1	3
617.046	1	1
618.234	1	-3
619.422	1	-3
620.609	1	6
621.797	1	2
622.985	1	10
624.172	1	7
625.360	1	6
626.547	1	-4
627.735	1	-5
628.922	1	1
630.109	1	-3
631.297	1	-5
632.484	1	1
633.671	1	11
634.858	1	6
636.045	1	6
637.232	1	4
638.419	1	1
639.606	1	0
640.793	1	8
641.980	1	7
643.167	1	12
644.354	1	6
645.541	1	12
646.728	1	5
647.914	1	6
649.101	1	0
650.288	1	4
651.474	1	16
652.661	1	10
653.847	1	12
655.034	1	2
656.220	1	7
657.406	1	11
658.593	1	2
659.779	1	6
660.965	1	17
662.152	1	6
663.338	1	7
664.524	1	10
665.710	1	6
666.896	1	8
668.082	1	13
669.268	1	-1
670.454	1	1
671.640	1	8
672.826	1	1
674.011	1	6
675.197	1	11
676.383	1	12
677.569	1	-3
678.754	1	13
679.940	1	13
681.125	1	10
682.311	1	3
683.496	1	3
684.682	1	11
685.867	1	14
687.053	1	1
688.238	1	2
688.746	1	5

File: GaN_sample D_spot 18_UVVIS_170 K_200um_550 ms 2x2mm1_78.txt
340.368	1	1
341.565	1	6
342.763	1	6
343.960	1	-2
345.157	1	7
346.354	1	-3
347.552	1	9
348.749	1	12
349.946	1	6
351.143	1	7
352.340	1	11
353.537	1	14
354.734	1	19
355.931	1	10
357.127	1	11
358.324	1	33
359.521	1	31
360.718	1	44
361.914	1	57
363.111	1	77
364.308	1	94
365.504	1	135
366.701	1	172
367.897	1	189
369.093	1	199
370.290	1	193
371.486	1	150
372.682	1	132
373.879	1	114
375.075	1	95
376.271	1	79
377.467	1	68
378.663	1	61
379.859	1	48
381.055	1	52
382.251	1	38
383.447	1	44
384.643	1	33
385.839	1	24
387.035	1	27
388.230	1	21
389.426	1	22
390.622	1	19
391.817	1	16
393.013	1	9
394.208	1	15
395.404	1	13
396.599	1	5
397.795	1	-3
398.990	1	8
400.186	1	1
401.381	1	15
402.576	1	3
403.771	1	9
404.967	1	16
406.162	1	14
407.357	1	13
408.552	1	6
409.747	1	8
410.942	1	1
412.137	1	-8
413.332	1	2
414.526	1	5
415.721	1	-7
416.916	1	-4
418.111	1	1
419.305	1	7
420.500	1	-4
421.695	1	0
422.889	1	2
424.084	1	17
425.278	1	6
426.472	1	9
427.667	1	9
428.861	1	8
430.055	1	6
431.250	1	19
432.444	1	9
433.638	1	11
434.832	1	9
436.026	1	8
437.220	1	9
438.414	1	5
439.608	1	0
440.802	1	5
441.996	1	-2
443.190	1	5
444.384	1	4
445.578	1	5
446.771	1	-10
447.965	1	10
449.159	1	3
450.352	1	-3
451.546	1	-3
452.739	1	4
453.933	1	8
455.126	1	14
456.320	1	0
457.513	1	8
458.706	1	6
459.899	1	6
461.093	1	7
462.286	1	-3
463.479	1	4
464.672	1	2
465.865	1	0
467.058	1	4
468.251	1	11
469.444	1	4
470.637	1	9
471.830	1	-1
473.023	1	-2
474.215	1	12
475.408	1	-7
476.601	1	8
477.793	1	11
478.986	1	6
480.179	1	0
481.371	1	3
482.564	1	1
483.756	1	6
484.948	1	-2
486.141	1	12
487.333	1	9
488.525	1	18
489.718	1	13
490.910	1	13
492.102	1	12
493.294	1	8
494.486	1	21
495.678	1	9
496.870	1	15
498.062	1	7
499.254	1	26
500.446	1	10
501.638	1	9
502.829	1	16
504.021	1	27
505.213	1	24
506.404	1	25
507.596	1	27
508.788	1	18
509.979	1	25
511.171	1	29
512.362	1	21
513.553	1	24
514.745	1	29
515.936	1	32
517.127	1	37
518.319	1	32
519.510	1	18
520.701	1	26
521.892	1	35
523.083	1	26
524.274	1	18
525.465	1	32
526.656	1	32
527.847	1	32
529.038	1	29
530.229	1	34
531.419	1	42
532.610	1	41
533.801	1	31
534.991	1	37
536.182	1	30
537.373	1	27
538.563	1	21
539.754	1	29
540.944	1	29
542.134	1	20
543.325	1	30
544.515	1	22
545.705	1	38
546.896	1	32
548.086	1	19
549.276	1	25
550.466	1	32
551.656	1	33
552.846	1	25
554.036	1	19
555.226	1	12
556.416	1	22
557.606	1	18
558.796	1	19
559.986	1	29
561.175	1	7
562.365	1	27
563.555	1	14
564.744	1	18
565.934	1	25
567.123	1	18
568.313	1	14
569.502	1	26
570.692	1	19
571.881	1	12
573.070	1	19
574.260	1	15
575.449	1	13
576.638	1	18
577.827	1	4
579.016	1	11
580.205	1	16
581.394	1	10
582.583	1	7
583.772	1	9
584.961	1	9
586.150	1	13
587.339	1	15
588.528	1	10
589.717	1	14
590.905	1	19
592.094	1	8
593.283	1	16
594.471	1	10
595.660	1	7
596.848	1	2
598.037	1	7
599.225	1	12
600.413	1	12
601.602	1	6
602.790	1	12
603.978	1	9
605.166	1	15
606.355	1	17
607.543	1	12
608.731	1	12
609.919	1	1
611.107	1	4
612.295	1	19
613.483	1	8
614.671	1	6
615.858	1	6
617.046	1	4
618.234	1	7
619.422	1	1
620.609	1	2
621.797	1	9
622.985	1	11
624.172	1	-3
625.360	1	0
626.547	1	4
627.735	1	-2
628.922	1	-3
630.109	1	6
631.297	1	1
632.484	1	0
633.671	1	12
634.858	1	5
636.045	1	5
637.232	1	1
638.419	1	4
639.606	1	0
640.793	1	7
641.980	1	6
643.167	1	3
644.354	1	7
645.541	1	10
646.728	1	2
647.914	1	3
649.101	1	3
650.288	1	8
651.474	1	10
652.661	1	6
653.847	1	6
655.034	1	2
656.220	1	11
657.406	1	7
658.593	1	5
659.779	1	6
660.965	1	16
662.152	1	8
663.338	1	6
664.524	1	5
665.710	1	0
666.896	1	5
668.082	1	16
669.268	1	4
670.454	1	-12
671.640	1	13
672.826	1	2
674.011	1	5
675.197	1	5
676.383	1	4
677.569	1	-6
678.754	1	8
679.940	1	13
681.125	1	13
682.311	1	3
683.496	1	5
684.682	1	3
685.867	1	10
687.053	1	0
688.238	1	-2
688.746	1	-1

File: GaN_sample D_spot 18_UVVIS_170 K_200um_550 ms 2x2mm1_79.txt
340.368	1	-4
341.565	1	4
342.763	1	0
343.960	1	1
345.157	1	-1
346.354	1	-2
347.552	1	10
348.749	1	16
349.946	1	17
351.143	1	0
352.340	1	9
353.537	1	8
354.734	1	14
355.931	1	9
357.127	1	14
358.324	1	21
359.521	1	37
360.718	1	36
361.914	1	52
363.111	1	79
364.308	1	93
365.504	1	131
366.701	1	162
367.897	1	196
369.093	1	199
370.290	1	170
371.486	1	146
372.682	1	131
373.879	1	103
375.075	1	88
376.271	1	86
377.467	1	69
378.663	1	60
379.859	1	52
381.055	1	45
382.251	1	39
383.447	1	33
384.643	1	24
385.839	1	20
387.035	1	30
388.230	1	9
389.426	1	21
390.622	1	14
391.817	1	11
393.013	1	12
394.208	1	25
395.404	1	17
396.599	1	4
397.795	1	11
398.990	1	4
400.186	1	9
401.381	1	15
402.576	1	7
403.771	1	10
404.967	1	5
406.162	1	1
407.357	1	6
408.552	1	4
409.747	1	5
410.942	1	9
412.137	1	-7
413.332	1	-3
414.526	1	7
415.721	1	-3
416.916	1	-12
418.111	1	9
419.305	1	8
420.500	1	6
421.695	1	2
422.889	1	3
424.084	1	19
425.278	1	2
426.472	1	5
427.667	1	12
428.861	1	13
430.055	1	3
431.250	1	12
432.444	1	8
433.638	1	17
434.832	1	7
436.026	1	2
437.220	1	2
438.414	1	-1
439.608	1	-2
440.802	1	16
441.996	1	2
443.190	1	0
444.384	1	4
445.578	1	14
446.771	1	-5
447.965	1	8
449.159	1	6
450.352	1	-5
451.546	1	-8
452.739	1	-1
453.933	1	9
455.126	1	11
456.320	1	1
457.513	1	6
458.706	1	10
459.899	1	4
461.093	1	9
462.286	1	-4
463.479	1	1
464.672	1	3
465.865	1	4
467.058	1	6
468.251	1	4
469.444	1	8
470.637	1	1
471.830	1	1
473.023	1	6
474.215	1	0
475.408	1	5
476.601	1	10
477.793	1	15
478.986	1	0
480.179	1	6
481.371	1	7
482.564	1	-3
483.756	1	15
484.948	1	1
486.141	1	18
487.333	1	8
488.525	1	17
489.718	1	16
490.910	1	13
492.102	1	12
493.294	1	9
494.486	1	20
495.678	1	14
496.870	1	12
498.062	1	12
499.254	1	25
500.446	1	12
501.638	1	10
502.829	1	29
504.021	1	25
505.213	1	16
506.404	1	21
507.596	1	26
508.788	1	14
509.979	1	18
511.171	1	15
512.362	1	13
513.553	1	32
514.745	1	28
515.936	1	23
517.127	1	38
518.319	1	38
519.510	1	35
520.701	1	26
521.892	1	18
523.083	1	14
524.274	1	29
525.465	1	38
526.656	1	35
527.847	1	32
529.038	1	30
530.229	1	36
531.419	1	34
532.610	1	30
533.801	1	25
534.991	1	29
536.182	1	27
537.373	1	27
538.563	1	22
539.754	1	30
540.944	1	26
542.134	1	19
543.325	1	26
544.515	1	25
545.705	1	30
546.896	1	30
548.086	1	21
549.276	1	24
550.466	1	16
551.656	1	34
552.846	1	26
554.036	1	26
555.226	1	7
556.416	1	22
557.606	1	24
558.796	1	20
559.986	1	31
561.175	1	13
562.365	1	19
563.555	1	9
564.744	1	13
565.934	1	26
567.123	1	8
568.313	1	13
569.502	1	13
570.692	1	23
571.881	1	14
573.070	1	16
574.260	1	12
575.449	1	10
576.638	1	12
577.827	1	10
579.016	1	10
580.205	1	3
581.394	1	20
582.583	1	3
583.772	1	18
584.961	1	3
586.150	1	3
587.339	1	9
588.528	1	8
589.717	1	17
590.905	1	11
592.094	1	12
593.283	1	12
594.471	1	13
595.660	1	11
596.848	1	13
598.037	1	11
599.225	1	20
600.413	1	-6
601.602	1	20
602.790	1	22
603.978	1	8
605.166	1	10
606.355	1	15
607.543	1	16
608.731	1	7
609.919	1	3
611.107	1	2
612.295	1	3
613.483	1	8
614.671	1	14
615.858	1	11
617.046	1	-3
618.234	1	9
619.422	1	-7
620.609	1	10
621.797	1	8
622.985	1	11
624.172	1	10
625.360	1	2
626.547	1	-1
627.735	1	3
628.922	1	-6
630.109	1	4
631.297	1	3
632.484	1	-3
633.671	1	7
634.858	1	9
636.045	1	12
637.232	1	7
638.419	1	2
639.606	1	3
640.793	1	5
641.980	1	6
643.167	1	-1
644.354	1	8
645.541	1	9
646.728	1	0
647.914	1	3
649.101	1	-1
650.288	1	4
651.474	1	20
652.661	1	0
653.847	1	7
655.034	1	9
656.220	1	6
657.406	1	14
658.593	1	6
659.779	1	3
660.965	1	16
662.152	1	8
663.338	1	6
664.524	1	-1
665.710	1	6
666.896	1	8
668.082	1	9
669.268	1	-1
670.454	1	-1
671.640	1	5
672.826	1	-1
674.011	1	5
675.197	1	16
676.383	1	11
677.569	1	-5
678.754	1	3
679.940	1	10
681.125	1	-1
682.311	1	0
683.496	1	12
684.682	1	5
685.867	1	13
687.053	1	-3
688.238	1	0
688.746	1	2

File: GaN_sample D_spot 18_UVVIS_170 K_200um_550 ms 2x2mm1_80.txt
340.368	1	3
341.565	1	7
342.763	1	3
343.960	1	5
345.157	1	-3
346.354	1	1
347.552	1	9
348.749	1	8
349.946	1	13
351.143	1	11
352.340	1	13
353.537	1	8
354.734	1	18
355.931	1	8
357.127	1	13
358.324	1	17
359.521	1	31
360.718	1	37
361.914	1	50
363.111	1	79
364.308	1	85
365.504	1	119
366.701	1	147
367.897	1	177
369.093	1	188
370.290	1	172
371.486	1	145
372.682	1	127
373.879	1	98
375.075	1	91
376.271	1	70
377.467	1	65
378.663	1	58
379.859	1	43
381.055	1	45
382.251	1	39
383.447	1	42
384.643	1	31
385.839	1	16
387.035	1	28
388.230	1	12
389.426	1	24
390.622	1	6
391.817	1	23
393.013	1	7
394.208	1	17
395.404	1	14
396.599	1	1
397.795	1	7
398.990	1	0
400.186	1	1
401.381	1	12
402.576	1	2
403.771	1	2
404.967	1	14
406.162	1	-3
407.357	1	6
408.552	1	5
409.747	1	3
410.942	1	9
412.137	1	-6
413.332	1	3
414.526	1	15
415.721	1	-1
416.916	1	2
418.111	1	13
419.305	1	10
420.500	1	4
421.695	1	0
422.889	1	-2
424.084	1	28
425.278	1	9
426.472	1	3
427.667	1	0
428.861	1	9
430.055	1	6
431.250	1	19
432.444	1	9
433.638	1	8
434.832	1	8
436.026	1	3
437.220	1	1
438.414	1	-2
439.608	1	0
440.802	1	7
441.996	1	6
443.190	1	5
444.384	1	-6
445.578	1	7
446.771	1	-4
447.965	1	8
449.159	1	-6
450.352	1	4
451.546	1	-5
452.739	1	7
453.933	1	5
455.126	1	15
456.320	1	-3
457.513	1	12
458.706	1	5
459.899	1	1
461.093	1	13
462.286	1	-4
463.479	1	-2
464.672	1	2
465.865	1	13
467.058	1	6
468.251	1	9
469.444	1	6
470.637	1	10
471.830	1	12
473.023	1	13
474.215	1	7
475.408	1	0
476.601	1	10
477.793	1	12
478.986	1	1
480.179	1	4
481.371	1	3
482.564	1	8
483.756	1	-1
484.948	1	8
486.141	1	17
487.333	1	-3
488.525	1	19
489.718	1	16
490.910	1	4
492.102	1	4
493.294	1	5
494.486	1	12
495.678	1	11
496.870	1	19
498.062	1	12
499.254	1	20
500.446	1	11
501.638	1	10
502.829	1	20
504.021	1	18
505.213	1	11
506.404	1	20
507.596	1	28
508.788	1	16
509.979	1	32
511.171	1	29
512.362	1	27
513.553	1	26
514.745	1	26
515.936	1	19
517.127	1	26
518.319	1	30
519.510	1	34
520.701	1	40
521.892	1	26
523.083	1	24
524.274	1	30
525.465	1	22
526.656	1	39
527.847	1	33
529.038	1	24
530.229	1	44
531.419	1	40
532.610	1	34
533.801	1	25
534.991	1	25
536.182	1	25
537.373	1	21
538.563	1	30
539.754	1	27
540.944	1	17
542.134	1	34
543.325	1	25
544.515	1	27
545.705	1	28
546.896	1	27
548.086	1	31
549.276	1	28
550.466	1	37
551.656	1	24
552.846	1	12
554.036	1	28
555.226	1	8
556.416	1	18
557.606	1	24
558.796	1	14
559.986	1	24
561.175	1	10
562.365	1	13
563.555	1	18
564.744	1	14
565.934	1	19
567.123	1	14
568.313	1	10
569.502	1	13
570.692	1	26
571.881	1	10
573.070	1	8
574.260	1	15
575.449	1	13
576.638	1	19
577.827	1	11
579.016	1	17
580.205	1	4
581.394	1	13
582.583	1	16
583.772	1	12
584.961	1	8
586.150	1	5
587.339	1	12
588.528	1	12
589.717	1	16
590.905	1	14
592.094	1	15
593.283	1	8
594.471	1	12
595.660	1	10
596.848	1	1
598.037	1	-3
599.225	1	12
600.413	1	6
601.602	1	3
602.790	1	9
603.978	1	12
605.166	1	10
606.355	1	14
607.543	1	15
608.731	1	1
609.919	1	10
611.107	1	2
612.295	1	5
613.483	1	5
614.671	1	11
615.858	1	2
617.046	1	7
618.234	1	9
619.422	1	-1
620.609	1	11
621.797	1	10
622.985	1	9
624.172	1	0
625.360	1	10
626.547	1	0
627.735	1	3
628.922	1	-6
630.109	1	2
631.297	1	3
632.484	1	-2
633.671	1	12
634.858	1	15
636.045	1	10
637.232	1	9
638.419	1	5
639.606	1	4
640.793	1	4
641.980	1	-4
643.167	1	0
644.354	1	13
645.541	1	9
646.728	1	8
647.914	1	1
649.101	1	-1
650.288	1	0
651.474	1	17
652.661	1	12
653.847	1	3
655.034	1	8
656.220	1	4
657.406	1	6
658.593	1	10
659.779	1	9
660.965	1	12
662.152	1	8
663.338	1	11
664.524	1	11
665.710	1	0
666.896	1	5
668.082	1	14
669.268	1	3
670.454	1	0
671.640	1	8
672.826	1	4
674.011	1	6
675.197	1	9
676.383	1	4
677.569	1	3
678.754	1	9
679.940	1	12
681.125	1	12
682.311	1	2
683.496	1	9
684.682	1	10
685.867	1	13
687.053	1	1
688.238	1	3
688.746	1	3

File: GaN_sample D_spot 18_UVVIS_170 K_200um_550 ms 2x2mm1_81.txt
340.368	1	2
341.565	1	3
342.763	1	7
343.960	1	2
345.157	1	6
346.354	1	6
347.552	1	10
348.749	1	8
349.946	1	19
351.143	1	5
352.340	1	13
353.537	1	11
354.734	1	18
355.931	1	14
357.127	1	18
358.324	1	20
359.521	1	43
360.718	1	45
361.914	1	51
363.111	1	72
364.308	1	93
365.504	1	111
366.701	1	152
367.897	1	186
369.093	1	168
370.290	1	158
371.486	1	132
372.682	1	116
373.879	1	100
375.075	1	86
376.271	1	79
377.467	1	68
378.663	1	60
379.859	1	48
381.055	1	40
382.251	1	36
383.447	1	40
384.643	1	29
385.839	1	18
387.035	1	21
388.230	1	16
389.426	1	12
390.622	1	22
391.817	1	16
393.013	1	15
394.208	1	21
395.404	1	7
396.599	1	9
397.795	1	1
398.990	1	-8
400.186	1	5
401.381	1	16
402.576	1	14
403.771	1	5
404.967	1	5
406.162	1	6
407.357	1	1
408.552	1	3
409.747	1	0
410.942	1	3
412.137	1	-6
413.332	1	5
414.526	1	11
415.721	1	3
416.916	1	-3
418.111	1	12
419.305	1	5
420.500	1	-4
421.695	1	4
422.889	1	-1
424.084	1	22
425.278	1	6
426.472	1	6
427.667	1	8
428.861	1	3
430.055	1	7
431.250	1	14
432.444	1	3
433.638	1	10
434.832	1	0
436.026	1	0
437.220	1	1
438.414	1	3
439.608	1	5
440.802	1	7
441.996	1	4
443.190	1	11
444.384	1	5
445.578	1	12
446.771	1	-1
447.965	1	10
449.159	1	3
450.352	1	-8
451.546	1	-9
452.739	1	5
453.933	1	2
455.126	1	8
456.320	1	6
457.513	1	13
458.706	1	5
459.899	1	5
461.093	1	5
462.286	1	-8
463.479	1	-1
464.672	1	9
465.865	1	1
467.058	1	3
468.251	1	9
469.444	1	6
470.637	1	4
471.830	1	0
473.023	1	4
474.215	1	10
475.408	1	5
476.601	1	8
477.793	1	17
478.986	1	6
480.179	1	3
481.371	1	9
482.564	1	9
483.756	1	10
484.948	1	-2
486.141	1	18
487.333	1	4
488.525	1	13
489.718	1	8
490.910	1	2
492.102	1	10
493.294	1	9
494.486	1	19
495.678	1	15
496.870	1	17
498.062	1	7
499.254	1	14
500.446	1	5
501.638	1	7
502.829	1	22
504.021	1	16
505.213	1	13
506.404	1	15
507.596	1	29
508.788	1	5
509.979	1	27
511.171	1	26
512.362	1	16
513.553	1	26
514.745	1	19
515.936	1	21
517.127	1	23
518.319	1	23
519.510	1	24
520.701	1	25
521.892	1	30
523.083	1	28
524.274	1	34
525.465	1	28
526.656	1	29
527.847	1	26
529.038	1	27
530.229	1	36
531.419	1	37
532.610	1	24
533.801	1	25
534.991	1	19
536.182	1	20
537.373	1	28
538.563	1	17
539.754	1	23
540.944	1	16
542.134	1	26
543.325	1	31
544.515	1	19
545.705	1	27
546.896	1	26
548.086	1	27
549.276	1	29
550.466	1	19
551.656	1	21
552.846	1	29
554.036	1	18
555.226	1	8
556.416	1	15
557.606	1	16
558.796	1	16
559.986	1	22
561.175	1	11
562.365	1	20
563.555	1	20
564.744	1	25
565.934	1	16
567.123	1	9
568.313	1	10
569.502	1	17
570.692	1	26
571.881	1	3
573.070	1	12
574.260	1	23
575.449	1	15
576.638	1	15
577.827	1	7
579.016	1	13
580.205	1	4
581.394	1	17
582.583	1	10
583.772	1	12
584.961	1	12
586.150	1	7
587.339	1	14
588.528	1	9
589.717	1	8
590.905	1	19
592.094	1	16
593.283	1	-1
594.471	1	19
595.660	1	8
596.848	1	8
598.037	1	9
599.225	1	-2
600.413	1	8
601.602	1	6
602.790	1	12
603.978	1	10
605.166	1	17
606.355	1	10
607.543	1	14
608.731	1	10
609.919	1	3
611.107	1	-1
612.295	1	1
613.483	1	-5
614.671	1	10
615.858	1	6
617.046	1	-1
618.234	1	9
619.422	1	5
620.609	1	13
621.797	1	4
622.985	1	7
624.172	1	13
625.360	1	3
626.547	1	-6
627.735	1	-8
628.922	1	-3
630.109	1	5
631.297	1	-2
632.484	1	2
633.671	1	9
634.858	1	5
636.045	1	18
637.232	1	6
638.419	1	8
639.606	1	1
640.793	1	0
641.980	1	11
643.167	1	-2
644.354	1	5
645.541	1	3
646.728	1	7
647.914	1	10
649.101	1	10
650.288	1	8
651.474	1	16
652.661	1	1
653.847	1	5
655.034	1	7
656.220	1	11
657.406	1	7
658.593	1	1
659.779	1	15
660.965	1	14
662.152	1	8
663.338	1	8
664.524	1	11
665.710	1	8
666.896	1	10
668.082	1	18
669.268	1	2
670.454	1	-4
671.640	1	4
672.826	1	2
674.011	1	14
675.197	1	4
676.383	1	4
677.569	1	7
678.754	1	7
679.940	1	10
681.125	1	4
682.311	1	6
683.496	1	15
684.682	1	-2
685.867	1	10
687.053	1	-7
688.238	1	8
688.746	1	2

File: GaN_sample D_spot 18_UVVIS_170 K_200um_550 ms 2x2mm1_82.txt
340.368	1	0
341.565	1	9
342.763	1	3
343.960	1	-3
345.157	1	1
346.354	1	1
347.552	1	11
348.749	1	2
349.946	1	4
351.143	1	6
352.340	1	11
353.537	1	14
354.734	1	16
355.931	1	14
357.127	1	11
358.324	1	22
359.521	1	27
360.718	1	35
361.914	1	46
363.111	1	72
364.308	1	80
365.504	1	107
366.701	1	141
367.897	1	161
369.093	1	149
370.290	1	154
371.486	1	122
372.682	1	120
373.879	1	99
375.075	1	80
376.271	1	64
377.467	1	65
378.663	1	58
379.859	1	41
381.055	1	43
382.251	1	43
383.447	1	41
384.643	1	28
385.839	1	26
387.035	1	16
388.230	1	13
389.426	1	17
390.622	1	9
391.817	1	17
393.013	1	18
394.208	1	18
395.404	1	19
396.599	1	9
397.795	1	6
398.990	1	-3
400.186	1	5
401.381	1	24
402.576	1	7
403.771	1	16
404.967	1	5
406.162	1	4
407.357	1	-1
408.552	1	1
409.747	1	5
410.942	1	15
412.137	1	3
413.332	1	-1
414.526	1	10
415.721	1	2
416.916	1	4
418.111	1	2
419.305	1	4
420.500	1	10
421.695	1	-6
422.889	1	5
424.084	1	13
425.278	1	0
426.472	1	11
427.667	1	3
428.861	1	1
430.055	1	5
431.250	1	11
432.444	1	8
433.638	1	14
434.832	1	4
436.026	1	1
437.220	1	2
438.414	1	-2
439.608	1	2
440.802	1	6
441.996	1	-2
443.190	1	8
444.384	1	5
445.578	1	10
446.771	1	-4
447.965	1	3
449.159	1	-2
450.352	1	-7
451.546	1	-3
452.739	1	8
453.933	1	12
455.126	1	6
456.320	1	0
457.513	1	11
458.706	1	-2
459.899	1	-1
461.093	1	16
462.286	1	4
463.479	1	1
464.672	1	-1
465.865	1	14
467.058	1	11
468.251	1	2
469.444	1	0
470.637	1	4
471.830	1	-2
473.023	1	9
474.215	1	1
475.408	1	5
476.601	1	6
477.793	1	9
478.986	1	7
480.179	1	2
481.371	1	8
482.564	1	4
483.756	1	-1
484.948	1	-2
486.141	1	14
487.333	1	3
488.525	1	21
489.718	1	13
490.910	1	7
492.102	1	8
493.294	1	7
494.486	1	19
495.678	1	16
496.870	1	9
498.062	1	6
499.254	1	24
500.446	1	9
501.638	1	2
502.829	1	22
504.021	1	21
505.213	1	13
506.404	1	26
507.596	1	17
508.788	1	8
509.979	1	24
511.171	1	24
512.362	1	14
513.553	1	20
514.745	1	9
515.936	1	17
517.127	1	35
518.319	1	34
519.510	1	22
520.701	1	16
521.892	1	37
523.083	1	25
524.274	1	33
525.465	1	30
526.656	1	30
527.847	1	31
529.038	1	13
530.229	1	27
531.419	1	36
532.610	1	29
533.801	1	38
534.991	1	20
536.182	1	16
537.373	1	14
538.563	1	19
539.754	1	12
540.944	1	27
542.134	1	24
543.325	1	15
544.515	1	21
545.705	1	25
546.896	1	38
548.086	1	23
549.276	1	20
550.466	1	16
551.656	1	18
552.846	1	7
554.036	1	17
555.226	1	8
556.416	1	19
557.606	1	26
558.796	1	11
559.986	1	16
561.175	1	14
562.365	1	13
563.555	1	10
564.744	1	13
565.934	1	15
567.123	1	24
568.313	1	11
569.502	1	15
570.692	1	17
571.881	1	4
573.070	1	9
574.260	1	16
575.449	1	13
576.638	1	17
577.827	1	9
579.016	1	2
580.205	1	8
581.394	1	18
582.583	1	-1
583.772	1	10
584.961	1	10
586.150	1	6
587.339	1	10
588.528	1	7
589.717	1	8
590.905	1	12
592.094	1	15
593.283	1	14
594.471	1	16
595.660	1	10
596.848	1	9
598.037	1	10
599.225	1	11
600.413	1	-2
601.602	1	9
602.790	1	16
603.978	1	12
605.166	1	7
606.355	1	12
607.543	1	12
608.731	1	10
609.919	1	4
611.107	1	2
612.295	1	1
613.483	1	9
614.671	1	18
615.858	1	1
617.046	1	6
618.234	1	11
619.422	1	-8
620.609	1	4
621.797	1	-5
622.985	1	3
624.172	1	6
625.360	1	18
626.547	1	4
627.735	1	-6
628.922	1	6
630.109	1	-3
631.297	1	-4
632.484	1	2
633.671	1	11
634.858	1	3
636.045	1	9
637.232	1	0
638.419	1	-1
639.606	1	0
640.793	1	-7
641.980	1	7
643.167	1	2
644.354	1	7
645.541	1	5
646.728	1	1
647.914	1	18
649.101	1	7
650.288	1	4
651.474	1	16
652.661	1	-4
653.847	1	10
655.034	1	3
656.220	1	0
657.406	1	4
658.593	1	4
659.779	1	10
660.965	1	6
662.152	1	2
663.338	1	7
664.524	1	12
665.710	1	4
666.896	1	1
668.082	1	13
669.268	1	6
670.454	1	-4
671.640	1	12
672.826	1	-3
674.011	1	8
675.197	1	7
676.383	1	11
677.569	1	7
678.754	1	6
679.940	1	8
681.125	1	10
682.311	1	0
683.496	1	7
684.682	1	7
685.867	1	11
687.053	1	10
688.238	1	-2
688.746	1	-3