Folder: cryo-il_analysis/Data/GaN_150K_450ms (part 7)

File: GaN_sample D_spot15_UVVIS_150 K_200um_450 ms 2x2mm1_73.txt
340.368	1	3
341.565	1	12
342.763	1	10
343.960	1	9
345.157	1	14
346.354	1	8
347.552	1	20
348.749	1	9
349.946	1	4
351.143	1	15
352.340	1	8
353.537	1	2
354.734	1	15
355.931	1	18
357.127	1	25
358.324	1	31
359.521	1	29
360.718	1	29
361.914	1	57
363.111	1	72
364.308	1	121
365.504	1	141
366.701	1	181
367.897	1	214
369.093	1	228
370.290	1	170
371.486	1	149
372.682	1	127
373.879	1	100
375.075	1	78
376.271	1	81
377.467	1	69
378.663	1	47
379.859	1	50
381.055	1	33
382.251	1	38
383.447	1	35
384.643	1	22
385.839	1	26
387.035	1	33
388.230	1	16
389.426	1	15
390.622	1	14
391.817	1	16
393.013	1	23
394.208	1	26
395.404	1	16
396.599	1	32
397.795	1	14
398.990	1	26
400.186	1	15
401.381	1	11
402.576	1	17
403.771	1	4
404.967	1	19
406.162	1	18
407.357	1	22
408.552	1	17
409.747	1	21
410.942	1	22
412.137	1	10
413.332	1	11
414.526	1	9
415.721	1	14
416.916	1	6
418.111	1	25
419.305	1	14
420.500	1	26
421.695	1	23
422.889	1	14
424.084	1	16
425.278	1	16
426.472	1	29
427.667	1	9
428.861	1	27
430.055	1	11
431.250	1	16
432.444	1	19
433.638	1	20
434.832	1	7
436.026	1	12
437.220	1	20
438.414	1	23
439.608	1	11
440.802	1	11
441.996	1	10
443.190	1	15
444.384	1	15
445.578	1	5
446.771	1	15
447.965	1	13
449.159	1	4
450.352	1	3
451.546	1	10
452.739	1	7
453.933	1	13
455.126	1	13
456.320	1	20
457.513	1	11
458.706	1	25
459.899	1	1
461.093	1	12
462.286	1	5
463.479	1	8
464.672	1	11
465.865	1	1
467.058	1	18
468.251	1	9
469.444	1	9
470.637	1	11
471.830	1	10
473.023	1	7
474.215	1	4
475.408	1	11
476.601	1	8
477.793	1	8
478.986	1	18
480.179	1	20
481.371	1	4
482.564	1	8
483.756	1	14
484.948	1	19
486.141	1	21
487.333	1	7
488.525	1	12
489.718	1	8
490.910	1	30
492.102	1	21
493.294	1	11
494.486	1	23
495.678	1	23
496.870	1	26
498.062	1	15
499.254	1	31
500.446	1	36
501.638	1	38
502.829	1	30
504.021	1	39
505.213	1	26
506.404	1	49
507.596	1	43
508.788	1	38
509.979	1	40
511.171	1	43
512.362	1	50
513.553	1	52
514.745	1	51
515.936	1	53
517.127	1	52
518.319	1	52
519.510	1	55
520.701	1	64
521.892	1	51
523.083	1	55
524.274	1	45
525.465	1	52
526.656	1	50
527.847	1	49
529.038	1	54
530.229	1	69
531.419	1	61
532.610	1	61
533.801	1	62
534.991	1	44
536.182	1	54
537.373	1	55
538.563	1	43
539.754	1	51
540.944	1	51
542.134	1	53
543.325	1	46
544.515	1	52
545.705	1	60
546.896	1	57
548.086	1	50
549.276	1	46
550.466	1	47
551.656	1	50
552.846	1	54
554.036	1	48
555.226	1	48
556.416	1	45
557.606	1	34
558.796	1	47
559.986	1	29
561.175	1	29
562.365	1	29
563.555	1	41
564.744	1	40
565.934	1	48
567.123	1	36
568.313	1	34
569.502	1	30
570.692	1	24
571.881	1	25
573.070	1	36
574.260	1	23
575.449	1	27
576.638	1	28
577.827	1	16
579.016	1	32
580.205	1	17
581.394	1	29
582.583	1	17
583.772	1	31
584.961	1	10
586.150	1	22
587.339	1	21
588.528	1	12
589.717	1	16
590.905	1	8
592.094	1	21
593.283	1	14
594.471	1	0
595.660	1	13
596.848	1	22
598.037	1	11
599.225	1	20
600.413	1	9
601.602	1	12
602.790	1	16
603.978	1	19
605.166	1	6
606.355	1	5
607.543	1	12
608.731	1	3
609.919	1	12
611.107	1	17
612.295	1	21
613.483	1	11
614.671	1	7
615.858	1	-4
617.046	1	9
618.234	1	4
619.422	1	9
620.609	1	10
621.797	1	6
622.985	1	0
624.172	1	6
625.360	1	9
626.547	1	3
627.735	1	11
628.922	1	12
630.109	1	-6
631.297	1	11
632.484	1	15
633.671	1	10
634.858	1	8
636.045	1	0
637.232	1	4
638.419	1	0
639.606	1	6
640.793	1	13
641.980	1	21
643.167	1	9
644.354	1	10
645.541	1	4
646.728	1	9
647.914	1	10
649.101	1	0
650.288	1	1
651.474	1	15
652.661	1	4
653.847	1	9
655.034	1	8
656.220	1	10
657.406	1	3
658.593	1	12
659.779	1	5
660.965	1	4
662.152	1	0
663.338	1	2
664.524	1	12
665.710	1	18
666.896	1	3
668.082	1	2
669.268	1	10
670.454	1	9
671.640	1	9
672.826	1	5
674.011	1	14
675.197	1	10
676.383	1	10
677.569	1	16
678.754	1	16
679.940	1	5
681.125	1	4
682.311	1	16
683.496	1	-1
684.682	1	13
685.867	1	8
687.053	1	25
688.238	1	14
688.746	1	4

File: GaN_sample D_spot15_UVVIS_150 K_200um_450 ms 2x2mm1_74.txt
340.368	1	-2
341.565	1	4
342.763	1	7
343.960	1	16
345.157	1	16
346.354	1	7
347.552	1	18
348.749	1	15
349.946	1	4
351.143	1	14
352.340	1	13
353.537	1	2
354.734	1	16
355.931	1	20
357.127	1	28
358.324	1	23
359.521	1	36
360.718	1	40
361.914	1	45
363.111	1	69
364.308	1	114
365.504	1	140
366.701	1	169
367.897	1	218
369.093	1	207
370.290	1	172
371.486	1	145
372.682	1	130
373.879	1	92
375.075	1	81
376.271	1	71
377.467	1	62
378.663	1	58
379.859	1	42
381.055	1	34
382.251	1	33
383.447	1	42
384.643	1	37
385.839	1	33
387.035	1	33
388.230	1	32
389.426	1	20
390.622	1	27
391.817	1	9
393.013	1	28
394.208	1	19
395.404	1	35
396.599	1	14
397.795	1	15
398.990	1	24
400.186	1	20
401.381	1	11
402.576	1	22
403.771	1	4
404.967	1	15
406.162	1	5
407.357	1	12
408.552	1	12
409.747	1	6
410.942	1	24
412.137	1	13
413.332	1	21
414.526	1	11
415.721	1	19
416.916	1	10
418.111	1	14
419.305	1	24
420.500	1	27
421.695	1	19
422.889	1	21
424.084	1	19
425.278	1	17
426.472	1	26
427.667	1	12
428.861	1	10
430.055	1	15
431.250	1	17
432.444	1	21
433.638	1	22
434.832	1	10
436.026	1	10
437.220	1	15
438.414	1	15
439.608	1	8
440.802	1	20
441.996	1	15
443.190	1	20
444.384	1	13
445.578	1	8
446.771	1	6
447.965	1	13
449.159	1	5
450.352	1	14
451.546	1	10
452.739	1	14
453.933	1	5
455.126	1	3
456.320	1	17
457.513	1	3
458.706	1	18
459.899	1	7
461.093	1	11
462.286	1	5
463.479	1	8
464.672	1	11
465.865	1	2
467.058	1	16
468.251	1	9
469.444	1	18
470.637	1	6
471.830	1	7
473.023	1	14
474.215	1	14
475.408	1	12
476.601	1	2
477.793	1	15
478.986	1	20
480.179	1	13
481.371	1	9
482.564	1	13
483.756	1	13
484.948	1	20
486.141	1	19
487.333	1	15
488.525	1	15
489.718	1	4
490.910	1	24
492.102	1	26
493.294	1	2
494.486	1	22
495.678	1	24
496.870	1	17
498.062	1	28
499.254	1	14
500.446	1	24
501.638	1	25
502.829	1	29
504.021	1	34
505.213	1	28
506.404	1	38
507.596	1	51
508.788	1	35
509.979	1	43
511.171	1	49
512.362	1	49
513.553	1	41
514.745	1	41
515.936	1	41
517.127	1	53
518.319	1	57
519.510	1	35
520.701	1	60
521.892	1	55
523.083	1	55
524.274	1	59
525.465	1	55
526.656	1	52
527.847	1	50
529.038	1	50
530.229	1	54
531.419	1	63
532.610	1	51
533.801	1	57
534.991	1	50
536.182	1	40
537.373	1	57
538.563	1	41
539.754	1	50
540.944	1	42
542.134	1	52
543.325	1	58
544.515	1	50
545.705	1	45
546.896	1	48
548.086	1	52
549.276	1	46
550.466	1	46
551.656	1	40
552.846	1	45
554.036	1	36
555.226	1	34
556.416	1	44
557.606	1	25
558.796	1	42
559.986	1	41
561.175	1	34
562.365	1	35
563.555	1	43
564.744	1	37
565.934	1	42
567.123	1	33
568.313	1	37
569.502	1	24
570.692	1	30
571.881	1	23
573.070	1	36
574.260	1	26
575.449	1	18
576.638	1	32
577.827	1	14
579.016	1	12
580.205	1	25
581.394	1	15
582.583	1	18
583.772	1	25
584.961	1	9
586.150	1	21
587.339	1	6
588.528	1	7
589.717	1	10
590.905	1	12
592.094	1	23
593.283	1	17
594.471	1	7
595.660	1	17
596.848	1	14
598.037	1	8
599.225	1	19
600.413	1	12
601.602	1	8
602.790	1	20
603.978	1	18
605.166	1	19
606.355	1	-5
607.543	1	10
608.731	1	6
609.919	1	6
611.107	1	20
612.295	1	7
613.483	1	14
614.671	1	9
615.858	1	0
617.046	1	14
618.234	1	1
619.422	1	22
620.609	1	3
621.797	1	14
622.985	1	6
624.172	1	13
625.360	1	11
626.547	1	6
627.735	1	10
628.922	1	9
630.109	1	-2
631.297	1	9
632.484	1	12
633.671	1	12
634.858	1	4
636.045	1	8
637.232	1	13
638.419	1	0
639.606	1	10
640.793	1	7
641.980	1	13
643.167	1	10
644.354	1	11
645.541	1	5
646.728	1	17
647.914	1	7
649.101	1	-3
650.288	1	9
651.474	1	19
652.661	1	13
653.847	1	16
655.034	1	10
656.220	1	10
657.406	1	6
658.593	1	16
659.779	1	10
660.965	1	-6
662.152	1	4
663.338	1	4
664.524	1	20
665.710	1	10
666.896	1	0
668.082	1	17
669.268	1	10
670.454	1	7
671.640	1	13
672.826	1	7
674.011	1	23
675.197	1	9
676.383	1	7
677.569	1	10
678.754	1	5
679.940	1	1
681.125	1	8
682.311	1	10
683.496	1	15
684.682	1	13
685.867	1	16
687.053	1	25
688.238	1	15
688.746	1	8

File: GaN_sample D_spot15_UVVIS_150 K_200um_450 ms 2x2mm1_75.txt
340.368	1	4
341.565	1	6
342.763	1	6
343.960	1	8
345.157	1	12
346.354	1	4
347.552	1	13
348.749	1	17
349.946	1	8
351.143	1	12
352.340	1	24
353.537	1	-1
354.734	1	15
355.931	1	13
357.127	1	19
358.324	1	28
359.521	1	41
360.718	1	39
361.914	1	47
363.111	1	72
364.308	1	102
365.504	1	143
366.701	1	178
367.897	1	209
369.093	1	197
370.290	1	169
371.486	1	151
372.682	1	112
373.879	1	99
375.075	1	91
376.271	1	67
377.467	1	65
378.663	1	58
379.859	1	45
381.055	1	36
382.251	1	26
383.447	1	31
384.643	1	24
385.839	1	33
387.035	1	31
388.230	1	19
389.426	1	18
390.622	1	16
391.817	1	14
393.013	1	18
394.208	1	21
395.404	1	25
396.599	1	13
397.795	1	12
398.990	1	25
400.186	1	18
401.381	1	11
402.576	1	24
403.771	1	11
404.967	1	20
406.162	1	6
407.357	1	29
408.552	1	17
409.747	1	14
410.942	1	30
412.137	1	14
413.332	1	16
414.526	1	17
415.721	1	10
416.916	1	13
418.111	1	21
419.305	1	24
420.500	1	13
421.695	1	18
422.889	1	17
424.084	1	16
425.278	1	22
426.472	1	20
427.667	1	20
428.861	1	9
430.055	1	24
431.250	1	20
432.444	1	18
433.638	1	21
434.832	1	14
436.026	1	21
437.220	1	23
438.414	1	12
439.608	1	7
440.802	1	14
441.996	1	15
443.190	1	6
444.384	1	14
445.578	1	7
446.771	1	15
447.965	1	7
449.159	1	4
450.352	1	3
451.546	1	10
452.739	1	4
453.933	1	5
455.126	1	7
456.320	1	18
457.513	1	9
458.706	1	19
459.899	1	5
461.093	1	16
462.286	1	4
463.479	1	6
464.672	1	8
465.865	1	8
467.058	1	10
468.251	1	7
469.444	1	12
470.637	1	11
471.830	1	11
473.023	1	17
474.215	1	16
475.408	1	16
476.601	1	12
477.793	1	6
478.986	1	16
480.179	1	15
481.371	1	8
482.564	1	17
483.756	1	17
484.948	1	18
486.141	1	17
487.333	1	6
488.525	1	7
489.718	1	18
490.910	1	22
492.102	1	13
493.294	1	9
494.486	1	15
495.678	1	17
496.870	1	23
498.062	1	34
499.254	1	16
500.446	1	21
501.638	1	41
502.829	1	32
504.021	1	33
505.213	1	40
506.404	1	40
507.596	1	36
508.788	1	35
509.979	1	42
511.171	1	46
512.362	1	52
513.553	1	41
514.745	1	37
515.936	1	41
517.127	1	51
518.319	1	41
519.510	1	45
520.701	1	58
521.892	1	48
523.083	1	46
524.274	1	48
525.465	1	48
526.656	1	56
527.847	1	47
529.038	1	56
530.229	1	57
531.419	1	57
532.610	1	58
533.801	1	65
534.991	1	51
536.182	1	51
537.373	1	49
538.563	1	44
539.754	1	56
540.944	1	55
542.134	1	49
543.325	1	47
544.515	1	46
545.705	1	52
546.896	1	54
548.086	1	51
549.276	1	45
550.466	1	37
551.656	1	48
552.846	1	40
554.036	1	50
555.226	1	39
556.416	1	48
557.606	1	35
558.796	1	43
559.986	1	36
561.175	1	32
562.365	1	26
563.555	1	37
564.744	1	40
565.934	1	42
567.123	1	19
568.313	1	34
569.502	1	38
570.692	1	36
571.881	1	30
573.070	1	20
574.260	1	29
575.449	1	19
576.638	1	23
577.827	1	16
579.016	1	19
580.205	1	22
581.394	1	17
582.583	1	21
583.772	1	21
584.961	1	11
586.150	1	10
587.339	1	22
588.528	1	11
589.717	1	21
590.905	1	13
592.094	1	16
593.283	1	11
594.471	1	-3
595.660	1	20
596.848	1	19
598.037	1	11
599.225	1	13
600.413	1	17
601.602	1	17
602.790	1	16
603.978	1	8
605.166	1	8
606.355	1	1
607.543	1	13
608.731	1	2
609.919	1	-3
611.107	1	19
612.295	1	16
613.483	1	14
614.671	1	9
615.858	1	2
617.046	1	8
618.234	1	2
619.422	1	26
620.609	1	7
621.797	1	9
622.985	1	8
624.172	1	12
625.360	1	13
626.547	1	11
627.735	1	13
628.922	1	13
630.109	1	-1
631.297	1	8
632.484	1	8
633.671	1	14
634.858	1	14
636.045	1	8
637.232	1	9
638.419	1	12
639.606	1	18
640.793	1	12
641.980	1	8
643.167	1	8
644.354	1	12
645.541	1	7
646.728	1	13
647.914	1	8
649.101	1	4
650.288	1	9
651.474	1	14
652.661	1	16
653.847	1	12
655.034	1	14
656.220	1	15
657.406	1	-1
658.593	1	12
659.779	1	8
660.965	1	12
662.152	1	8
663.338	1	0
664.524	1	7
665.710	1	20
666.896	1	14
668.082	1	14
669.268	1	1
670.454	1	22
671.640	1	10
672.826	1	9
674.011	1	12
675.197	1	6
676.383	1	7
677.569	1	25
678.754	1	5
679.940	1	8
681.125	1	3
682.311	1	16
683.496	1	3
684.682	1	10
685.867	1	8
687.053	1	28
688.238	1	24
688.746	1	5

File: GaN_sample D_spot15_UVVIS_150 K_200um_450 ms 2x2mm1_76.txt
340.368	1	3
341.565	1	3
342.763	1	9
343.960	1	9
345.157	1	17
346.354	1	3
347.552	1	19
348.749	1	18
349.946	1	2
351.143	1	9
352.340	1	5
353.537	1	1
354.734	1	9
355.931	1	23
357.127	1	21
358.324	1	19
359.521	1	45
360.718	1	49
361.914	1	43
363.111	1	62
364.308	1	97
365.504	1	128
366.701	1	171
367.897	1	180
369.093	1	176
370.290	1	158
371.486	1	139
372.682	1	113
373.879	1	93
375.075	1	64
376.271	1	71
377.467	1	65
378.663	1	50
379.859	1	37
381.055	1	43
382.251	1	26
383.447	1	40
384.643	1	28
385.839	1	37
387.035	1	26
388.230	1	27
389.426	1	20
390.622	1	12
391.817	1	6
393.013	1	16
394.208	1	13
395.404	1	28
396.599	1	18
397.795	1	11
398.990	1	27
400.186	1	13
401.381	1	11
402.576	1	12
403.771	1	10
404.967	1	23
406.162	1	4
407.357	1	12
408.552	1	24
409.747	1	14
410.942	1	22
412.137	1	14
413.332	1	22
414.526	1	13
415.721	1	17
416.916	1	16
418.111	1	24
419.305	1	22
420.500	1	23
421.695	1	22
422.889	1	11
424.084	1	18
425.278	1	28
426.472	1	23
427.667	1	13
428.861	1	10
430.055	1	16
431.250	1	21
432.444	1	14
433.638	1	16
434.832	1	9
436.026	1	4
437.220	1	13
438.414	1	17
439.608	1	6
440.802	1	6
441.996	1	9
443.190	1	7
444.384	1	10
445.578	1	15
446.771	1	17
447.965	1	14
449.159	1	5
450.352	1	12
451.546	1	7
452.739	1	4
453.933	1	9
455.126	1	8
456.320	1	17
457.513	1	11
458.706	1	12
459.899	1	5
461.093	1	15
462.286	1	4
463.479	1	4
464.672	1	9
465.865	1	13
467.058	1	11
468.251	1	7
469.444	1	9
470.637	1	0
471.830	1	13
473.023	1	18
474.215	1	12
475.408	1	5
476.601	1	11
477.793	1	10
478.986	1	11
480.179	1	11
481.371	1	10
482.564	1	11
483.756	1	6
484.948	1	14
486.141	1	8
487.333	1	1
488.525	1	13
489.718	1	6
490.910	1	21
492.102	1	23
493.294	1	6
494.486	1	10
495.678	1	23
496.870	1	33
498.062	1	28
499.254	1	28
500.446	1	18
501.638	1	33
502.829	1	33
504.021	1	35
505.213	1	33
506.404	1	39
507.596	1	37
508.788	1	36
509.979	1	36
511.171	1	38
512.362	1	52
513.553	1	43
514.745	1	40
515.936	1	41
517.127	1	59
518.319	1	35
519.510	1	52
520.701	1	48
521.892	1	53
523.083	1	44
524.274	1	45
525.465	1	53
526.656	1	50
527.847	1	37
529.038	1	48
530.229	1	53
531.419	1	52
532.610	1	54
533.801	1	47
534.991	1	48
536.182	1	45
537.373	1	47
538.563	1	41
539.754	1	45
540.944	1	45
542.134	1	49
543.325	1	48
544.515	1	45
545.705	1	36
546.896	1	42
548.086	1	43
549.276	1	43
550.466	1	45
551.656	1	41
552.846	1	41
554.036	1	47
555.226	1	39
556.416	1	43
557.606	1	25
558.796	1	37
559.986	1	41
561.175	1	24
562.365	1	38
563.555	1	38
564.744	1	39
565.934	1	34
567.123	1	30
568.313	1	25
569.502	1	28
570.692	1	35
571.881	1	24
573.070	1	27
574.260	1	24
575.449	1	15
576.638	1	22
577.827	1	17
579.016	1	8
580.205	1	17
581.394	1	26
582.583	1	13
583.772	1	25
584.961	1	11
586.150	1	17
587.339	1	7
588.528	1	17
589.717	1	17
590.905	1	9
592.094	1	13
593.283	1	19
594.471	1	10
595.660	1	17
596.848	1	11
598.037	1	17
599.225	1	12
600.413	1	18
601.602	1	13
602.790	1	18
603.978	1	7
605.166	1	16
606.355	1	2
607.543	1	16
608.731	1	0
609.919	1	9
611.107	1	23
612.295	1	16
613.483	1	10
614.671	1	10
615.858	1	1
617.046	1	10
618.234	1	1
619.422	1	22
620.609	1	6
621.797	1	2
622.985	1	12
624.172	1	13
625.360	1	15
626.547	1	10
627.735	1	7
628.922	1	14
630.109	1	3
631.297	1	14
632.484	1	15
633.671	1	18
634.858	1	8
636.045	1	4
637.232	1	9
638.419	1	8
639.606	1	16
640.793	1	13
641.980	1	25
643.167	1	11
644.354	1	19
645.541	1	0
646.728	1	13
647.914	1	6
649.101	1	-3
650.288	1	14
651.474	1	11
652.661	1	14
653.847	1	14
655.034	1	4
656.220	1	13
657.406	1	9
658.593	1	15
659.779	1	17
660.965	1	8
662.152	1	2
663.338	1	1
664.524	1	19
665.710	1	12
666.896	1	7
668.082	1	0
669.268	1	0
670.454	1	12
671.640	1	12
672.826	1	-1
674.011	1	11
675.197	1	14
676.383	1	8
677.569	1	23
678.754	1	14
679.940	1	-3
681.125	1	9
682.311	1	10
683.496	1	4
684.682	1	9
685.867	1	6
687.053	1	20
688.238	1	11
688.746	1	0

File: GaN_sample D_spot15_UVVIS_150 K_200um_450 ms 2x2mm1_77.txt
340.368	1	-1
341.565	1	2
342.763	1	8
343.960	1	8
345.157	1	17
346.354	1	6
347.552	1	16
348.749	1	11
349.946	1	0
351.143	1	6
352.340	1	18
353.537	1	8
354.734	1	13
355.931	1	17
357.127	1	29
358.324	1	21
359.521	1	30
360.718	1	37
361.914	1	56
363.111	1	65
364.308	1	88
365.504	1	113
366.701	1	163
367.897	1	188
369.093	1	176
370.290	1	164
371.486	1	131
372.682	1	105
373.879	1	89
375.075	1	69
376.271	1	72
377.467	1	61
378.663	1	46
379.859	1	40
381.055	1	34
382.251	1	30
383.447	1	35
384.643	1	25
385.839	1	23
387.035	1	25
388.230	1	25
389.426	1	2
390.622	1	14
391.817	1	11
393.013	1	18
394.208	1	18
395.404	1	19
396.599	1	19
397.795	1	12
398.990	1	27
400.186	1	10
401.381	1	11
402.576	1	20
403.771	1	6
404.967	1	20
406.162	1	10
407.357	1	5
408.552	1	21
409.747	1	7
410.942	1	20
412.137	1	15
413.332	1	11
414.526	1	4
415.721	1	15
416.916	1	15
418.111	1	11
419.305	1	23
420.500	1	27
421.695	1	24
422.889	1	15
424.084	1	24
425.278	1	5
426.472	1	26
427.667	1	6
428.861	1	17
430.055	1	22
431.250	1	12
432.444	1	19
433.638	1	31
434.832	1	14
436.026	1	18
437.220	1	25
438.414	1	26
439.608	1	5
440.802	1	10
441.996	1	9
443.190	1	21
444.384	1	15
445.578	1	17
446.771	1	21
447.965	1	19
449.159	1	13
450.352	1	7
451.546	1	13
452.739	1	12
453.933	1	5
455.126	1	7
456.320	1	16
457.513	1	15
458.706	1	19
459.899	1	2
461.093	1	17
462.286	1	6
463.479	1	7
464.672	1	16
465.865	1	6
467.058	1	15
468.251	1	9
469.444	1	22
470.637	1	11
471.830	1	12
473.023	1	2
474.215	1	12
475.408	1	7
476.601	1	11
477.793	1	5
478.986	1	13
480.179	1	6
481.371	1	14
482.564	1	16
483.756	1	13
484.948	1	17
486.141	1	20
487.333	1	7
488.525	1	14
489.718	1	4
490.910	1	25
492.102	1	17
493.294	1	6
494.486	1	20
495.678	1	16
496.870	1	22
498.062	1	13
499.254	1	20
500.446	1	23
501.638	1	31
502.829	1	27
504.021	1	29
505.213	1	25
506.404	1	40
507.596	1	40
508.788	1	30
509.979	1	42
511.171	1	38
512.362	1	42
513.553	1	44
514.745	1	46
515.936	1	41
517.127	1	53
518.319	1	39
519.510	1	42
520.701	1	53
521.892	1	45
523.083	1	52
524.274	1	49
525.465	1	57
526.656	1	47
527.847	1	40
529.038	1	45
530.229	1	59
531.419	1	58
532.610	1	50
533.801	1	54
534.991	1	49
536.182	1	38
537.373	1	35
538.563	1	35
539.754	1	39
540.944	1	45
542.134	1	45
543.325	1	44
544.515	1	41
545.705	1	40
546.896	1	45
548.086	1	42
549.276	1	44
550.466	1	32
551.656	1	44
552.846	1	39
554.036	1	43
555.226	1	50
556.416	1	47
557.606	1	24
558.796	1	40
559.986	1	41
561.175	1	28
562.365	1	33
563.555	1	23
564.744	1	46
565.934	1	33
567.123	1	21
568.313	1	33
569.502	1	19
570.692	1	26
571.881	1	25
573.070	1	22
574.260	1	27
575.449	1	19
576.638	1	32
577.827	1	12
579.016	1	20
580.205	1	16
581.394	1	19
582.583	1	15
583.772	1	18
584.961	1	15
586.150	1	28
587.339	1	9
588.528	1	18
589.717	1	17
590.905	1	17
592.094	1	15
593.283	1	15
594.471	1	6
595.660	1	16
596.848	1	8
598.037	1	8
599.225	1	8
600.413	1	12
601.602	1	19
602.790	1	17
603.978	1	17
605.166	1	9
606.355	1	0
607.543	1	9
608.731	1	4
609.919	1	3
611.107	1	18
612.295	1	13
613.483	1	11
614.671	1	19
615.858	1	-2
617.046	1	14
618.234	1	3
619.422	1	17
620.609	1	5
621.797	1	13
622.985	1	6
624.172	1	13
625.360	1	8
626.547	1	1
627.735	1	4
628.922	1	12
630.109	1	-2
631.297	1	4
632.484	1	19
633.671	1	10
634.858	1	4
636.045	1	6
637.232	1	6
638.419	1	10
639.606	1	22
640.793	1	12
641.980	1	14
643.167	1	11
644.354	1	11
645.541	1	13
646.728	1	16
647.914	1	18
649.101	1	0
650.288	1	11
651.474	1	15
652.661	1	10
653.847	1	8
655.034	1	10
656.220	1	10
657.406	1	8
658.593	1	17
659.779	1	16
660.965	1	3
662.152	1	7
663.338	1	7
664.524	1	9
665.710	1	-1
666.896	1	7
668.082	1	3
669.268	1	1
670.454	1	10
671.640	1	12
672.826	1	5
674.011	1	14
675.197	1	5
676.383	1	1
677.569	1	19
678.754	1	4
679.940	1	6
681.125	1	2
682.311	1	16
683.496	1	8
684.682	1	11
685.867	1	14
687.053	1	32
688.238	1	12
688.746	1	5

File: GaN_sample D_spot15_UVVIS_150 K_200um_450 ms 2x2mm1_78.txt
340.368	1	9
341.565	1	-2
342.763	1	5
343.960	1	10
345.157	1	20
346.354	1	7
347.552	1	16
348.749	1	16
349.946	1	5
351.143	1	9
352.340	1	18
353.537	1	4
354.734	1	16
355.931	1	8
357.127	1	20
358.324	1	12
359.521	1	30
360.718	1	41
361.914	1	55
363.111	1	62
364.308	1	90
365.504	1	113
366.701	1	168
367.897	1	177
369.093	1	183
370.290	1	163
371.486	1	128
372.682	1	112
373.879	1	81
375.075	1	64
376.271	1	67
377.467	1	67
378.663	1	53
379.859	1	35
381.055	1	34
382.251	1	24
383.447	1	30
384.643	1	27
385.839	1	33
387.035	1	26
388.230	1	13
389.426	1	13
390.622	1	20
391.817	1	11
393.013	1	22
394.208	1	14
395.404	1	17
396.599	1	14
397.795	1	13
398.990	1	27
400.186	1	24
401.381	1	4
402.576	1	25
403.771	1	4
404.967	1	26
406.162	1	14
407.357	1	13
408.552	1	2
409.747	1	18
410.942	1	17
412.137	1	22
413.332	1	16
414.526	1	3
415.721	1	18
416.916	1	17
418.111	1	17
419.305	1	14
420.500	1	12
421.695	1	21
422.889	1	11
424.084	1	14
425.278	1	26
426.472	1	23
427.667	1	11
428.861	1	13
430.055	1	13
431.250	1	10
432.444	1	15
433.638	1	20
434.832	1	15
436.026	1	18
437.220	1	20
438.414	1	15
439.608	1	22
440.802	1	5
441.996	1	17
443.190	1	8
444.384	1	24
445.578	1	4
446.771	1	9
447.965	1	13
449.159	1	13
450.352	1	3
451.546	1	9
452.739	1	21
453.933	1	4
455.126	1	9
456.320	1	13
457.513	1	6
458.706	1	18
459.899	1	9
461.093	1	18
462.286	1	6
463.479	1	8
464.672	1	13
465.865	1	15
467.058	1	9
468.251	1	9
469.444	1	19
470.637	1	12
471.830	1	5
473.023	1	7
474.215	1	9
475.408	1	14
476.601	1	19
477.793	1	17
478.986	1	21
480.179	1	11
481.371	1	7
482.564	1	14
483.756	1	8
484.948	1	-1
486.141	1	19
487.333	1	7
488.525	1	12
489.718	1	1
490.910	1	20
492.102	1	18
493.294	1	10
494.486	1	16
495.678	1	19
496.870	1	28
498.062	1	16
499.254	1	23
500.446	1	34
501.638	1	38
502.829	1	19
504.021	1	38
505.213	1	35
506.404	1	32
507.596	1	41
508.788	1	45
509.979	1	34
511.171	1	39
512.362	1	32
513.553	1	45
514.745	1	47
515.936	1	39
517.127	1	52
518.319	1	40
519.510	1	35
520.701	1	44
521.892	1	42
523.083	1	45
524.274	1	45
525.465	1	57
526.656	1	41
527.847	1	43
529.038	1	52
530.229	1	56
531.419	1	55
532.610	1	53
533.801	1	53
534.991	1	46
536.182	1	44
537.373	1	46
538.563	1	41
539.754	1	45
540.944	1	39
542.134	1	44
543.325	1	53
544.515	1	36
545.705	1	44
546.896	1	44
548.086	1	41
549.276	1	42
550.466	1	42
551.656	1	39
552.846	1	52
554.036	1	46
555.226	1	56
556.416	1	32
557.606	1	32
558.796	1	43
559.986	1	36
561.175	1	27
562.365	1	22
563.555	1	42
564.744	1	30
565.934	1	31
567.123	1	28
568.313	1	32
569.502	1	24
570.692	1	27
571.881	1	21
573.070	1	16
574.260	1	20
575.449	1	12
576.638	1	18
577.827	1	15
579.016	1	16
580.205	1	13
581.394	1	20
582.583	1	11
583.772	1	17
584.961	1	16
586.150	1	20
587.339	1	13
588.528	1	13
589.717	1	13
590.905	1	13
592.094	1	19
593.283	1	23
594.471	1	3
595.660	1	19
596.848	1	11
598.037	1	12
599.225	1	9
600.413	1	25
601.602	1	24
602.790	1	14
603.978	1	1
605.166	1	17
606.355	1	1
607.543	1	13
608.731	1	2
609.919	1	0
611.107	1	18
612.295	1	11
613.483	1	12
614.671	1	14
615.858	1	3
617.046	1	5
618.234	1	6
619.422	1	22
620.609	1	11
621.797	1	13
622.985	1	7
624.172	1	7
625.360	1	13
626.547	1	-4
627.735	1	14
628.922	1	4
630.109	1	8
631.297	1	11
632.484	1	7
633.671	1	9
634.858	1	4
636.045	1	5
637.232	1	12
638.419	1	7
639.606	1	15
640.793	1	10
641.980	1	17
643.167	1	8
644.354	1	12
645.541	1	9
646.728	1	4
647.914	1	-1
649.101	1	16
650.288	1	13
651.474	1	9
652.661	1	15
653.847	1	17
655.034	1	1
656.220	1	16
657.406	1	1
658.593	1	13
659.779	1	17
660.965	1	6
662.152	1	5
663.338	1	13
664.524	1	8
665.710	1	14
666.896	1	4
668.082	1	4
669.268	1	0
670.454	1	9
671.640	1	14
672.826	1	4
674.011	1	18
675.197	1	7
676.383	1	2
677.569	1	23
678.754	1	4
679.940	1	-2
681.125	1	2
682.311	1	22
683.496	1	5
684.682	1	18
685.867	1	4
687.053	1	21
688.238	1	16
688.746	1	12