Folder: cryo-il_analysis/Data/GaN_150K_450ms (part 4)

File: GaN_sample D_spot15_UVVIS_150 K_200um_450 ms 2x2mm1_54.txt
340.368	1	7
341.565	1	12
342.763	1	3
343.960	1	9
345.157	1	11
346.354	1	3
347.552	1	22
348.749	1	19
349.946	1	7
351.143	1	16
352.340	1	17
353.537	1	12
354.734	1	25
355.931	1	34
357.127	1	37
358.324	1	41
359.521	1	56
360.718	1	84
361.914	1	127
363.111	1	195
364.308	1	330
365.504	1	504
366.701	1	707
367.897	1	861
369.093	1	801
370.290	1	674
371.486	1	519
372.682	1	408
373.879	1	324
375.075	1	272
376.271	1	224
377.467	1	189
378.663	1	142
379.859	1	136
381.055	1	115
382.251	1	105
383.447	1	101
384.643	1	109
385.839	1	95
387.035	1	107
388.230	1	100
389.426	1	81
390.622	1	70
391.817	1	68
393.013	1	65
394.208	1	62
395.404	1	67
396.599	1	68
397.795	1	62
398.990	1	81
400.186	1	61
401.381	1	60
402.576	1	55
403.771	1	36
404.967	1	50
406.162	1	44
407.357	1	48
408.552	1	37
409.747	1	40
410.942	1	43
412.137	1	33
413.332	1	34
414.526	1	10
415.721	1	45
416.916	1	37
418.111	1	37
419.305	1	38
420.500	1	32
421.695	1	33
422.889	1	36
424.084	1	37
425.278	1	31
426.472	1	41
427.667	1	32
428.861	1	36
430.055	1	38
431.250	1	27
432.444	1	33
433.638	1	32
434.832	1	15
436.026	1	18
437.220	1	28
438.414	1	23
439.608	1	18
440.802	1	18
441.996	1	22
443.190	1	25
444.384	1	24
445.578	1	21
446.771	1	18
447.965	1	18
449.159	1	9
450.352	1	16
451.546	1	11
452.739	1	27
453.933	1	13
455.126	1	24
456.320	1	31
457.513	1	21
458.706	1	23
459.899	1	18
461.093	1	21
462.286	1	15
463.479	1	10
464.672	1	22
465.865	1	18
467.058	1	16
468.251	1	16
469.444	1	16
470.637	1	20
471.830	1	29
473.023	1	17
474.215	1	23
475.408	1	26
476.601	1	22
477.793	1	22
478.986	1	31
480.179	1	39
481.371	1	26
482.564	1	27
483.756	1	39
484.948	1	35
486.141	1	38
487.333	1	36
488.525	1	43
489.718	1	44
490.910	1	55
492.102	1	54
493.294	1	52
494.486	1	59
495.678	1	59
496.870	1	66
498.062	1	74
499.254	1	72
500.446	1	83
501.638	1	84
502.829	1	81
504.021	1	102
505.213	1	103
506.404	1	114
507.596	1	126
508.788	1	118
509.979	1	113
511.171	1	119
512.362	1	139
513.553	1	130
514.745	1	134
515.936	1	123
517.127	1	146
518.319	1	150
519.510	1	139
520.701	1	151
521.892	1	168
523.083	1	144
524.274	1	154
525.465	1	164
526.656	1	166
527.847	1	175
529.038	1	173
530.229	1	166
531.419	1	186
532.610	1	168
533.801	1	178
534.991	1	153
536.182	1	155
537.373	1	155
538.563	1	137
539.754	1	155
540.944	1	150
542.134	1	148
543.325	1	152
544.515	1	148
545.705	1	148
546.896	1	167
548.086	1	150
549.276	1	155
550.466	1	151
551.656	1	137
552.846	1	149
554.036	1	144
555.226	1	127
556.416	1	131
557.606	1	117
558.796	1	122
559.986	1	122
561.175	1	116
562.365	1	122
563.555	1	118
564.744	1	115
565.934	1	109
567.123	1	100
568.313	1	110
569.502	1	105
570.692	1	92
571.881	1	90
573.070	1	93
574.260	1	92
575.449	1	82
576.638	1	88
577.827	1	74
579.016	1	80
580.205	1	93
581.394	1	78
582.583	1	82
583.772	1	82
584.961	1	65
586.150	1	84
587.339	1	70
588.528	1	71
589.717	1	72
590.905	1	55
592.094	1	57
593.283	1	60
594.471	1	55
595.660	1	63
596.848	1	53
598.037	1	63
599.225	1	48
600.413	1	52
601.602	1	67
602.790	1	66
603.978	1	58
605.166	1	64
606.355	1	48
607.543	1	63
608.731	1	44
609.919	1	36
611.107	1	64
612.295	1	54
613.483	1	38
614.671	1	42
615.858	1	37
617.046	1	37
618.234	1	41
619.422	1	51
620.609	1	37
621.797	1	48
622.985	1	40
624.172	1	39
625.360	1	41
626.547	1	40
627.735	1	27
628.922	1	42
630.109	1	35
631.297	1	47
632.484	1	43
633.671	1	42
634.858	1	44
636.045	1	25
637.232	1	36
638.419	1	37
639.606	1	37
640.793	1	27
641.980	1	49
643.167	1	42
644.354	1	34
645.541	1	29
646.728	1	38
647.914	1	32
649.101	1	32
650.288	1	40
651.474	1	37
652.661	1	39
653.847	1	41
655.034	1	18
656.220	1	37
657.406	1	30
658.593	1	27
659.779	1	30
660.965	1	25
662.152	1	23
663.338	1	16
664.524	1	24
665.710	1	17
666.896	1	28
668.082	1	18
669.268	1	28
670.454	1	30
671.640	1	38
672.826	1	23
674.011	1	33
675.197	1	29
676.383	1	28
677.569	1	31
678.754	1	32
679.940	1	20
681.125	1	30
682.311	1	24
683.496	1	29
684.682	1	41
685.867	1	31
687.053	1	35
688.238	1	48
688.746	1	38

File: GaN_sample D_spot15_UVVIS_150 K_200um_450 ms 2x2mm1_55.txt
340.368	1	8
341.565	1	8
342.763	1	2
343.960	1	15
345.157	1	14
346.354	1	7
347.552	1	17
348.749	1	19
349.946	1	3
351.143	1	15
352.340	1	17
353.537	1	18
354.734	1	22
355.931	1	20
357.127	1	39
358.324	1	41
359.521	1	68
360.718	1	80
361.914	1	122
363.111	1	184
364.308	1	295
365.504	1	454
366.701	1	631
367.897	1	742
369.093	1	723
370.290	1	605
371.486	1	458
372.682	1	349
373.879	1	312
375.075	1	233
376.271	1	206
377.467	1	169
378.663	1	138
379.859	1	122
381.055	1	91
382.251	1	88
383.447	1	88
384.643	1	89
385.839	1	97
387.035	1	83
388.230	1	66
389.426	1	65
390.622	1	64
391.817	1	58
393.013	1	54
394.208	1	61
395.404	1	57
396.599	1	57
397.795	1	45
398.990	1	56
400.186	1	40
401.381	1	36
402.576	1	46
403.771	1	34
404.967	1	37
406.162	1	29
407.357	1	37
408.552	1	40
409.747	1	25
410.942	1	34
412.137	1	32
413.332	1	29
414.526	1	23
415.721	1	29
416.916	1	18
418.111	1	33
419.305	1	22
420.500	1	25
421.695	1	22
422.889	1	24
424.084	1	17
425.278	1	22
426.472	1	32
427.667	1	24
428.861	1	24
430.055	1	27
431.250	1	31
432.444	1	19
433.638	1	32
434.832	1	12
436.026	1	12
437.220	1	29
438.414	1	24
439.608	1	14
440.802	1	21
441.996	1	22
443.190	1	22
444.384	1	24
445.578	1	7
446.771	1	28
447.965	1	21
449.159	1	15
450.352	1	23
451.546	1	22
452.739	1	25
453.933	1	7
455.126	1	26
456.320	1	22
457.513	1	15
458.706	1	23
459.899	1	15
461.093	1	26
462.286	1	12
463.479	1	14
464.672	1	20
465.865	1	16
467.058	1	20
468.251	1	12
469.444	1	26
470.637	1	15
471.830	1	13
473.023	1	32
474.215	1	23
475.408	1	25
476.601	1	17
477.793	1	22
478.986	1	30
480.179	1	35
481.371	1	23
482.564	1	37
483.756	1	37
484.948	1	44
486.141	1	43
487.333	1	35
488.525	1	44
489.718	1	45
490.910	1	55
492.102	1	50
493.294	1	51
494.486	1	58
495.678	1	58
496.870	1	73
498.062	1	74
499.254	1	73
500.446	1	75
501.638	1	80
502.829	1	77
504.021	1	87
505.213	1	97
506.404	1	93
507.596	1	106
508.788	1	107
509.979	1	101
511.171	1	104
512.362	1	116
513.553	1	112
514.745	1	121
515.936	1	123
517.127	1	133
518.319	1	134
519.510	1	130
520.701	1	140
521.892	1	127
523.083	1	136
524.274	1	137
525.465	1	151
526.656	1	146
527.847	1	141
529.038	1	159
530.229	1	158
531.419	1	173
532.610	1	157
533.801	1	161
534.991	1	149
536.182	1	145
537.373	1	137
538.563	1	135
539.754	1	133
540.944	1	132
542.134	1	126
543.325	1	140
544.515	1	133
545.705	1	142
546.896	1	141
548.086	1	136
549.276	1	123
550.466	1	135
551.656	1	129
552.846	1	131
554.036	1	125
555.226	1	117
556.416	1	116
557.606	1	106
558.796	1	104
559.986	1	101
561.175	1	104
562.365	1	106
563.555	1	104
564.744	1	102
565.934	1	107
567.123	1	86
568.313	1	87
569.502	1	90
570.692	1	89
571.881	1	80
573.070	1	89
574.260	1	77
575.449	1	68
576.638	1	83
577.827	1	72
579.016	1	74
580.205	1	64
581.394	1	80
582.583	1	82
583.772	1	70
584.961	1	62
586.150	1	67
587.339	1	57
588.528	1	54
589.717	1	60
590.905	1	49
592.094	1	58
593.283	1	50
594.471	1	49
595.660	1	57
596.848	1	54
598.037	1	50
599.225	1	45
600.413	1	46
601.602	1	58
602.790	1	54
603.978	1	46
605.166	1	41
606.355	1	46
607.543	1	49
608.731	1	35
609.919	1	30
611.107	1	47
612.295	1	41
613.483	1	36
614.671	1	44
615.858	1	27
617.046	1	45
618.234	1	36
619.422	1	42
620.609	1	38
621.797	1	37
622.985	1	33
624.172	1	28
625.360	1	37
626.547	1	29
627.735	1	40
628.922	1	27
630.109	1	27
631.297	1	34
632.484	1	41
633.671	1	37
634.858	1	30
636.045	1	24
637.232	1	35
638.419	1	25
639.606	1	37
640.793	1	16
641.980	1	37
643.167	1	33
644.354	1	28
645.541	1	34
646.728	1	25
647.914	1	26
649.101	1	25
650.288	1	25
651.474	1	31
652.661	1	22
653.847	1	24
655.034	1	30
656.220	1	33
657.406	1	15
658.593	1	25
659.779	1	23
660.965	1	33
662.152	1	22
663.338	1	16
664.524	1	21
665.710	1	20
666.896	1	30
668.082	1	18
669.268	1	19
670.454	1	18
671.640	1	37
672.826	1	18
674.011	1	28
675.197	1	26
676.383	1	11
677.569	1	30
678.754	1	23
679.940	1	28
681.125	1	10
682.311	1	27
683.496	1	20
684.682	1	28
685.867	1	20
687.053	1	34
688.238	1	39
688.746	1	28

File: GaN_sample D_spot15_UVVIS_150 K_200um_450 ms 2x2mm1_56.txt
340.368	1	-2
341.565	1	-2
342.763	1	5
343.960	1	9
345.157	1	11
346.354	1	7
347.552	1	21
348.749	1	10
349.946	1	10
351.143	1	11
352.340	1	29
353.537	1	13
354.734	1	19
355.931	1	21
357.127	1	38
358.324	1	41
359.521	1	54
360.718	1	76
361.914	1	118
363.111	1	164
364.308	1	267
365.504	1	411
366.701	1	567
367.897	1	674
369.093	1	666
370.290	1	528
371.486	1	430
372.682	1	318
373.879	1	279
375.075	1	218
376.271	1	183
377.467	1	143
378.663	1	123
379.859	1	99
381.055	1	93
382.251	1	82
383.447	1	88
384.643	1	76
385.839	1	77
387.035	1	77
388.230	1	58
389.426	1	54
390.622	1	67
391.817	1	47
393.013	1	46
394.208	1	45
395.404	1	50
396.599	1	52
397.795	1	46
398.990	1	53
400.186	1	38
401.381	1	42
402.576	1	36
403.771	1	27
404.967	1	38
406.162	1	25
407.357	1	36
408.552	1	27
409.747	1	28
410.942	1	46
412.137	1	33
413.332	1	30
414.526	1	25
415.721	1	30
416.916	1	26
418.111	1	36
419.305	1	31
420.500	1	18
421.695	1	32
422.889	1	20
424.084	1	16
425.278	1	20
426.472	1	34
427.667	1	18
428.861	1	34
430.055	1	25
431.250	1	34
432.444	1	14
433.638	1	14
434.832	1	21
436.026	1	12
437.220	1	18
438.414	1	26
439.608	1	13
440.802	1	19
441.996	1	13
443.190	1	18
444.384	1	22
445.578	1	7
446.771	1	21
447.965	1	18
449.159	1	8
450.352	1	18
451.546	1	13
452.739	1	13
453.933	1	3
455.126	1	9
456.320	1	22
457.513	1	14
458.706	1	22
459.899	1	9
461.093	1	21
462.286	1	23
463.479	1	14
464.672	1	17
465.865	1	15
467.058	1	17
468.251	1	14
469.444	1	20
470.637	1	21
471.830	1	11
473.023	1	13
474.215	1	17
475.408	1	25
476.601	1	14
477.793	1	21
478.986	1	27
480.179	1	21
481.371	1	17
482.564	1	28
483.756	1	27
484.948	1	38
486.141	1	32
487.333	1	28
488.525	1	40
489.718	1	32
490.910	1	48
492.102	1	57
493.294	1	43
494.486	1	56
495.678	1	50
496.870	1	55
498.062	1	60
499.254	1	58
500.446	1	68
501.638	1	75
502.829	1	66
504.021	1	83
505.213	1	75
506.404	1	90
507.596	1	99
508.788	1	98
509.979	1	99
511.171	1	107
512.362	1	109
513.553	1	113
514.745	1	118
515.936	1	114
517.127	1	112
518.319	1	119
519.510	1	119
520.701	1	137
521.892	1	129
523.083	1	121
524.274	1	134
525.465	1	131
526.656	1	143
527.847	1	126
529.038	1	144
530.229	1	148
531.419	1	145
532.610	1	135
533.801	1	144
534.991	1	138
536.182	1	130
537.373	1	129
538.563	1	108
539.754	1	126
540.944	1	126
542.134	1	131
543.325	1	131
544.515	1	127
545.705	1	128
546.896	1	113
548.086	1	115
549.276	1	115
550.466	1	123
551.656	1	126
552.846	1	109
554.036	1	104
555.226	1	113
556.416	1	103
557.606	1	92
558.796	1	106
559.986	1	87
561.175	1	83
562.365	1	93
563.555	1	89
564.744	1	93
565.934	1	93
567.123	1	73
568.313	1	80
569.502	1	82
570.692	1	80
571.881	1	77
573.070	1	75
574.260	1	71
575.449	1	63
576.638	1	72
577.827	1	65
579.016	1	66
580.205	1	69
581.394	1	61
582.583	1	67
583.772	1	61
584.961	1	50
586.150	1	67
587.339	1	57
588.528	1	45
589.717	1	47
590.905	1	51
592.094	1	48
593.283	1	45
594.471	1	36
595.660	1	38
596.848	1	44
598.037	1	30
599.225	1	44
600.413	1	48
601.602	1	42
602.790	1	43
603.978	1	40
605.166	1	48
606.355	1	33
607.543	1	47
608.731	1	33
609.919	1	32
611.107	1	43
612.295	1	41
613.483	1	27
614.671	1	33
615.858	1	25
617.046	1	27
618.234	1	27
619.422	1	36
620.609	1	32
621.797	1	33
622.985	1	39
624.172	1	35
625.360	1	32
626.547	1	36
627.735	1	42
628.922	1	38
630.109	1	19
631.297	1	31
632.484	1	33
633.671	1	37
634.858	1	28
636.045	1	20
637.232	1	30
638.419	1	15
639.606	1	30
640.793	1	20
641.980	1	34
643.167	1	21
644.354	1	33
645.541	1	20
646.728	1	21
647.914	1	24
649.101	1	36
650.288	1	19
651.474	1	31
652.661	1	23
653.847	1	25
655.034	1	22
656.220	1	16
657.406	1	17
658.593	1	26
659.779	1	28
660.965	1	23
662.152	1	14
663.338	1	12
664.524	1	25
665.710	1	28
666.896	1	21
668.082	1	22
669.268	1	12
670.454	1	17
671.640	1	25
672.826	1	18
674.011	1	28
675.197	1	21
676.383	1	17
677.569	1	34
678.754	1	19
679.940	1	28
681.125	1	18
682.311	1	24
683.496	1	6
684.682	1	29
685.867	1	13
687.053	1	31
688.238	1	33
688.746	1	14

File: GaN_sample D_spot15_UVVIS_150 K_200um_450 ms 2x2mm1_57.txt
340.368	1	3
341.565	1	8
342.763	1	-4
343.960	1	7
345.157	1	15
346.354	1	1
347.552	1	30
348.749	1	9
349.946	1	11
351.143	1	17
352.340	1	26
353.537	1	13
354.734	1	23
355.931	1	30
357.127	1	30
358.324	1	40
359.521	1	56
360.718	1	69
361.914	1	101
363.111	1	144
364.308	1	243
365.504	1	389
366.701	1	536
367.897	1	613
369.093	1	576
370.290	1	477
371.486	1	361
372.682	1	296
373.879	1	262
375.075	1	200
376.271	1	176
377.467	1	153
378.663	1	119
379.859	1	90
381.055	1	87
382.251	1	72
383.447	1	84
384.643	1	85
385.839	1	80
387.035	1	67
388.230	1	51
389.426	1	46
390.622	1	50
391.817	1	43
393.013	1	59
394.208	1	41
395.404	1	45
396.599	1	40
397.795	1	32
398.990	1	49
400.186	1	46
401.381	1	26
402.576	1	24
403.771	1	21
404.967	1	35
406.162	1	19
407.357	1	30
408.552	1	33
409.747	1	27
410.942	1	33
412.137	1	21
413.332	1	29
414.526	1	6
415.721	1	23
416.916	1	10
418.111	1	22
419.305	1	33
420.500	1	30
421.695	1	18
422.889	1	18
424.084	1	20
425.278	1	20
426.472	1	32
427.667	1	28
428.861	1	27
430.055	1	20
431.250	1	39
432.444	1	17
433.638	1	24
434.832	1	18
436.026	1	12
437.220	1	22
438.414	1	24
439.608	1	7
440.802	1	17
441.996	1	10
443.190	1	32
444.384	1	14
445.578	1	11
446.771	1	18
447.965	1	11
449.159	1	5
450.352	1	7
451.546	1	15
452.739	1	19
453.933	1	6
455.126	1	22
456.320	1	18
457.513	1	10
458.706	1	19
459.899	1	19
461.093	1	12
462.286	1	10
463.479	1	13
464.672	1	20
465.865	1	10
467.058	1	20
468.251	1	15
469.444	1	14
470.637	1	8
471.830	1	17
473.023	1	9
474.215	1	25
475.408	1	17
476.601	1	18
477.793	1	18
478.986	1	31
480.179	1	18
481.371	1	15
482.564	1	25
483.756	1	36
484.948	1	38
486.141	1	38
487.333	1	35
488.525	1	29
489.718	1	38
490.910	1	46
492.102	1	47
493.294	1	39
494.486	1	43
495.678	1	48
496.870	1	49
498.062	1	58
499.254	1	64
500.446	1	66
501.638	1	67
502.829	1	74
504.021	1	76
505.213	1	69
506.404	1	79
507.596	1	94
508.788	1	95
509.979	1	101
511.171	1	100
512.362	1	100
513.553	1	106
514.745	1	93
515.936	1	98
517.127	1	114
518.319	1	108
519.510	1	110
520.701	1	124
521.892	1	117
523.083	1	123
524.274	1	122
525.465	1	125
526.656	1	126
527.847	1	119
529.038	1	126
530.229	1	133
531.419	1	141
532.610	1	142
533.801	1	130
534.991	1	110
536.182	1	121
537.373	1	107
538.563	1	105
539.754	1	114
540.944	1	109
542.134	1	122
543.325	1	109
544.515	1	112
545.705	1	104
546.896	1	115
548.086	1	115
549.276	1	115
550.466	1	109
551.656	1	106
552.846	1	101
554.036	1	106
555.226	1	102
556.416	1	96
557.606	1	87
558.796	1	92
559.986	1	84
561.175	1	66
562.365	1	76
563.555	1	88
564.744	1	83
565.934	1	81
567.123	1	73
568.313	1	76
569.502	1	66
570.692	1	72
571.881	1	70
573.070	1	72
574.260	1	76
575.449	1	53
576.638	1	65
577.827	1	66
579.016	1	64
580.205	1	51
581.394	1	57
582.583	1	56
583.772	1	55
584.961	1	44
586.150	1	57
587.339	1	50
588.528	1	54
589.717	1	43
590.905	1	42
592.094	1	45
593.283	1	48
594.471	1	32
595.660	1	40
596.848	1	42
598.037	1	53
599.225	1	48
600.413	1	35
601.602	1	40
602.790	1	44
603.978	1	35
605.166	1	32
606.355	1	24
607.543	1	41
608.731	1	30
609.919	1	22
611.107	1	48
612.295	1	39
613.483	1	37
614.671	1	35
615.858	1	28
617.046	1	15
618.234	1	16
619.422	1	43
620.609	1	25
621.797	1	40
622.985	1	25
624.172	1	38
625.360	1	22
626.547	1	26
627.735	1	21
628.922	1	27
630.109	1	26
631.297	1	20
632.484	1	36
633.671	1	27
634.858	1	19
636.045	1	11
637.232	1	24
638.419	1	7
639.606	1	24
640.793	1	20
641.980	1	29
643.167	1	19
644.354	1	24
645.541	1	23
646.728	1	19
647.914	1	21
649.101	1	8
650.288	1	17
651.474	1	27
652.661	1	21
653.847	1	19
655.034	1	20
656.220	1	20
657.406	1	6
658.593	1	29
659.779	1	19
660.965	1	24
662.152	1	20
663.338	1	11
664.524	1	22
665.710	1	17
666.896	1	17
668.082	1	16
669.268	1	15
670.454	1	15
671.640	1	24
672.826	1	9
674.011	1	21
675.197	1	17
676.383	1	22
677.569	1	32
678.754	1	11
679.940	1	15
681.125	1	15
682.311	1	20
683.496	1	12
684.682	1	18
685.867	1	16
687.053	1	28
688.238	1	26
688.746	1	20

File: GaN_sample D_spot15_UVVIS_150 K_200um_450 ms 2x2mm1_58.txt
340.368	1	6
341.565	1	5
342.763	1	10
343.960	1	8
345.157	1	10
346.354	1	3
347.552	1	9
348.749	1	21
349.946	1	4
351.143	1	18
352.340	1	16
353.537	1	2
354.734	1	9
355.931	1	17
357.127	1	32
358.324	1	39
359.521	1	59
360.718	1	71
361.914	1	102
363.111	1	145
364.308	1	235
365.504	1	343
366.701	1	497
367.897	1	557
369.093	1	541
370.290	1	453
371.486	1	354
372.682	1	278
373.879	1	227
375.075	1	201
376.271	1	140
377.467	1	139
378.663	1	97
379.859	1	85
381.055	1	84
382.251	1	64
383.447	1	71
384.643	1	61
385.839	1	72
387.035	1	61
388.230	1	48
389.426	1	53
390.622	1	52
391.817	1	39
393.013	1	44
394.208	1	42
395.404	1	41
396.599	1	43
397.795	1	36
398.990	1	38
400.186	1	34
401.381	1	32
402.576	1	29
403.771	1	14
404.967	1	31
406.162	1	18
407.357	1	27
408.552	1	17
409.747	1	28
410.942	1	26
412.137	1	23
413.332	1	15
414.526	1	8
415.721	1	18
416.916	1	15
418.111	1	22
419.305	1	18
420.500	1	20
421.695	1	26
422.889	1	19
424.084	1	19
425.278	1	26
426.472	1	25
427.667	1	18
428.861	1	18
430.055	1	27
431.250	1	18
432.444	1	19
433.638	1	9
434.832	1	11
436.026	1	19
437.220	1	24
438.414	1	10
439.608	1	14
440.802	1	18
441.996	1	11
443.190	1	15
444.384	1	22
445.578	1	8
446.771	1	3
447.965	1	15
449.159	1	3
450.352	1	10
451.546	1	16
452.739	1	12
453.933	1	14
455.126	1	11
456.320	1	17
457.513	1	19
458.706	1	16
459.899	1	12
461.093	1	15
462.286	1	14
463.479	1	9
464.672	1	16
465.865	1	13
467.058	1	16
468.251	1	9
469.444	1	15
470.637	1	16
471.830	1	15
473.023	1	14
474.215	1	11
475.408	1	23
476.601	1	19
477.793	1	20
478.986	1	21
480.179	1	19
481.371	1	17
482.564	1	26
483.756	1	15
484.948	1	30
486.141	1	29
487.333	1	16
488.525	1	39
489.718	1	23
490.910	1	38
492.102	1	36
493.294	1	34
494.486	1	45
495.678	1	37
496.870	1	40
498.062	1	42
499.254	1	46
500.446	1	54
501.638	1	81
502.829	1	74
504.021	1	73
505.213	1	65
506.404	1	81
507.596	1	86
508.788	1	75
509.979	1	89
511.171	1	87
512.362	1	95
513.553	1	105
514.745	1	98
515.936	1	90
517.127	1	110
518.319	1	114
519.510	1	97
520.701	1	117
521.892	1	114
523.083	1	105
524.274	1	112
525.465	1	123
526.656	1	114
527.847	1	109
529.038	1	115
530.229	1	135
531.419	1	127
532.610	1	141
533.801	1	117
534.991	1	116
536.182	1	111
537.373	1	110
538.563	1	98
539.754	1	102
540.944	1	102
542.134	1	116
543.325	1	103
544.515	1	106
545.705	1	116
546.896	1	116
548.086	1	109
549.276	1	110
550.466	1	102
551.656	1	101
552.846	1	99
554.036	1	98
555.226	1	91
556.416	1	99
557.606	1	66
558.796	1	80
559.986	1	79
561.175	1	64
562.365	1	83
563.555	1	81
564.744	1	82
565.934	1	77
567.123	1	61
568.313	1	65
569.502	1	73
570.692	1	66
571.881	1	59
573.070	1	59
574.260	1	55
575.449	1	51
576.638	1	64
577.827	1	48
579.016	1	53
580.205	1	53
581.394	1	57
582.583	1	50
583.772	1	53
584.961	1	41
586.150	1	50
587.339	1	48
588.528	1	34
589.717	1	44
590.905	1	28
592.094	1	33
593.283	1	39
594.471	1	27
595.660	1	31
596.848	1	37
598.037	1	36
599.225	1	33
600.413	1	33
601.602	1	36
602.790	1	38
603.978	1	31
605.166	1	33
606.355	1	20
607.543	1	31
608.731	1	28
609.919	1	26
611.107	1	43
612.295	1	40
613.483	1	31
614.671	1	37
615.858	1	23
617.046	1	21
618.234	1	37
619.422	1	38
620.609	1	24
621.797	1	29
622.985	1	13
624.172	1	22
625.360	1	22
626.547	1	15
627.735	1	21
628.922	1	20
630.109	1	19
631.297	1	23
632.484	1	30
633.671	1	17
634.858	1	25
636.045	1	30
637.232	1	11
638.419	1	27
639.606	1	30
640.793	1	10
641.980	1	25
643.167	1	21
644.354	1	26
645.541	1	18
646.728	1	23
647.914	1	12
649.101	1	12
650.288	1	17
651.474	1	17
652.661	1	19
653.847	1	22
655.034	1	17
656.220	1	27
657.406	1	13
658.593	1	20
659.779	1	17
660.965	1	19
662.152	1	10
663.338	1	3
664.524	1	15
665.710	1	11
666.896	1	16
668.082	1	17
669.268	1	12
670.454	1	22
671.640	1	21
672.826	1	14
674.011	1	25
675.197	1	26
676.383	1	14
677.569	1	22
678.754	1	14
679.940	1	14
681.125	1	10
682.311	1	14
683.496	1	16
684.682	1	16
685.867	1	16
687.053	1	33
688.238	1	26
688.746	1	15

File: GaN_sample D_spot15_UVVIS_150 K_200um_450 ms 2x2mm1_59.txt
340.368	1	8
341.565	1	12
342.763	1	7
343.960	1	18
345.157	1	13
346.354	1	3
347.552	1	15
348.749	1	21
349.946	1	6
351.143	1	7
352.340	1	15
353.537	1	3
354.734	1	28
355.931	1	26
357.127	1	32
358.324	1	30
359.521	1	53
360.718	1	70
361.914	1	89
363.111	1	122
364.308	1	218
365.504	1	324
366.701	1	441
367.897	1	511
369.093	1	486
370.290	1	401
371.486	1	331
372.682	1	258
373.879	1	210
375.075	1	164
376.271	1	148
377.467	1	122
378.663	1	106
379.859	1	74
381.055	1	81
382.251	1	67
383.447	1	57
384.643	1	62
385.839	1	62
387.035	1	59
388.230	1	46
389.426	1	35
390.622	1	44
391.817	1	36
393.013	1	47
394.208	1	34
395.404	1	42
396.599	1	39
397.795	1	39
398.990	1	40
400.186	1	30
401.381	1	39
402.576	1	32
403.771	1	12
404.967	1	33
406.162	1	17
407.357	1	23
408.552	1	23
409.747	1	18
410.942	1	27
412.137	1	16
413.332	1	28
414.526	1	14
415.721	1	20
416.916	1	11
418.111	1	17
419.305	1	29
420.500	1	25
421.695	1	22
422.889	1	25
424.084	1	22
425.278	1	12
426.472	1	32
427.667	1	9
428.861	1	25
430.055	1	23
431.250	1	24
432.444	1	16
433.638	1	23
434.832	1	13
436.026	1	13
437.220	1	26
438.414	1	21
439.608	1	13
440.802	1	15
441.996	1	11
443.190	1	17
444.384	1	24
445.578	1	14
446.771	1	16
447.965	1	10
449.159	1	9
450.352	1	19
451.546	1	13
452.739	1	12
453.933	1	12
455.126	1	12
456.320	1	19
457.513	1	19
458.706	1	24
459.899	1	11
461.093	1	15
462.286	1	8
463.479	1	14
464.672	1	29
465.865	1	8
467.058	1	14
468.251	1	10
469.444	1	13
470.637	1	14
471.830	1	23
473.023	1	14
474.215	1	17
475.408	1	21
476.601	1	18
477.793	1	20
478.986	1	16
480.179	1	28
481.371	1	8
482.564	1	14
483.756	1	28
484.948	1	32
486.141	1	27
487.333	1	15
488.525	1	26
489.718	1	27
490.910	1	43
492.102	1	35
493.294	1	38
494.486	1	42
495.678	1	54
496.870	1	49
498.062	1	50
499.254	1	42
500.446	1	59
501.638	1	65
502.829	1	68
504.021	1	74
505.213	1	61
506.404	1	73
507.596	1	77
508.788	1	72
509.979	1	73
511.171	1	79
512.362	1	92
513.553	1	93
514.745	1	83
515.936	1	88
517.127	1	111
518.319	1	101
519.510	1	85
520.701	1	100
521.892	1	104
523.083	1	102
524.274	1	105
525.465	1	115
526.656	1	101
527.847	1	98
529.038	1	109
530.229	1	104
531.419	1	119
532.610	1	120
533.801	1	118
534.991	1	114
536.182	1	102
537.373	1	101
538.563	1	105
539.754	1	95
540.944	1	102
542.134	1	95
543.325	1	101
544.515	1	100
545.705	1	96
546.896	1	92
548.086	1	92
549.276	1	99
550.466	1	97
551.656	1	91
552.846	1	96
554.036	1	95
555.226	1	94
556.416	1	86
557.606	1	71
558.796	1	82
559.986	1	70
561.175	1	69
562.365	1	76
563.555	1	67
564.744	1	74
565.934	1	78
567.123	1	53
568.313	1	57
569.502	1	67
570.692	1	61
571.881	1	57
573.070	1	45
574.260	1	58
575.449	1	56
576.638	1	54
577.827	1	45
579.016	1	43
580.205	1	47
581.394	1	58
582.583	1	47
583.772	1	52
584.961	1	40
586.150	1	40
587.339	1	47
588.528	1	39
589.717	1	39
590.905	1	26
592.094	1	43
593.283	1	30
594.471	1	27
595.660	1	31
596.848	1	38
598.037	1	36
599.225	1	28
600.413	1	31
601.602	1	36
602.790	1	30
603.978	1	35
605.166	1	34
606.355	1	23
607.543	1	35
608.731	1	21
609.919	1	16
611.107	1	37
612.295	1	33
613.483	1	31
614.671	1	23
615.858	1	14
617.046	1	30
618.234	1	16
619.422	1	27
620.609	1	29
621.797	1	33
622.985	1	20
624.172	1	25
625.360	1	18
626.547	1	18
627.735	1	23
628.922	1	32
630.109	1	10
631.297	1	13
632.484	1	22
633.671	1	24
634.858	1	12
636.045	1	13
637.232	1	17
638.419	1	16
639.606	1	26
640.793	1	10
641.980	1	21
643.167	1	21
644.354	1	34
645.541	1	6
646.728	1	25
647.914	1	19
649.101	1	13
650.288	1	16
651.474	1	24
652.661	1	19
653.847	1	17
655.034	1	14
656.220	1	21
657.406	1	6
658.593	1	22
659.779	1	17
660.965	1	12
662.152	1	14
663.338	1	2
664.524	1	24
665.710	1	17
666.896	1	5
668.082	1	8
669.268	1	8
670.454	1	21
671.640	1	18
672.826	1	15
674.011	1	19
675.197	1	7
676.383	1	12
677.569	1	21
678.754	1	21
679.940	1	7
681.125	1	7
682.311	1	18
683.496	1	18
684.682	1	21
685.867	1	7
687.053	1	23
688.238	1	17
688.746	1	27