Folder: cryo-il_analysis/Data/GaN_150K_450ms (part 19)

File: GaN_sample D_spot15_UVVIS_150 K_200um_450 ms 2x2mm1_154.txt
340.368	1	5
341.565	1	4
342.763	1	-6
343.960	1	7
345.157	1	7
346.354	1	6
347.552	1	9
348.749	1	15
349.946	1	6
351.143	1	9
352.340	1	13
353.537	1	-2
354.734	1	10
355.931	1	9
357.127	1	18
358.324	1	11
359.521	1	16
360.718	1	9
361.914	1	24
363.111	1	11
364.308	1	30
365.504	1	18
366.701	1	34
367.897	1	25
369.093	1	35
370.290	1	41
371.486	1	39
372.682	1	28
373.879	1	20
375.075	1	11
376.271	1	9
377.467	1	23
378.663	1	19
379.859	1	15
381.055	1	8
382.251	1	6
383.447	1	12
384.643	1	4
385.839	1	18
387.035	1	14
388.230	1	7
389.426	1	6
390.622	1	1
391.817	1	-7
393.013	1	19
394.208	1	0
395.404	1	8
396.599	1	7
397.795	1	4
398.990	1	13
400.186	1	0
401.381	1	3
402.576	1	7
403.771	1	10
404.967	1	13
406.162	1	-5
407.357	1	12
408.552	1	3
409.747	1	0
410.942	1	13
412.137	1	8
413.332	1	14
414.526	1	11
415.721	1	15
416.916	1	4
418.111	1	14
419.305	1	14
420.500	1	2
421.695	1	7
422.889	1	7
424.084	1	9
425.278	1	2
426.472	1	9
427.667	1	14
428.861	1	12
430.055	1	13
431.250	1	13
432.444	1	16
433.638	1	11
434.832	1	6
436.026	1	4
437.220	1	21
438.414	1	17
439.608	1	3
440.802	1	6
441.996	1	4
443.190	1	12
444.384	1	24
445.578	1	-4
446.771	1	4
447.965	1	9
449.159	1	5
450.352	1	-7
451.546	1	-3
452.739	1	7
453.933	1	-1
455.126	1	1
456.320	1	9
457.513	1	3
458.706	1	14
459.899	1	14
461.093	1	6
462.286	1	-3
463.479	1	-1
464.672	1	13
465.865	1	5
467.058	1	4
468.251	1	4
469.444	1	4
470.637	1	3
471.830	1	2
473.023	1	8
474.215	1	8
475.408	1	8
476.601	1	3
477.793	1	9
478.986	1	10
480.179	1	4
481.371	1	-11
482.564	1	11
483.756	1	11
484.948	1	10
486.141	1	4
487.333	1	0
488.525	1	3
489.718	1	-5
490.910	1	13
492.102	1	0
493.294	1	-3
494.486	1	3
495.678	1	-3
496.870	1	6
498.062	1	3
499.254	1	-3
500.446	1	1
501.638	1	9
502.829	1	5
504.021	1	11
505.213	1	5
506.404	1	8
507.596	1	12
508.788	1	6
509.979	1	-1
511.171	1	3
512.362	1	4
513.553	1	10
514.745	1	14
515.936	1	13
517.127	1	19
518.319	1	2
519.510	1	-4
520.701	1	12
521.892	1	8
523.083	1	6
524.274	1	9
525.465	1	12
526.656	1	10
527.847	1	-7
529.038	1	5
530.229	1	9
531.419	1	9
532.610	1	22
533.801	1	13
534.991	1	9
536.182	1	6
537.373	1	3
538.563	1	7
539.754	1	11
540.944	1	2
542.134	1	8
543.325	1	13
544.515	1	11
545.705	1	14
546.896	1	6
548.086	1	3
549.276	1	5
550.466	1	7
551.656	1	7
552.846	1	4
554.036	1	17
555.226	1	5
556.416	1	17
557.606	1	-13
558.796	1	8
559.986	1	6
561.175	1	5
562.365	1	7
563.555	1	18
564.744	1	16
565.934	1	13
567.123	1	-1
568.313	1	11
569.502	1	6
570.692	1	7
571.881	1	-1
573.070	1	7
574.260	1	3
575.449	1	4
576.638	1	12
577.827	1	5
579.016	1	5
580.205	1	1
581.394	1	6
582.583	1	7
583.772	1	11
584.961	1	-5
586.150	1	20
587.339	1	2
588.528	1	-1
589.717	1	1
590.905	1	6
592.094	1	3
593.283	1	12
594.471	1	0
595.660	1	1
596.848	1	6
598.037	1	10
599.225	1	3
600.413	1	-1
601.602	1	6
602.790	1	10
603.978	1	-3
605.166	1	9
606.355	1	-7
607.543	1	3
608.731	1	-4
609.919	1	-9
611.107	1	9
612.295	1	4
613.483	1	-2
614.671	1	13
615.858	1	-7
617.046	1	2
618.234	1	-6
619.422	1	11
620.609	1	0
621.797	1	-3
622.985	1	9
624.172	1	2
625.360	1	2
626.547	1	1
627.735	1	5
628.922	1	14
630.109	1	-5
631.297	1	6
632.484	1	9
633.671	1	11
634.858	1	4
636.045	1	3
637.232	1	7
638.419	1	-1
639.606	1	15
640.793	1	-1
641.980	1	2
643.167	1	12
644.354	1	4
645.541	1	-5
646.728	1	0
647.914	1	5
649.101	1	5
650.288	1	2
651.474	1	13
652.661	1	5
653.847	1	11
655.034	1	1
656.220	1	10
657.406	1	1
658.593	1	6
659.779	1	14
660.965	1	8
662.152	1	0
663.338	1	-2
664.524	1	11
665.710	1	0
666.896	1	13
668.082	1	2
669.268	1	-6
670.454	1	-3
671.640	1	9
672.826	1	5
674.011	1	8
675.197	1	5
676.383	1	-5
677.569	1	11
678.754	1	3
679.940	1	-11
681.125	1	-2
682.311	1	10
683.496	1	1
684.682	1	10
685.867	1	-1
687.053	1	21
688.238	1	4
688.746	1	8

File: GaN_sample D_spot15_UVVIS_150 K_200um_450 ms 2x2mm1_155.txt
340.368	1	5
341.565	1	13
342.763	1	-1
343.960	1	12
345.157	1	7
346.354	1	2
347.552	1	11
348.749	1	5
349.946	1	-3
351.143	1	7
352.340	1	4
353.537	1	-9
354.734	1	5
355.931	1	17
357.127	1	3
358.324	1	16
359.521	1	13
360.718	1	11
361.914	1	15
363.111	1	13
364.308	1	14
365.504	1	17
366.701	1	26
367.897	1	46
369.093	1	43
370.290	1	37
371.486	1	37
372.682	1	28
373.879	1	24
375.075	1	6
376.271	1	12
377.467	1	16
378.663	1	25
379.859	1	7
381.055	1	5
382.251	1	5
383.447	1	8
384.643	1	1
385.839	1	10
387.035	1	8
388.230	1	7
389.426	1	-10
390.622	1	3
391.817	1	4
393.013	1	13
394.208	1	16
395.404	1	4
396.599	1	8
397.795	1	1
398.990	1	18
400.186	1	14
401.381	1	5
402.576	1	16
403.771	1	-3
404.967	1	9
406.162	1	1
407.357	1	7
408.552	1	4
409.747	1	5
410.942	1	19
412.137	1	3
413.332	1	4
414.526	1	7
415.721	1	16
416.916	1	6
418.111	1	15
419.305	1	11
420.500	1	2
421.695	1	21
422.889	1	12
424.084	1	15
425.278	1	3
426.472	1	21
427.667	1	2
428.861	1	5
430.055	1	12
431.250	1	11
432.444	1	7
433.638	1	10
434.832	1	5
436.026	1	5
437.220	1	12
438.414	1	20
439.608	1	0
440.802	1	8
441.996	1	4
443.190	1	12
444.384	1	13
445.578	1	-2
446.771	1	-2
447.965	1	15
449.159	1	-3
450.352	1	6
451.546	1	6
452.739	1	8
453.933	1	7
455.126	1	6
456.320	1	13
457.513	1	5
458.706	1	8
459.899	1	2
461.093	1	16
462.286	1	8
463.479	1	8
464.672	1	7
465.865	1	9
467.058	1	4
468.251	1	-1
469.444	1	9
470.637	1	0
471.830	1	7
473.023	1	5
474.215	1	6
475.408	1	11
476.601	1	2
477.793	1	-3
478.986	1	3
480.179	1	9
481.371	1	-3
482.564	1	2
483.756	1	12
484.948	1	8
486.141	1	10
487.333	1	-4
488.525	1	-1
489.718	1	-8
490.910	1	6
492.102	1	4
493.294	1	-10
494.486	1	6
495.678	1	4
496.870	1	8
498.062	1	-8
499.254	1	4
500.446	1	2
501.638	1	9
502.829	1	5
504.021	1	14
505.213	1	2
506.404	1	8
507.596	1	23
508.788	1	18
509.979	1	7
511.171	1	9
512.362	1	12
513.553	1	12
514.745	1	-3
515.936	1	3
517.127	1	12
518.319	1	4
519.510	1	-2
520.701	1	8
521.892	1	20
523.083	1	10
524.274	1	6
525.465	1	16
526.656	1	6
527.847	1	-1
529.038	1	4
530.229	1	17
531.419	1	7
532.610	1	16
533.801	1	7
534.991	1	7
536.182	1	9
537.373	1	14
538.563	1	12
539.754	1	11
540.944	1	10
542.134	1	14
543.325	1	18
544.515	1	8
545.705	1	3
546.896	1	7
548.086	1	14
549.276	1	19
550.466	1	7
551.656	1	11
552.846	1	10
554.036	1	18
555.226	1	11
556.416	1	19
557.606	1	0
558.796	1	10
559.986	1	10
561.175	1	3
562.365	1	12
563.555	1	8
564.744	1	7
565.934	1	31
567.123	1	-3
568.313	1	3
569.502	1	11
570.692	1	7
571.881	1	-8
573.070	1	11
574.260	1	8
575.449	1	-1
576.638	1	18
577.827	1	4
579.016	1	4
580.205	1	11
581.394	1	-2
582.583	1	5
583.772	1	8
584.961	1	-11
586.150	1	3
587.339	1	0
588.528	1	2
589.717	1	6
590.905	1	4
592.094	1	10
593.283	1	6
594.471	1	-2
595.660	1	3
596.848	1	14
598.037	1	0
599.225	1	5
600.413	1	4
601.602	1	8
602.790	1	-2
603.978	1	9
605.166	1	10
606.355	1	-12
607.543	1	6
608.731	1	-12
609.919	1	-14
611.107	1	17
612.295	1	12
613.483	1	1
614.671	1	0
615.858	1	2
617.046	1	4
618.234	1	2
619.422	1	9
620.609	1	-1
621.797	1	1
622.985	1	6
624.172	1	6
625.360	1	3
626.547	1	-1
627.735	1	10
628.922	1	2
630.109	1	3
631.297	1	7
632.484	1	8
633.671	1	9
634.858	1	10
636.045	1	-3
637.232	1	2
638.419	1	-1
639.606	1	9
640.793	1	2
641.980	1	4
643.167	1	11
644.354	1	10
645.541	1	8
646.728	1	8
647.914	1	12
649.101	1	5
650.288	1	3
651.474	1	5
652.661	1	5
653.847	1	12
655.034	1	1
656.220	1	6
657.406	1	1
658.593	1	13
659.779	1	8
660.965	1	0
662.152	1	-3
663.338	1	3
664.524	1	9
665.710	1	6
666.896	1	5
668.082	1	3
669.268	1	6
670.454	1	5
671.640	1	7
672.826	1	5
674.011	1	2
675.197	1	3
676.383	1	12
677.569	1	16
678.754	1	2
679.940	1	-4
681.125	1	-4
682.311	1	13
683.496	1	4
684.682	1	8
685.867	1	-4
687.053	1	22
688.238	1	14
688.746	1	1

File: GaN_sample D_spot15_UVVIS_150 K_200um_450 ms 2x2mm1_156.txt
340.368	1	5
341.565	1	10
342.763	1	9
343.960	1	3
345.157	1	13
346.354	1	7
347.552	1	19
348.749	1	17
349.946	1	-4
351.143	1	3
352.340	1	8
353.537	1	0
354.734	1	2
355.931	1	9
357.127	1	11
358.324	1	6
359.521	1	16
360.718	1	17
361.914	1	12
363.111	1	8
364.308	1	27
365.504	1	26
366.701	1	25
367.897	1	33
369.093	1	46
370.290	1	31
371.486	1	34
372.682	1	30
373.879	1	12
375.075	1	13
376.271	1	11
377.467	1	17
378.663	1	9
379.859	1	11
381.055	1	7
382.251	1	-1
383.447	1	10
384.643	1	5
385.839	1	4
387.035	1	11
388.230	1	5
389.426	1	-5
390.622	1	-9
391.817	1	-2
393.013	1	9
394.208	1	3
395.404	1	14
396.599	1	1
397.795	1	4
398.990	1	18
400.186	1	5
401.381	1	9
402.576	1	10
403.771	1	-4
404.967	1	12
406.162	1	-3
407.357	1	13
408.552	1	4
409.747	1	1
410.942	1	15
412.137	1	7
413.332	1	10
414.526	1	-8
415.721	1	9
416.916	1	10
418.111	1	13
419.305	1	7
420.500	1	13
421.695	1	11
422.889	1	10
424.084	1	15
425.278	1	4
426.472	1	16
427.667	1	12
428.861	1	10
430.055	1	16
431.250	1	12
432.444	1	11
433.638	1	11
434.832	1	-3
436.026	1	-3
437.220	1	13
438.414	1	8
439.608	1	-3
440.802	1	2
441.996	1	6
443.190	1	11
444.384	1	10
445.578	1	1
446.771	1	6
447.965	1	7
449.159	1	8
450.352	1	0
451.546	1	11
452.739	1	8
453.933	1	2
455.126	1	3
456.320	1	13
457.513	1	2
458.706	1	4
459.899	1	-4
461.093	1	2
462.286	1	2
463.479	1	-4
464.672	1	3
465.865	1	7
467.058	1	8
468.251	1	-1
469.444	1	7
470.637	1	7
471.830	1	6
473.023	1	11
474.215	1	3
475.408	1	8
476.601	1	8
477.793	1	-2
478.986	1	16
480.179	1	10
481.371	1	-16
482.564	1	4
483.756	1	15
484.948	1	5
486.141	1	4
487.333	1	-1
488.525	1	-4
489.718	1	-5
490.910	1	0
492.102	1	6
493.294	1	-6
494.486	1	3
495.678	1	3
496.870	1	0
498.062	1	-2
499.254	1	-1
500.446	1	-6
501.638	1	10
502.829	1	3
504.021	1	12
505.213	1	3
506.404	1	10
507.596	1	20
508.788	1	14
509.979	1	3
511.171	1	5
512.362	1	13
513.553	1	12
514.745	1	1
515.936	1	3
517.127	1	23
518.319	1	9
519.510	1	3
520.701	1	14
521.892	1	9
523.083	1	0
524.274	1	4
525.465	1	21
526.656	1	7
527.847	1	-3
529.038	1	7
530.229	1	19
531.419	1	7
532.610	1	13
533.801	1	15
534.991	1	3
536.182	1	9
537.373	1	11
538.563	1	7
539.754	1	5
540.944	1	13
542.134	1	11
543.325	1	14
544.515	1	8
545.705	1	-3
546.896	1	9
548.086	1	15
549.276	1	13
550.466	1	11
551.656	1	12
552.846	1	11
554.036	1	14
555.226	1	5
556.416	1	17
557.606	1	-7
558.796	1	11
559.986	1	7
561.175	1	4
562.365	1	10
563.555	1	12
564.744	1	21
565.934	1	15
567.123	1	10
568.313	1	4
569.502	1	4
570.692	1	5
571.881	1	8
573.070	1	2
574.260	1	8
575.449	1	-3
576.638	1	13
577.827	1	4
579.016	1	6
580.205	1	10
581.394	1	7
582.583	1	3
583.772	1	7
584.961	1	-7
586.150	1	6
587.339	1	9
588.528	1	0
589.717	1	5
590.905	1	5
592.094	1	7
593.283	1	10
594.471	1	-5
595.660	1	15
596.848	1	9
598.037	1	5
599.225	1	-4
600.413	1	3
601.602	1	14
602.790	1	8
603.978	1	9
605.166	1	8
606.355	1	-7
607.543	1	14
608.731	1	-1
609.919	1	-3
611.107	1	13
612.295	1	17
613.483	1	11
614.671	1	0
615.858	1	-3
617.046	1	0
618.234	1	4
619.422	1	19
620.609	1	-1
621.797	1	5
622.985	1	3
624.172	1	8
625.360	1	1
626.547	1	4
627.735	1	5
628.922	1	12
630.109	1	-14
631.297	1	10
632.484	1	8
633.671	1	3
634.858	1	3
636.045	1	-4
637.232	1	11
638.419	1	1
639.606	1	8
640.793	1	4
641.980	1	9
643.167	1	4
644.354	1	11
645.541	1	11
646.728	1	5
647.914	1	5
649.101	1	5
650.288	1	8
651.474	1	8
652.661	1	2
653.847	1	11
655.034	1	-1
656.220	1	12
657.406	1	-2
658.593	1	8
659.779	1	5
660.965	1	1
662.152	1	5
663.338	1	-2
664.524	1	16
665.710	1	5
666.896	1	-3
668.082	1	2
669.268	1	-3
670.454	1	7
671.640	1	11
672.826	1	-2
674.011	1	12
675.197	1	9
676.383	1	-3
677.569	1	14
678.754	1	-4
679.940	1	-3
681.125	1	6
682.311	1	12
683.496	1	-5
684.682	1	6
685.867	1	2
687.053	1	14
688.238	1	11
688.746	1	-4

File: GaN_sample D_spot15_UVVIS_150 K_200um_450 ms 2x2mm1_157.txt
340.368	1	14
341.565	1	-2
342.763	1	0
343.960	1	11
345.157	1	7
346.354	1	8
347.552	1	14
348.749	1	24
349.946	1	1
351.143	1	8
352.340	1	11
353.537	1	8
354.734	1	8
355.931	1	9
357.127	1	7
358.324	1	5
359.521	1	12
360.718	1	1
361.914	1	18
363.111	1	9
364.308	1	23
365.504	1	23
366.701	1	26
367.897	1	40
369.093	1	40
370.290	1	45
371.486	1	38
372.682	1	38
373.879	1	14
375.075	1	15
376.271	1	15
377.467	1	20
378.663	1	15
379.859	1	17
381.055	1	9
382.251	1	8
383.447	1	4
384.643	1	2
385.839	1	5
387.035	1	11
388.230	1	4
389.426	1	9
390.622	1	3
391.817	1	-7
393.013	1	9
394.208	1	8
395.404	1	16
396.599	1	14
397.795	1	6
398.990	1	13
400.186	1	9
401.381	1	0
402.576	1	0
403.771	1	-7
404.967	1	14
406.162	1	2
407.357	1	10
408.552	1	2
409.747	1	7
410.942	1	18
412.137	1	9
413.332	1	15
414.526	1	-4
415.721	1	14
416.916	1	7
418.111	1	8
419.305	1	18
420.500	1	8
421.695	1	11
422.889	1	10
424.084	1	16
425.278	1	7
426.472	1	14
427.667	1	7
428.861	1	19
430.055	1	19
431.250	1	9
432.444	1	18
433.638	1	19
434.832	1	8
436.026	1	-4
437.220	1	16
438.414	1	17
439.608	1	0
440.802	1	5
441.996	1	9
443.190	1	7
444.384	1	12
445.578	1	8
446.771	1	7
447.965	1	6
449.159	1	-2
450.352	1	0
451.546	1	6
452.739	1	9
453.933	1	1
455.126	1	7
456.320	1	11
457.513	1	4
458.706	1	13
459.899	1	4
461.093	1	8
462.286	1	8
463.479	1	3
464.672	1	5
465.865	1	2
467.058	1	10
468.251	1	-6
469.444	1	3
470.637	1	3
471.830	1	4
473.023	1	9
474.215	1	6
475.408	1	14
476.601	1	3
477.793	1	3
478.986	1	11
480.179	1	15
481.371	1	7
482.564	1	8
483.756	1	1
484.948	1	9
486.141	1	8
487.333	1	-8
488.525	1	3
489.718	1	-2
490.910	1	7
492.102	1	7
493.294	1	-5
494.486	1	9
495.678	1	-8
496.870	1	8
498.062	1	18
499.254	1	-1
500.446	1	-1
501.638	1	13
502.829	1	3
504.021	1	10
505.213	1	9
506.404	1	17
507.596	1	22
508.788	1	20
509.979	1	2
511.171	1	2
512.362	1	17
513.553	1	6
514.745	1	-1
515.936	1	14
517.127	1	12
518.319	1	12
519.510	1	-3
520.701	1	17
521.892	1	14
523.083	1	5
524.274	1	12
525.465	1	17
526.656	1	12
527.847	1	-3
529.038	1	12
530.229	1	12
531.419	1	6
532.610	1	10
533.801	1	16
534.991	1	3
536.182	1	4
537.373	1	11
538.563	1	6
539.754	1	-1
540.944	1	10
542.134	1	15
543.325	1	16
544.515	1	2
545.705	1	9
546.896	1	12
548.086	1	8
549.276	1	11
550.466	1	6
551.656	1	8
552.846	1	10
554.036	1	10
555.226	1	7
556.416	1	9
557.606	1	3
558.796	1	20
559.986	1	14
561.175	1	6
562.365	1	2
563.555	1	13
564.744	1	12
565.934	1	12
567.123	1	5
568.313	1	11
569.502	1	13
570.692	1	1
571.881	1	4
573.070	1	7
574.260	1	5
575.449	1	0
576.638	1	8
577.827	1	5
579.016	1	4
580.205	1	5
581.394	1	4
582.583	1	9
583.772	1	16
584.961	1	3
586.150	1	3
587.339	1	7
588.528	1	-5
589.717	1	6
590.905	1	3
592.094	1	10
593.283	1	11
594.471	1	-4
595.660	1	14
596.848	1	12
598.037	1	4
599.225	1	7
600.413	1	3
601.602	1	12
602.790	1	15
603.978	1	5
605.166	1	4
606.355	1	-9
607.543	1	13
608.731	1	-8
609.919	1	-7
611.107	1	7
612.295	1	15
613.483	1	6
614.671	1	7
615.858	1	-3
617.046	1	-2
618.234	1	-2
619.422	1	21
620.609	1	-3
621.797	1	2
622.985	1	4
624.172	1	11
625.360	1	10
626.547	1	4
627.735	1	0
628.922	1	10
630.109	1	3
631.297	1	3
632.484	1	10
633.671	1	12
634.858	1	1
636.045	1	1
637.232	1	4
638.419	1	1
639.606	1	8
640.793	1	-2
641.980	1	8
643.167	1	1
644.354	1	11
645.541	1	2
646.728	1	1
647.914	1	5
649.101	1	-5
650.288	1	6
651.474	1	9
652.661	1	12
653.847	1	1
655.034	1	-3
656.220	1	11
657.406	1	1
658.593	1	7
659.779	1	1
660.965	1	3
662.152	1	8
663.338	1	-1
664.524	1	15
665.710	1	9
666.896	1	8
668.082	1	5
669.268	1	2
670.454	1	7
671.640	1	11
672.826	1	6
674.011	1	12
675.197	1	9
676.383	1	3
677.569	1	15
678.754	1	3
679.940	1	1
681.125	1	-9
682.311	1	8
683.496	1	-2
684.682	1	10
685.867	1	1
687.053	1	17
688.238	1	5
688.746	1	2

File: GaN_sample D_spot15_UVVIS_150 K_200um_450 ms 2x2mm1_159.txt
340.368	1	7
341.565	1	10
342.763	1	2
343.960	1	7
345.157	1	17
346.354	1	2
347.552	1	12
348.749	1	10
349.946	1	-2
351.143	1	8
352.340	1	4
353.537	1	-1
354.734	1	9
355.931	1	16
357.127	1	8
358.324	1	12
359.521	1	12
360.718	1	2
361.914	1	21
363.111	1	15
364.308	1	31
365.504	1	21
366.701	1	29
367.897	1	40
369.093	1	32
370.290	1	34
371.486	1	35
372.682	1	19
373.879	1	16
375.075	1	7
376.271	1	11
377.467	1	24
378.663	1	13
379.859	1	12
381.055	1	0
382.251	1	2
383.447	1	11
384.643	1	12
385.839	1	10
387.035	1	10
388.230	1	13
389.426	1	1
390.622	1	-1
391.817	1	0
393.013	1	10
394.208	1	6
395.404	1	10
396.599	1	1
397.795	1	-2
398.990	1	20
400.186	1	8
401.381	1	13
402.576	1	5
403.771	1	-8
404.967	1	10
406.162	1	2
407.357	1	19
408.552	1	-3
409.747	1	0
410.942	1	14
412.137	1	2
413.332	1	18
414.526	1	6
415.721	1	5
416.916	1	7
418.111	1	12
419.305	1	7
420.500	1	11
421.695	1	16
422.889	1	8
424.084	1	11
425.278	1	3
426.472	1	22
427.667	1	9
428.861	1	21
430.055	1	13
431.250	1	9
432.444	1	9
433.638	1	17
434.832	1	3
436.026	1	3
437.220	1	19
438.414	1	16
439.608	1	10
440.802	1	12
441.996	1	0
443.190	1	11
444.384	1	9
445.578	1	-4
446.771	1	2
447.965	1	11
449.159	1	-6
450.352	1	-1
451.546	1	12
452.739	1	15
453.933	1	-1
455.126	1	9
456.320	1	5
457.513	1	8
458.706	1	10
459.899	1	-5
461.093	1	3
462.286	1	8
463.479	1	0
464.672	1	4
465.865	1	4
467.058	1	-3
468.251	1	-3
469.444	1	3
470.637	1	1
471.830	1	-1
473.023	1	15
474.215	1	9
475.408	1	8
476.601	1	10
477.793	1	4
478.986	1	10
480.179	1	13
481.371	1	-2
482.564	1	5
483.756	1	-4
484.948	1	8
486.141	1	7
487.333	1	-4
488.525	1	-4
489.718	1	-7
490.910	1	10
492.102	1	13
493.294	1	-12
494.486	1	8
495.678	1	-4
496.870	1	2
498.062	1	3
499.254	1	-3
500.446	1	-1
501.638	1	4
502.829	1	3
504.021	1	15
505.213	1	9
506.404	1	9
507.596	1	21
508.788	1	15
509.979	1	5
511.171	1	13
512.362	1	20
513.553	1	10
514.745	1	9
515.936	1	17
517.127	1	15
518.319	1	0
519.510	1	0
520.701	1	10
521.892	1	4
523.083	1	0
524.274	1	15
525.465	1	13
526.656	1	7
527.847	1	-8
529.038	1	7
530.229	1	13
531.419	1	10
532.610	1	17
533.801	1	5
534.991	1	5
536.182	1	3
537.373	1	5
538.563	1	-10
539.754	1	6
540.944	1	11
542.134	1	11
543.325	1	8
544.515	1	16
545.705	1	5
546.896	1	8
548.086	1	6
549.276	1	8
550.466	1	5
551.656	1	8
552.846	1	13
554.036	1	14
555.226	1	5
556.416	1	6
557.606	1	-3
558.796	1	21
559.986	1	17
561.175	1	4
562.365	1	1
563.555	1	7
564.744	1	14
565.934	1	16
567.123	1	6
568.313	1	6
569.502	1	13
570.692	1	14
571.881	1	-2
573.070	1	15
574.260	1	9
575.449	1	1
576.638	1	2
577.827	1	-2
579.016	1	6
580.205	1	-2
581.394	1	12
582.583	1	6
583.772	1	12
584.961	1	-2
586.150	1	8
587.339	1	1
588.528	1	6
589.717	1	1
590.905	1	-3
592.094	1	7
593.283	1	5
594.471	1	-7
595.660	1	7
596.848	1	5
598.037	1	3
599.225	1	2
600.413	1	2
601.602	1	12
602.790	1	10
603.978	1	3
605.166	1	5
606.355	1	-9
607.543	1	3
608.731	1	-9
609.919	1	1
611.107	1	8
612.295	1	5
613.483	1	6
614.671	1	2
615.858	1	-6
617.046	1	-1
618.234	1	2
619.422	1	17
620.609	1	4
621.797	1	-2
622.985	1	12
624.172	1	4
625.360	1	-1
626.547	1	1
627.735	1	3
628.922	1	9
630.109	1	2
631.297	1	5
632.484	1	8
633.671	1	13
634.858	1	10
636.045	1	10
637.232	1	3
638.419	1	-2
639.606	1	4
640.793	1	2
641.980	1	13
643.167	1	8
644.354	1	19
645.541	1	1
646.728	1	9
647.914	1	6
649.101	1	0
650.288	1	0
651.474	1	8
652.661	1	7
653.847	1	3
655.034	1	-8
656.220	1	5
657.406	1	-4
658.593	1	12
659.779	1	5
660.965	1	12
662.152	1	3
663.338	1	-3
664.524	1	10
665.710	1	4
666.896	1	8
668.082	1	1
669.268	1	2
670.454	1	-1
671.640	1	11
672.826	1	4
674.011	1	4
675.197	1	4
676.383	1	5
677.569	1	11
678.754	1	2
679.940	1	1
681.125	1	5
682.311	1	6
683.496	1	-3
684.682	1	12
685.867	1	0
687.053	1	21
688.238	1	10
688.746	1	-2

File: GaN_sample D_spot15_UVVIS_150 K_200um_450 ms 2x2mm1_160.txt
340.368	1	0
341.565	1	7
342.763	1	11
343.960	1	1
345.157	1	10
346.354	1	4
347.552	1	19
348.749	1	19
349.946	1	11
351.143	1	8
352.340	1	6
353.537	1	-4
354.734	1	6
355.931	1	11
357.127	1	11
358.324	1	7
359.521	1	8
360.718	1	14
361.914	1	24
363.111	1	18
364.308	1	18
365.504	1	23
366.701	1	29
367.897	1	31
369.093	1	39
370.290	1	37
371.486	1	39
372.682	1	32
373.879	1	17
375.075	1	5
376.271	1	14
377.467	1	13
378.663	1	10
379.859	1	17
381.055	1	3
382.251	1	-1
383.447	1	1
384.643	1	8
385.839	1	7
387.035	1	12
388.230	1	2
389.426	1	-5
390.622	1	-9
391.817	1	-4
393.013	1	17
394.208	1	5
395.404	1	14
396.599	1	13
397.795	1	7
398.990	1	11
400.186	1	10
401.381	1	10
402.576	1	7
403.771	1	0
404.967	1	7
406.162	1	4
407.357	1	6
408.552	1	-1
409.747	1	3
410.942	1	24
412.137	1	-1
413.332	1	13
414.526	1	5
415.721	1	5
416.916	1	-3
418.111	1	14
419.305	1	7
420.500	1	6
421.695	1	9
422.889	1	6
424.084	1	15
425.278	1	12
426.472	1	12
427.667	1	6
428.861	1	12
430.055	1	13
431.250	1	14
432.444	1	4
433.638	1	1
434.832	1	6
436.026	1	13
437.220	1	10
438.414	1	12
439.608	1	-6
440.802	1	7
441.996	1	8
443.190	1	11
444.384	1	11
445.578	1	4
446.771	1	6
447.965	1	4
449.159	1	3
450.352	1	2
451.546	1	3
452.739	1	9
453.933	1	3
455.126	1	3
456.320	1	10
457.513	1	10
458.706	1	13
459.899	1	2
461.093	1	12
462.286	1	-3
463.479	1	10
464.672	1	8
465.865	1	9
467.058	1	12
468.251	1	2
469.444	1	10
470.637	1	10
471.830	1	5
473.023	1	5
474.215	1	11
475.408	1	7
476.601	1	2
477.793	1	1
478.986	1	6
480.179	1	3
481.371	1	0
482.564	1	14
483.756	1	5
484.948	1	13
486.141	1	5
487.333	1	-7
488.525	1	-2
489.718	1	2
490.910	1	7
492.102	1	7
493.294	1	-7
494.486	1	4
495.678	1	-2
496.870	1	8
498.062	1	5
499.254	1	-3
500.446	1	-4
501.638	1	12
502.829	1	-4
504.021	1	6
505.213	1	-4
506.404	1	5
507.596	1	5
508.788	1	12
509.979	1	5
511.171	1	7
512.362	1	8
513.553	1	9
514.745	1	8
515.936	1	10
517.127	1	19
518.319	1	10
519.510	1	0
520.701	1	11
521.892	1	7
523.083	1	7
524.274	1	11
525.465	1	18
526.656	1	14
527.847	1	0
529.038	1	10
530.229	1	20
531.419	1	6
532.610	1	13
533.801	1	17
534.991	1	0
536.182	1	8
537.373	1	-2
538.563	1	5
539.754	1	2
540.944	1	12
542.134	1	11
543.325	1	9
544.515	1	10
545.705	1	3
546.896	1	9
548.086	1	10
549.276	1	15
550.466	1	12
551.656	1	8
552.846	1	8
554.036	1	16
555.226	1	8
556.416	1	14
557.606	1	3
558.796	1	9
559.986	1	16
561.175	1	5
562.365	1	0
563.555	1	1
564.744	1	8
565.934	1	16
567.123	1	3
568.313	1	8
569.502	1	6
570.692	1	14
571.881	1	9
573.070	1	13
574.260	1	7
575.449	1	0
576.638	1	17
577.827	1	7
579.016	1	6
580.205	1	4
581.394	1	7
582.583	1	7
583.772	1	15
584.961	1	-4
586.150	1	8
587.339	1	7
588.528	1	-4
589.717	1	6
590.905	1	0
592.094	1	13
593.283	1	9
594.471	1	-3
595.660	1	8
596.848	1	11
598.037	1	5
599.225	1	3
600.413	1	10
601.602	1	4
602.790	1	8
603.978	1	7
605.166	1	4
606.355	1	-6
607.543	1	3
608.731	1	-9
609.919	1	-3
611.107	1	12
612.295	1	5
613.483	1	5
614.671	1	5
615.858	1	-6
617.046	1	3
618.234	1	-10
619.422	1	17
620.609	1	-1
621.797	1	2
622.985	1	-5
624.172	1	10
625.360	1	2
626.547	1	2
627.735	1	4
628.922	1	6
630.109	1	-11
631.297	1	5
632.484	1	3
633.671	1	6
634.858	1	9
636.045	1	-15
637.232	1	1
638.419	1	2
639.606	1	7
640.793	1	4
641.980	1	9
643.167	1	5
644.354	1	9
645.541	1	3
646.728	1	8
647.914	1	2
649.101	1	-9
650.288	1	5
651.474	1	9
652.661	1	5
653.847	1	2
655.034	1	4
656.220	1	7
657.406	1	6
658.593	1	9
659.779	1	7
660.965	1	-2
662.152	1	3
663.338	1	1
664.524	1	12
665.710	1	2
666.896	1	7
668.082	1	10
669.268	1	-4
670.454	1	4
671.640	1	7
672.826	1	8
674.011	1	4
675.197	1	7
676.383	1	2
677.569	1	24
678.754	1	1
679.940	1	-2
681.125	1	-6
682.311	1	3
683.496	1	-6
684.682	1	11
685.867	1	1
687.053	1	12
688.238	1	6
688.746	1	4