Folder: cryo-il_analysis/Data/GaN_170K_550ms (part 5)

File: GaN_sample D_spot 18_UVVIS_170 K_200um_550 ms 2x2mm1_64.txt
340.368	1	-1
341.565	1	3
342.763	1	2
343.960	1	6
345.157	1	-2
346.354	1	4
347.552	1	4
348.749	1	0
349.946	1	6
351.143	1	9
352.340	1	12
353.537	1	16
354.734	1	22
355.931	1	15
357.127	1	27
358.324	1	45
359.521	1	52
360.718	1	62
361.914	1	91
363.111	1	141
364.308	1	210
365.504	1	297
366.701	1	407
367.897	1	488
369.093	1	488
370.290	1	444
371.486	1	349
372.682	1	288
373.879	1	257
375.075	1	198
376.271	1	157
377.467	1	145
378.663	1	113
379.859	1	98
381.055	1	84
382.251	1	70
383.447	1	67
384.643	1	61
385.839	1	52
387.035	1	45
388.230	1	41
389.426	1	43
390.622	1	33
391.817	1	25
393.013	1	21
394.208	1	38
395.404	1	26
396.599	1	18
397.795	1	14
398.990	1	12
400.186	1	18
401.381	1	29
402.576	1	4
403.771	1	17
404.967	1	11
406.162	1	13
407.357	1	6
408.552	1	20
409.747	1	11
410.942	1	9
412.137	1	1
413.332	1	10
414.526	1	8
415.721	1	5
416.916	1	6
418.111	1	12
419.305	1	9
420.500	1	5
421.695	1	5
422.889	1	8
424.084	1	22
425.278	1	14
426.472	1	5
427.667	1	2
428.861	1	3
430.055	1	13
431.250	1	13
432.444	1	9
433.638	1	16
434.832	1	13
436.026	1	-2
437.220	1	4
438.414	1	2
439.608	1	8
440.802	1	11
441.996	1	6
443.190	1	10
444.384	1	13
445.578	1	16
446.771	1	-2
447.965	1	7
449.159	1	10
450.352	1	5
451.546	1	-3
452.739	1	-1
453.933	1	14
455.126	1	15
456.320	1	6
457.513	1	16
458.706	1	17
459.899	1	-1
461.093	1	9
462.286	1	6
463.479	1	2
464.672	1	-1
465.865	1	7
467.058	1	7
468.251	1	7
469.444	1	4
470.637	1	-1
471.830	1	7
473.023	1	21
474.215	1	9
475.408	1	8
476.601	1	10
477.793	1	18
478.986	1	-1
480.179	1	13
481.371	1	8
482.564	1	17
483.756	1	16
484.948	1	15
486.141	1	22
487.333	1	10
488.525	1	24
489.718	1	24
490.910	1	20
492.102	1	15
493.294	1	32
494.486	1	20
495.678	1	34
496.870	1	29
498.062	1	26
499.254	1	43
500.446	1	31
501.638	1	25
502.829	1	46
504.021	1	45
505.213	1	41
506.404	1	49
507.596	1	48
508.788	1	49
509.979	1	48
511.171	1	43
512.362	1	44
513.553	1	43
514.745	1	38
515.936	1	59
517.127	1	75
518.319	1	59
519.510	1	62
520.701	1	60
521.892	1	67
523.083	1	51
524.274	1	58
525.465	1	60
526.656	1	69
527.847	1	58
529.038	1	61
530.229	1	78
531.419	1	69
532.610	1	68
533.801	1	67
534.991	1	61
536.182	1	59
537.373	1	51
538.563	1	50
539.754	1	58
540.944	1	51
542.134	1	60
543.325	1	61
544.515	1	57
545.705	1	63
546.896	1	57
548.086	1	60
549.276	1	53
550.466	1	53
551.656	1	61
552.846	1	53
554.036	1	44
555.226	1	41
556.416	1	36
557.606	1	53
558.796	1	39
559.986	1	52
561.175	1	43
562.365	1	37
563.555	1	34
564.744	1	52
565.934	1	45
567.123	1	44
568.313	1	41
569.502	1	32
570.692	1	44
571.881	1	30
573.070	1	29
574.260	1	46
575.449	1	35
576.638	1	47
577.827	1	24
579.016	1	27
580.205	1	26
581.394	1	35
582.583	1	33
583.772	1	27
584.961	1	28
586.150	1	24
587.339	1	19
588.528	1	28
589.717	1	20
590.905	1	29
592.094	1	27
593.283	1	17
594.471	1	26
595.660	1	22
596.848	1	23
598.037	1	11
599.225	1	26
600.413	1	8
601.602	1	16
602.790	1	28
603.978	1	18
605.166	1	24
606.355	1	18
607.543	1	18
608.731	1	18
609.919	1	12
611.107	1	12
612.295	1	15
613.483	1	13
614.671	1	13
615.858	1	15
617.046	1	6
618.234	1	20
619.422	1	4
620.609	1	14
621.797	1	17
622.985	1	7
624.172	1	12
625.360	1	9
626.547	1	12
627.735	1	10
628.922	1	4
630.109	1	7
631.297	1	14
632.484	1	11
633.671	1	15
634.858	1	11
636.045	1	17
637.232	1	12
638.419	1	6
639.606	1	0
640.793	1	-1
641.980	1	9
643.167	1	1
644.354	1	4
645.541	1	10
646.728	1	10
647.914	1	9
649.101	1	6
650.288	1	1
651.474	1	22
652.661	1	3
653.847	1	8
655.034	1	8
656.220	1	8
657.406	1	10
658.593	1	8
659.779	1	8
660.965	1	13
662.152	1	6
663.338	1	18
664.524	1	6
665.710	1	9
666.896	1	11
668.082	1	10
669.268	1	1
670.454	1	3
671.640	1	13
672.826	1	14
674.011	1	12
675.197	1	14
676.383	1	17
677.569	1	3
678.754	1	8
679.940	1	14
681.125	1	18
682.311	1	4
683.496	1	12
684.682	1	16
685.867	1	16
687.053	1	7
688.238	1	11
688.746	1	1

File: GaN_sample D_spot 18_UVVIS_170 K_200um_550 ms 2x2mm1_65.txt
340.368	1	7
341.565	1	-2
342.763	1	4
343.960	1	9
345.157	1	1
346.354	1	0
347.552	1	18
348.749	1	6
349.946	1	18
351.143	1	5
352.340	1	19
353.537	1	10
354.734	1	20
355.931	1	24
357.127	1	27
358.324	1	41
359.521	1	55
360.718	1	56
361.914	1	79
363.111	1	132
364.308	1	190
365.504	1	276
366.701	1	377
367.897	1	443
369.093	1	461
370.290	1	403
371.486	1	336
372.682	1	280
373.879	1	219
375.075	1	189
376.271	1	140
377.467	1	141
378.663	1	118
379.859	1	84
381.055	1	67
382.251	1	65
383.447	1	70
384.643	1	51
385.839	1	34
387.035	1	49
388.230	1	39
389.426	1	36
390.622	1	31
391.817	1	25
393.013	1	24
394.208	1	21
395.404	1	23
396.599	1	18
397.795	1	17
398.990	1	5
400.186	1	15
401.381	1	13
402.576	1	11
403.771	1	9
404.967	1	15
406.162	1	14
407.357	1	3
408.552	1	12
409.747	1	6
410.942	1	12
412.137	1	-1
413.332	1	7
414.526	1	6
415.721	1	-2
416.916	1	-2
418.111	1	17
419.305	1	3
420.500	1	4
421.695	1	2
422.889	1	9
424.084	1	31
425.278	1	6
426.472	1	1
427.667	1	11
428.861	1	7
430.055	1	5
431.250	1	25
432.444	1	5
433.638	1	13
434.832	1	18
436.026	1	14
437.220	1	5
438.414	1	3
439.608	1	-9
440.802	1	17
441.996	1	3
443.190	1	8
444.384	1	5
445.578	1	1
446.771	1	-4
447.965	1	6
449.159	1	6
450.352	1	-6
451.546	1	2
452.739	1	11
453.933	1	3
455.126	1	7
456.320	1	3
457.513	1	9
458.706	1	12
459.899	1	6
461.093	1	13
462.286	1	0
463.479	1	2
464.672	1	3
465.865	1	10
467.058	1	9
468.251	1	7
469.444	1	9
470.637	1	13
471.830	1	6
473.023	1	3
474.215	1	16
475.408	1	3
476.601	1	7
477.793	1	21
478.986	1	-1
480.179	1	3
481.371	1	15
482.564	1	8
483.756	1	12
484.948	1	10
486.141	1	25
487.333	1	12
488.525	1	24
489.718	1	19
490.910	1	23
492.102	1	22
493.294	1	23
494.486	1	39
495.678	1	24
496.870	1	26
498.062	1	33
499.254	1	42
500.446	1	34
501.638	1	30
502.829	1	37
504.021	1	31
505.213	1	41
506.404	1	50
507.596	1	58
508.788	1	41
509.979	1	38
511.171	1	50
512.362	1	34
513.553	1	48
514.745	1	51
515.936	1	50
517.127	1	65
518.319	1	59
519.510	1	57
520.701	1	61
521.892	1	53
523.083	1	46
524.274	1	60
525.465	1	63
526.656	1	67
527.847	1	68
529.038	1	59
530.229	1	80
531.419	1	68
532.610	1	64
533.801	1	55
534.991	1	54
536.182	1	58
537.373	1	57
538.563	1	49
539.754	1	53
540.944	1	51
542.134	1	60
543.325	1	54
544.515	1	54
545.705	1	57
546.896	1	49
548.086	1	59
549.276	1	50
550.466	1	49
551.656	1	57
552.846	1	51
554.036	1	46
555.226	1	37
556.416	1	48
557.606	1	57
558.796	1	34
559.986	1	44
561.175	1	32
562.365	1	43
563.555	1	36
564.744	1	45
565.934	1	45
567.123	1	30
568.313	1	30
569.502	1	28
570.692	1	35
571.881	1	34
573.070	1	36
574.260	1	39
575.449	1	30
576.638	1	33
577.827	1	30
579.016	1	28
580.205	1	24
581.394	1	25
582.583	1	23
583.772	1	10
584.961	1	19
586.150	1	26
587.339	1	24
588.528	1	21
589.717	1	29
590.905	1	17
592.094	1	22
593.283	1	13
594.471	1	17
595.660	1	16
596.848	1	21
598.037	1	14
599.225	1	16
600.413	1	11
601.602	1	13
602.790	1	19
603.978	1	15
605.166	1	22
606.355	1	17
607.543	1	15
608.731	1	18
609.919	1	20
611.107	1	8
612.295	1	12
613.483	1	6
614.671	1	14
615.858	1	7
617.046	1	5
618.234	1	16
619.422	1	1
620.609	1	23
621.797	1	11
622.985	1	13
624.172	1	4
625.360	1	5
626.547	1	9
627.735	1	2
628.922	1	-3
630.109	1	7
631.297	1	7
632.484	1	6
633.671	1	8
634.858	1	9
636.045	1	13
637.232	1	6
638.419	1	12
639.606	1	6
640.793	1	4
641.980	1	10
643.167	1	8
644.354	1	12
645.541	1	23
646.728	1	13
647.914	1	12
649.101	1	1
650.288	1	16
651.474	1	9
652.661	1	10
653.847	1	12
655.034	1	5
656.220	1	4
657.406	1	5
658.593	1	9
659.779	1	10
660.965	1	22
662.152	1	12
663.338	1	12
664.524	1	7
665.710	1	9
666.896	1	-1
668.082	1	8
669.268	1	2
670.454	1	3
671.640	1	11
672.826	1	7
674.011	1	16
675.197	1	16
676.383	1	15
677.569	1	0
678.754	1	23
679.940	1	20
681.125	1	17
682.311	1	14
683.496	1	18
684.682	1	14
685.867	1	10
687.053	1	1
688.238	1	1
688.746	1	8

File: GaN_sample D_spot 18_UVVIS_170 K_200um_550 ms 2x2mm1_66.txt
340.368	1	0
341.565	1	8
342.763	1	9
343.960	1	1
345.157	1	2
346.354	1	5
347.552	1	12
348.749	1	7
349.946	1	5
351.143	1	3
352.340	1	9
353.537	1	13
354.734	1	12
355.931	1	16
357.127	1	29
358.324	1	34
359.521	1	48
360.718	1	58
361.914	1	92
363.111	1	135
364.308	1	182
365.504	1	260
366.701	1	354
367.897	1	413
369.093	1	419
370.290	1	380
371.486	1	303
372.682	1	256
373.879	1	219
375.075	1	191
376.271	1	146
377.467	1	125
378.663	1	106
379.859	1	77
381.055	1	69
382.251	1	65
383.447	1	66
384.643	1	56
385.839	1	39
387.035	1	44
388.230	1	38
389.426	1	39
390.622	1	32
391.817	1	23
393.013	1	19
394.208	1	24
395.404	1	20
396.599	1	16
397.795	1	11
398.990	1	16
400.186	1	-2
401.381	1	24
402.576	1	13
403.771	1	7
404.967	1	10
406.162	1	7
407.357	1	9
408.552	1	15
409.747	1	7
410.942	1	12
412.137	1	1
413.332	1	2
414.526	1	10
415.721	1	11
416.916	1	-7
418.111	1	10
419.305	1	-3
420.500	1	14
421.695	1	-2
422.889	1	6
424.084	1	24
425.278	1	11
426.472	1	5
427.667	1	10
428.861	1	13
430.055	1	10
431.250	1	11
432.444	1	3
433.638	1	11
434.832	1	14
436.026	1	5
437.220	1	0
438.414	1	0
439.608	1	4
440.802	1	12
441.996	1	12
443.190	1	5
444.384	1	7
445.578	1	14
446.771	1	-3
447.965	1	5
449.159	1	5
450.352	1	4
451.546	1	-12
452.739	1	13
453.933	1	1
455.126	1	17
456.320	1	4
457.513	1	16
458.706	1	5
459.899	1	3
461.093	1	6
462.286	1	11
463.479	1	8
464.672	1	3
465.865	1	6
467.058	1	9
468.251	1	12
469.444	1	5
470.637	1	10
471.830	1	3
473.023	1	15
474.215	1	4
475.408	1	-3
476.601	1	-2
477.793	1	14
478.986	1	2
480.179	1	3
481.371	1	8
482.564	1	12
483.756	1	-2
484.948	1	10
486.141	1	31
487.333	1	13
488.525	1	24
489.718	1	20
490.910	1	18
492.102	1	14
493.294	1	19
494.486	1	26
495.678	1	27
496.870	1	23
498.062	1	19
499.254	1	37
500.446	1	30
501.638	1	29
502.829	1	26
504.021	1	44
505.213	1	39
506.404	1	29
507.596	1	39
508.788	1	34
509.979	1	43
511.171	1	44
512.362	1	41
513.553	1	51
514.745	1	45
515.936	1	55
517.127	1	56
518.319	1	54
519.510	1	60
520.701	1	53
521.892	1	46
523.083	1	58
524.274	1	56
525.465	1	53
526.656	1	61
527.847	1	56
529.038	1	56
530.229	1	68
531.419	1	59
532.610	1	60
533.801	1	65
534.991	1	50
536.182	1	49
537.373	1	37
538.563	1	57
539.754	1	45
540.944	1	45
542.134	1	44
543.325	1	46
544.515	1	51
545.705	1	44
546.896	1	54
548.086	1	46
549.276	1	52
550.466	1	46
551.656	1	59
552.846	1	43
554.036	1	52
555.226	1	40
556.416	1	37
557.606	1	34
558.796	1	40
559.986	1	43
561.175	1	30
562.365	1	38
563.555	1	30
564.744	1	36
565.934	1	38
567.123	1	38
568.313	1	25
569.502	1	36
570.692	1	40
571.881	1	26
573.070	1	21
574.260	1	25
575.449	1	20
576.638	1	42
577.827	1	25
579.016	1	35
580.205	1	12
581.394	1	18
582.583	1	13
583.772	1	25
584.961	1	24
586.150	1	17
587.339	1	27
588.528	1	12
589.717	1	22
590.905	1	16
592.094	1	19
593.283	1	12
594.471	1	18
595.660	1	11
596.848	1	21
598.037	1	14
599.225	1	19
600.413	1	11
601.602	1	10
602.790	1	21
603.978	1	16
605.166	1	27
606.355	1	23
607.543	1	27
608.731	1	13
609.919	1	12
611.107	1	8
612.295	1	6
613.483	1	11
614.671	1	11
615.858	1	2
617.046	1	5
618.234	1	6
619.422	1	17
620.609	1	6
621.797	1	10
622.985	1	3
624.172	1	10
625.360	1	21
626.547	1	5
627.735	1	-4
628.922	1	5
630.109	1	12
631.297	1	1
632.484	1	5
633.671	1	11
634.858	1	16
636.045	1	16
637.232	1	15
638.419	1	-1
639.606	1	6
640.793	1	0
641.980	1	5
643.167	1	-1
644.354	1	11
645.541	1	9
646.728	1	8
647.914	1	8
649.101	1	8
650.288	1	8
651.474	1	12
652.661	1	10
653.847	1	8
655.034	1	2
656.220	1	10
657.406	1	1
658.593	1	1
659.779	1	13
660.965	1	18
662.152	1	1
663.338	1	13
664.524	1	13
665.710	1	7
666.896	1	2
668.082	1	15
669.268	1	-3
670.454	1	8
671.640	1	13
672.826	1	5
674.011	1	19
675.197	1	9
676.383	1	13
677.569	1	3
678.754	1	8
679.940	1	14
681.125	1	16
682.311	1	13
683.496	1	11
684.682	1	11
685.867	1	6
687.053	1	1
688.238	1	2
688.746	1	-1

File: GaN_sample D_spot 18_UVVIS_170 K_200um_550 ms 2x2mm1_67.txt
340.368	1	-5
341.565	1	9
342.763	1	8
343.960	1	1
345.157	1	-1
346.354	1	1
347.552	1	5
348.749	1	7
349.946	1	10
351.143	1	12
352.340	1	14
353.537	1	14
354.734	1	21
355.931	1	12
357.127	1	23
358.324	1	38
359.521	1	52
360.718	1	58
361.914	1	82
363.111	1	118
364.308	1	165
365.504	1	234
366.701	1	321
367.897	1	377
369.093	1	364
370.290	1	331
371.486	1	273
372.682	1	227
373.879	1	202
375.075	1	154
376.271	1	124
377.467	1	118
378.663	1	98
379.859	1	77
381.055	1	65
382.251	1	56
383.447	1	60
384.643	1	46
385.839	1	38
387.035	1	36
388.230	1	29
389.426	1	33
390.622	1	28
391.817	1	24
393.013	1	33
394.208	1	26
395.404	1	24
396.599	1	17
397.795	1	11
398.990	1	9
400.186	1	11
401.381	1	24
402.576	1	16
403.771	1	11
404.967	1	8
406.162	1	16
407.357	1	6
408.552	1	16
409.747	1	6
410.942	1	6
412.137	1	2
413.332	1	6
414.526	1	13
415.721	1	5
416.916	1	6
418.111	1	19
419.305	1	12
420.500	1	9
421.695	1	4
422.889	1	7
424.084	1	16
425.278	1	6
426.472	1	5
427.667	1	12
428.861	1	9
430.055	1	5
431.250	1	19
432.444	1	9
433.638	1	13
434.832	1	10
436.026	1	-2
437.220	1	4
438.414	1	-3
439.608	1	7
440.802	1	12
441.996	1	-3
443.190	1	1
444.384	1	15
445.578	1	15
446.771	1	-12
447.965	1	12
449.159	1	2
450.352	1	2
451.546	1	-7
452.739	1	6
453.933	1	5
455.126	1	17
456.320	1	2
457.513	1	12
458.706	1	8
459.899	1	6
461.093	1	14
462.286	1	0
463.479	1	4
464.672	1	0
465.865	1	13
467.058	1	19
468.251	1	8
469.444	1	5
470.637	1	14
471.830	1	1
473.023	1	3
474.215	1	0
475.408	1	9
476.601	1	7
477.793	1	13
478.986	1	8
480.179	1	4
481.371	1	11
482.564	1	5
483.756	1	17
484.948	1	14
486.141	1	23
487.333	1	10
488.525	1	16
489.718	1	15
490.910	1	13
492.102	1	17
493.294	1	15
494.486	1	29
495.678	1	25
496.870	1	14
498.062	1	19
499.254	1	29
500.446	1	30
501.638	1	24
502.829	1	29
504.021	1	34
505.213	1	31
506.404	1	39
507.596	1	44
508.788	1	39
509.979	1	49
511.171	1	35
512.362	1	37
513.553	1	44
514.745	1	40
515.936	1	45
517.127	1	52
518.319	1	52
519.510	1	47
520.701	1	50
521.892	1	50
523.083	1	55
524.274	1	48
525.465	1	49
526.656	1	60
527.847	1	49
529.038	1	58
530.229	1	63
531.419	1	68
532.610	1	59
533.801	1	71
534.991	1	55
536.182	1	49
537.373	1	38
538.563	1	53
539.754	1	42
540.944	1	39
542.134	1	48
543.325	1	40
544.515	1	47
545.705	1	49
546.896	1	44
548.086	1	45
549.276	1	41
550.466	1	49
551.656	1	45
552.846	1	48
554.036	1	37
555.226	1	34
556.416	1	34
557.606	1	41
558.796	1	32
559.986	1	40
561.175	1	28
562.365	1	39
563.555	1	35
564.744	1	33
565.934	1	36
567.123	1	32
568.313	1	22
569.502	1	33
570.692	1	26
571.881	1	17
573.070	1	18
574.260	1	28
575.449	1	28
576.638	1	14
577.827	1	30
579.016	1	24
580.205	1	19
581.394	1	19
582.583	1	21
583.772	1	20
584.961	1	28
586.150	1	12
587.339	1	18
588.528	1	20
589.717	1	21
590.905	1	24
592.094	1	13
593.283	1	21
594.471	1	24
595.660	1	14
596.848	1	17
598.037	1	6
599.225	1	13
600.413	1	9
601.602	1	23
602.790	1	23
603.978	1	25
605.166	1	21
606.355	1	17
607.543	1	21
608.731	1	8
609.919	1	6
611.107	1	6
612.295	1	6
613.483	1	10
614.671	1	22
615.858	1	11
617.046	1	16
618.234	1	15
619.422	1	6
620.609	1	11
621.797	1	12
622.985	1	9
624.172	1	7
625.360	1	14
626.547	1	11
627.735	1	-6
628.922	1	3
630.109	1	10
631.297	1	2
632.484	1	10
633.671	1	21
634.858	1	7
636.045	1	11
637.232	1	15
638.419	1	-4
639.606	1	-6
640.793	1	3
641.980	1	3
643.167	1	15
644.354	1	7
645.541	1	10
646.728	1	12
647.914	1	-1
649.101	1	13
650.288	1	6
651.474	1	17
652.661	1	2
653.847	1	9
655.034	1	6
656.220	1	7
657.406	1	10
658.593	1	1
659.779	1	8
660.965	1	20
662.152	1	8
663.338	1	14
664.524	1	6
665.710	1	13
666.896	1	4
668.082	1	10
669.268	1	1
670.454	1	-1
671.640	1	15
672.826	1	4
674.011	1	6
675.197	1	14
676.383	1	9
677.569	1	4
678.754	1	10
679.940	1	19
681.125	1	15
682.311	1	9
683.496	1	17
684.682	1	10
685.867	1	10
687.053	1	5
688.238	1	17
688.746	1	-1

File: GaN_sample D_spot 18_UVVIS_170 K_200um_550 ms 2x2mm1_68.txt
340.368	1	10
341.565	1	-1
342.763	1	-4
343.960	1	-1
345.157	1	9
346.354	1	-11
347.552	1	18
348.749	1	5
349.946	1	14
351.143	1	-2
352.340	1	11
353.537	1	11
354.734	1	11
355.931	1	25
357.127	1	15
358.324	1	35
359.521	1	45
360.718	1	54
361.914	1	76
363.111	1	118
364.308	1	161
365.504	1	228
366.701	1	291
367.897	1	343
369.093	1	343
370.290	1	321
371.486	1	257
372.682	1	225
373.879	1	171
375.075	1	152
376.271	1	134
377.467	1	103
378.663	1	91
379.859	1	79
381.055	1	69
382.251	1	58
383.447	1	62
384.643	1	38
385.839	1	35
387.035	1	36
388.230	1	31
389.426	1	31
390.622	1	26
391.817	1	20
393.013	1	17
394.208	1	15
395.404	1	18
396.599	1	13
397.795	1	13
398.990	1	9
400.186	1	4
401.381	1	12
402.576	1	17
403.771	1	10
404.967	1	15
406.162	1	8
407.357	1	0
408.552	1	1
409.747	1	9
410.942	1	8
412.137	1	6
413.332	1	8
414.526	1	-2
415.721	1	-3
416.916	1	-2
418.111	1	12
419.305	1	8
420.500	1	10
421.695	1	-1
422.889	1	6
424.084	1	21
425.278	1	10
426.472	1	4
427.667	1	9
428.861	1	11
430.055	1	9
431.250	1	15
432.444	1	11
433.638	1	4
434.832	1	6
436.026	1	4
437.220	1	4
438.414	1	0
439.608	1	1
440.802	1	13
441.996	1	3
443.190	1	3
444.384	1	5
445.578	1	12
446.771	1	-4
447.965	1	8
449.159	1	4
450.352	1	-8
451.546	1	-8
452.739	1	5
453.933	1	2
455.126	1	10
456.320	1	1
457.513	1	19
458.706	1	0
459.899	1	16
461.093	1	15
462.286	1	1
463.479	1	3
464.672	1	8
465.865	1	11
467.058	1	11
468.251	1	6
469.444	1	3
470.637	1	9
471.830	1	9
473.023	1	5
474.215	1	8
475.408	1	6
476.601	1	19
477.793	1	16
478.986	1	3
480.179	1	6
481.371	1	10
482.564	1	6
483.756	1	13
484.948	1	19
486.141	1	25
487.333	1	11
488.525	1	21
489.718	1	24
490.910	1	20
492.102	1	17
493.294	1	12
494.486	1	25
495.678	1	17
496.870	1	24
498.062	1	15
499.254	1	27
500.446	1	35
501.638	1	16
502.829	1	27
504.021	1	42
505.213	1	30
506.404	1	37
507.596	1	48
508.788	1	36
509.979	1	37
511.171	1	47
512.362	1	39
513.553	1	46
514.745	1	34
515.936	1	44
517.127	1	54
518.319	1	60
519.510	1	49
520.701	1	47
521.892	1	53
523.083	1	55
524.274	1	50
525.465	1	43
526.656	1	59
527.847	1	42
529.038	1	52
530.229	1	62
531.419	1	64
532.610	1	48
533.801	1	61
534.991	1	45
536.182	1	45
537.373	1	46
538.563	1	41
539.754	1	51
540.944	1	35
542.134	1	39
543.325	1	61
544.515	1	45
545.705	1	49
546.896	1	39
548.086	1	52
549.276	1	42
550.466	1	40
551.656	1	47
552.846	1	39
554.036	1	39
555.226	1	33
556.416	1	37
557.606	1	42
558.796	1	30
559.986	1	30
561.175	1	34
562.365	1	33
563.555	1	28
564.744	1	28
565.934	1	32
567.123	1	18
568.313	1	34
569.502	1	27
570.692	1	36
571.881	1	24
573.070	1	34
574.260	1	24
575.449	1	27
576.638	1	32
577.827	1	12
579.016	1	28
580.205	1	10
581.394	1	27
582.583	1	19
583.772	1	27
584.961	1	16
586.150	1	9
587.339	1	13
588.528	1	12
589.717	1	26
590.905	1	18
592.094	1	19
593.283	1	16
594.471	1	22
595.660	1	12
596.848	1	9
598.037	1	8
599.225	1	16
600.413	1	0
601.602	1	5
602.790	1	13
603.978	1	17
605.166	1	23
606.355	1	15
607.543	1	19
608.731	1	18
609.919	1	10
611.107	1	8
612.295	1	11
613.483	1	3
614.671	1	17
615.858	1	9
617.046	1	5
618.234	1	17
619.422	1	3
620.609	1	6
621.797	1	15
622.985	1	17
624.172	1	1
625.360	1	11
626.547	1	4
627.735	1	-6
628.922	1	2
630.109	1	2
631.297	1	1
632.484	1	5
633.671	1	15
634.858	1	11
636.045	1	16
637.232	1	4
638.419	1	11
639.606	1	0
640.793	1	4
641.980	1	8
643.167	1	4
644.354	1	10
645.541	1	12
646.728	1	7
647.914	1	3
649.101	1	1
650.288	1	5
651.474	1	12
652.661	1	13
653.847	1	1
655.034	1	4
656.220	1	8
657.406	1	5
658.593	1	2
659.779	1	10
660.965	1	23
662.152	1	1
663.338	1	14
664.524	1	9
665.710	1	0
666.896	1	0
668.082	1	13
669.268	1	4
670.454	1	1
671.640	1	12
672.826	1	4
674.011	1	6
675.197	1	13
676.383	1	1
677.569	1	6
678.754	1	1
679.940	1	21
681.125	1	10
682.311	1	2
683.496	1	13
684.682	1	9
685.867	1	8
687.053	1	2
688.238	1	6
688.746	1	4

File: GaN_sample D_spot 18_UVVIS_170 K_200um_550 ms 2x2mm1_69.txt
340.368	1	6
341.565	1	9
342.763	1	8
343.960	1	-1
345.157	1	1
346.354	1	2
347.552	1	18
348.749	1	21
349.946	1	10
351.143	1	9
352.340	1	5
353.537	1	16
354.734	1	12
355.931	1	15
357.127	1	20
358.324	1	33
359.521	1	45
360.718	1	57
361.914	1	82
363.111	1	114
364.308	1	136
365.504	1	213
366.701	1	269
367.897	1	327
369.093	1	322
370.290	1	290
371.486	1	260
372.682	1	211
373.879	1	178
375.075	1	139
376.271	1	119
377.467	1	100
378.663	1	85
379.859	1	75
381.055	1	60
382.251	1	53
383.447	1	59
384.643	1	40
385.839	1	33
387.035	1	41
388.230	1	26
389.426	1	32
390.622	1	22
391.817	1	30
393.013	1	24
394.208	1	25
395.404	1	19
396.599	1	8
397.795	1	10
398.990	1	13
400.186	1	8
401.381	1	20
402.576	1	9
403.771	1	3
404.967	1	9
406.162	1	16
407.357	1	8
408.552	1	3
409.747	1	10
410.942	1	7
412.137	1	5
413.332	1	-6
414.526	1	7
415.721	1	1
416.916	1	-9
418.111	1	6
419.305	1	5
420.500	1	8
421.695	1	-2
422.889	1	9
424.084	1	26
425.278	1	8
426.472	1	5
427.667	1	11
428.861	1	5
430.055	1	8
431.250	1	11
432.444	1	12
433.638	1	10
434.832	1	9
436.026	1	8
437.220	1	6
438.414	1	-5
439.608	1	0
440.802	1	8
441.996	1	1
443.190	1	6
444.384	1	7
445.578	1	4
446.771	1	-2
447.965	1	4
449.159	1	-3
450.352	1	-5
451.546	1	-9
452.739	1	7
453.933	1	10
455.126	1	7
456.320	1	6
457.513	1	13
458.706	1	7
459.899	1	9
461.093	1	7
462.286	1	-2
463.479	1	8
464.672	1	-2
465.865	1	8
467.058	1	14
468.251	1	11
469.444	1	9
470.637	1	18
471.830	1	4
473.023	1	5
474.215	1	4
475.408	1	-3
476.601	1	4
477.793	1	13
478.986	1	1
480.179	1	5
481.371	1	12
482.564	1	8
483.756	1	16
484.948	1	11
486.141	1	14
487.333	1	17
488.525	1	24
489.718	1	18
490.910	1	12
492.102	1	10
493.294	1	21
494.486	1	33
495.678	1	32
496.870	1	14
498.062	1	16
499.254	1	36
500.446	1	22
501.638	1	27
502.829	1	33
504.021	1	31
505.213	1	28
506.404	1	33
507.596	1	35
508.788	1	33
509.979	1	42
511.171	1	40
512.362	1	43
513.553	1	38
514.745	1	35
515.936	1	38
517.127	1	45
518.319	1	54
519.510	1	42
520.701	1	52
521.892	1	45
523.083	1	53
524.274	1	43
525.465	1	55
526.656	1	53
527.847	1	40
529.038	1	46
530.229	1	54
531.419	1	54
532.610	1	52
533.801	1	50
534.991	1	43
536.182	1	45
537.373	1	39
538.563	1	39
539.754	1	36
540.944	1	37
542.134	1	35
543.325	1	37
544.515	1	42
545.705	1	44
546.896	1	51
548.086	1	43
549.276	1	39
550.466	1	40
551.656	1	43
552.846	1	39
554.036	1	43
555.226	1	39
556.416	1	28
557.606	1	42
558.796	1	37
559.986	1	45
561.175	1	33
562.365	1	30
563.555	1	34
564.744	1	29
565.934	1	23
567.123	1	22
568.313	1	26
569.502	1	29
570.692	1	28
571.881	1	28
573.070	1	24
574.260	1	25
575.449	1	24
576.638	1	27
577.827	1	21
579.016	1	21
580.205	1	19
581.394	1	15
582.583	1	12
583.772	1	23
584.961	1	17
586.150	1	10
587.339	1	9
588.528	1	17
589.717	1	15
590.905	1	24
592.094	1	22
593.283	1	27
594.471	1	28
595.660	1	22
596.848	1	9
598.037	1	8
599.225	1	5
600.413	1	8
601.602	1	23
602.790	1	22
603.978	1	19
605.166	1	22
606.355	1	9
607.543	1	21
608.731	1	14
609.919	1	2
611.107	1	7
612.295	1	17
613.483	1	6
614.671	1	18
615.858	1	7
617.046	1	7
618.234	1	7
619.422	1	9
620.609	1	10
621.797	1	11
622.985	1	7
624.172	1	4
625.360	1	14
626.547	1	9
627.735	1	-6
628.922	1	1
630.109	1	7
631.297	1	0
632.484	1	3
633.671	1	13
634.858	1	11
636.045	1	20
637.232	1	14
638.419	1	10
639.606	1	6
640.793	1	2
641.980	1	-1
643.167	1	-1
644.354	1	8
645.541	1	20
646.728	1	3
647.914	1	3
649.101	1	-1
650.288	1	3
651.474	1	15
652.661	1	3
653.847	1	9
655.034	1	3
656.220	1	3
657.406	1	9
658.593	1	5
659.779	1	6
660.965	1	7
662.152	1	8
663.338	1	8
664.524	1	1
665.710	1	5
666.896	1	12
668.082	1	16
669.268	1	5
670.454	1	-2
671.640	1	15
672.826	1	3
674.011	1	6
675.197	1	8
676.383	1	10
677.569	1	0
678.754	1	7
679.940	1	17
681.125	1	5
682.311	1	5
683.496	1	9
684.682	1	11
685.867	1	12
687.053	1	-5
688.238	1	9
688.746	1	0