Folder: cryo-il_analysis/Data/GaN_130K_350ms (part 6)

File: GaN_sample F_spot6_UVVIS_130 K_200um_350 ms 2x2mm1_124.txt
340.368	1	1
341.565	1	-6
342.763	1	8
343.960	1	-13
345.157	1	-9
346.354	1	6
347.552	1	2
348.749	1	2
349.946	1	16
351.143	1	7
352.340	1	12
353.537	1	-7
354.734	1	5
355.931	1	9
357.127	1	9
358.324	1	6
359.521	1	18
360.718	1	26
361.914	1	27
363.111	1	37
364.308	1	49
365.504	1	46
366.701	1	56
367.897	1	71
369.093	1	60
370.290	1	55
371.486	1	44
372.682	1	45
373.879	1	47
375.075	1	39
376.271	1	32
377.467	1	25
378.663	1	27
379.859	1	16
381.055	1	21
382.251	1	12
383.447	1	13
384.643	1	17
385.839	1	18
387.035	1	26
388.230	1	11
389.426	1	21
390.622	1	12
391.817	1	13
393.013	1	8
394.208	1	8
395.404	1	5
396.599	1	16
397.795	1	1
398.990	1	3
400.186	1	10
401.381	1	9
402.576	1	9
403.771	1	12
404.967	1	11
406.162	1	4
407.357	1	8
408.552	1	-1
409.747	1	12
410.942	1	12
412.137	1	-1
413.332	1	-1
414.526	1	3
415.721	1	10
416.916	1	11
418.111	1	11
419.305	1	-1
420.500	1	12
421.695	1	2
422.889	1	13
424.084	1	6
425.278	1	7
426.472	1	7
427.667	1	13
428.861	1	4
430.055	1	0
431.250	1	8
432.444	1	13
433.638	1	10
434.832	1	-6
436.026	1	5
437.220	1	0
438.414	1	4
439.608	1	13
440.802	1	-5
441.996	1	12
443.190	1	7
444.384	1	-5
445.578	1	2
446.771	1	7
447.965	1	7
449.159	1	5
450.352	1	10
451.546	1	5
452.739	1	17
453.933	1	2
455.126	1	-12
456.320	1	4
457.513	1	-1
458.706	1	6
459.899	1	6
461.093	1	10
462.286	1	5
463.479	1	5
464.672	1	10
465.865	1	-5
467.058	1	12
468.251	1	9
469.444	1	6
470.637	1	6
471.830	1	8
473.023	1	-3
474.215	1	3
475.408	1	8
476.601	1	6
477.793	1	-5
478.986	1	4
480.179	1	-1
481.371	1	8
482.564	1	6
483.756	1	6
484.948	1	14
486.141	1	4
487.333	1	3
488.525	1	13
489.718	1	13
490.910	1	-2
492.102	1	15
493.294	1	12
494.486	1	13
495.678	1	4
496.870	1	8
498.062	1	12
499.254	1	6
500.446	1	23
501.638	1	11
502.829	1	12
504.021	1	4
505.213	1	11
506.404	1	13
507.596	1	12
508.788	1	15
509.979	1	3
511.171	1	24
512.362	1	11
513.553	1	20
514.745	1	18
515.936	1	34
517.127	1	24
518.319	1	16
519.510	1	21
520.701	1	21
521.892	1	27
523.083	1	22
524.274	1	13
525.465	1	27
526.656	1	26
527.847	1	26
529.038	1	28
530.229	1	26
531.419	1	30
532.610	1	23
533.801	1	46
534.991	1	27
536.182	1	20
537.373	1	15
538.563	1	25
539.754	1	16
540.944	1	23
542.134	1	18
543.325	1	12
544.515	1	19
545.705	1	31
546.896	1	23
548.086	1	7
549.276	1	13
550.466	1	19
551.656	1	19
552.846	1	14
554.036	1	16
555.226	1	21
556.416	1	17
557.606	1	12
558.796	1	23
559.986	1	21
561.175	1	15
562.365	1	23
563.555	1	22
564.744	1	19
565.934	1	9
567.123	1	11
568.313	1	7
569.502	1	9
570.692	1	14
571.881	1	15
573.070	1	10
574.260	1	14
575.449	1	7
576.638	1	8
577.827	1	-1
579.016	1	2
580.205	1	3
581.394	1	15
582.583	1	16
583.772	1	16
584.961	1	11
586.150	1	10
587.339	1	7
588.528	1	19
589.717	1	-3
590.905	1	9
592.094	1	4
593.283	1	3
594.471	1	6
595.660	1	5
596.848	1	12
598.037	1	8
599.225	1	5
600.413	1	8
601.602	1	-2
602.790	1	4
603.978	1	7
605.166	1	18
606.355	1	15
607.543	1	2
608.731	1	11
609.919	1	11
611.107	1	6
612.295	1	19
613.483	1	7
614.671	1	5
615.858	1	-3
617.046	1	6
618.234	1	5
619.422	1	1
620.609	1	-5
621.797	1	4
622.985	1	10
624.172	1	-2
625.360	1	0
626.547	1	11
627.735	1	14
628.922	1	-8
630.109	1	13
631.297	1	6
632.484	1	-3
633.671	1	-5
634.858	1	9
636.045	1	22
637.232	1	-6
638.419	1	11
639.606	1	5
640.793	1	-6
641.980	1	2
643.167	1	3
644.354	1	0
645.541	1	-3
646.728	1	10
647.914	1	-6
649.101	1	5
650.288	1	6
651.474	1	2
652.661	1	2
653.847	1	6
655.034	1	1
656.220	1	0
657.406	1	2
658.593	1	5
659.779	1	9
660.965	1	6
662.152	1	1
663.338	1	8
664.524	1	0
665.710	1	9
666.896	1	2
668.082	1	7
669.268	1	0
670.454	1	2
671.640	1	-12
672.826	1	8
674.011	1	5
675.197	1	2
676.383	1	5
677.569	1	5
678.754	1	4
679.940	1	-3
681.125	1	11
682.311	1	-3
683.496	1	5
684.682	1	1
685.867	1	9
687.053	1	-2
688.238	1	6
688.746	1	12

File: GaN_sample F_spot6_UVVIS_130 K_200um_350 ms 2x2mm1_125.txt
340.368	1	12
341.565	1	2
342.763	1	9
343.960	1	-8
345.157	1	-12
346.354	1	1
347.552	1	-2
348.749	1	5
349.946	1	14
351.143	1	8
352.340	1	16
353.537	1	2
354.734	1	3
355.931	1	12
357.127	1	7
358.324	1	9
359.521	1	6
360.718	1	14
361.914	1	20
363.111	1	51
364.308	1	45
365.504	1	43
366.701	1	59
367.897	1	52
369.093	1	61
370.290	1	55
371.486	1	48
372.682	1	38
373.879	1	41
375.075	1	37
376.271	1	45
377.467	1	30
378.663	1	28
379.859	1	26
381.055	1	21
382.251	1	14
383.447	1	18
384.643	1	23
385.839	1	19
387.035	1	20
388.230	1	12
389.426	1	18
390.622	1	15
391.817	1	22
393.013	1	21
394.208	1	0
395.404	1	10
396.599	1	10
397.795	1	6
398.990	1	5
400.186	1	5
401.381	1	6
402.576	1	15
403.771	1	17
404.967	1	10
406.162	1	1
407.357	1	6
408.552	1	3
409.747	1	10
410.942	1	9
412.137	1	-3
413.332	1	4
414.526	1	13
415.721	1	1
416.916	1	10
418.111	1	9
419.305	1	1
420.500	1	11
421.695	1	1
422.889	1	3
424.084	1	6
425.278	1	1
426.472	1	3
427.667	1	6
428.861	1	6
430.055	1	-2
431.250	1	16
432.444	1	5
433.638	1	9
434.832	1	8
436.026	1	10
437.220	1	4
438.414	1	-5
439.608	1	18
440.802	1	5
441.996	1	10
443.190	1	12
444.384	1	-3
445.578	1	-4
446.771	1	12
447.965	1	3
449.159	1	4
450.352	1	12
451.546	1	10
452.739	1	7
453.933	1	4
455.126	1	-8
456.320	1	11
457.513	1	3
458.706	1	6
459.899	1	5
461.093	1	2
462.286	1	11
463.479	1	11
464.672	1	11
465.865	1	-4
467.058	1	11
468.251	1	2
469.444	1	3
470.637	1	-4
471.830	1	12
473.023	1	13
474.215	1	1
475.408	1	6
476.601	1	6
477.793	1	3
478.986	1	-4
480.179	1	5
481.371	1	19
482.564	1	-2
483.756	1	7
484.948	1	5
486.141	1	-3
487.333	1	3
488.525	1	2
489.718	1	11
490.910	1	-8
492.102	1	9
493.294	1	12
494.486	1	19
495.678	1	4
496.870	1	10
498.062	1	8
499.254	1	12
500.446	1	15
501.638	1	13
502.829	1	8
504.021	1	17
505.213	1	22
506.404	1	13
507.596	1	14
508.788	1	11
509.979	1	15
511.171	1	23
512.362	1	20
513.553	1	14
514.745	1	16
515.936	1	22
517.127	1	21
518.319	1	16
519.510	1	12
520.701	1	17
521.892	1	29
523.083	1	30
524.274	1	13
525.465	1	28
526.656	1	25
527.847	1	19
529.038	1	22
530.229	1	32
531.419	1	16
532.610	1	21
533.801	1	39
534.991	1	18
536.182	1	38
537.373	1	26
538.563	1	22
539.754	1	14
540.944	1	31
542.134	1	17
543.325	1	30
544.515	1	20
545.705	1	10
546.896	1	17
548.086	1	17
549.276	1	17
550.466	1	18
551.656	1	19
552.846	1	10
554.036	1	18
555.226	1	17
556.416	1	27
557.606	1	15
558.796	1	20
559.986	1	13
561.175	1	14
562.365	1	21
563.555	1	23
564.744	1	12
565.934	1	12
567.123	1	20
568.313	1	9
569.502	1	7
570.692	1	14
571.881	1	9
573.070	1	9
574.260	1	3
575.449	1	7
576.638	1	5
577.827	1	-2
579.016	1	7
580.205	1	9
581.394	1	17
582.583	1	14
583.772	1	13
584.961	1	8
586.150	1	7
587.339	1	4
588.528	1	20
589.717	1	6
590.905	1	15
592.094	1	9
593.283	1	-9
594.471	1	15
595.660	1	16
596.848	1	12
598.037	1	11
599.225	1	5
600.413	1	10
601.602	1	4
602.790	1	2
603.978	1	5
605.166	1	11
606.355	1	21
607.543	1	12
608.731	1	6
609.919	1	9
611.107	1	6
612.295	1	9
613.483	1	1
614.671	1	11
615.858	1	3
617.046	1	6
618.234	1	14
619.422	1	4
620.609	1	2
621.797	1	-1
622.985	1	1
624.172	1	5
625.360	1	0
626.547	1	10
627.735	1	4
628.922	1	-11
630.109	1	11
631.297	1	-1
632.484	1	-3
633.671	1	-2
634.858	1	15
636.045	1	9
637.232	1	1
638.419	1	12
639.606	1	2
640.793	1	-9
641.980	1	9
643.167	1	0
644.354	1	-4
645.541	1	5
646.728	1	12
647.914	1	-3
649.101	1	-1
650.288	1	14
651.474	1	-8
652.661	1	-4
653.847	1	2
655.034	1	2
656.220	1	1
657.406	1	7
658.593	1	9
659.779	1	10
660.965	1	1
662.152	1	1
663.338	1	-1
664.524	1	-1
665.710	1	10
666.896	1	4
668.082	1	6
669.268	1	-4
670.454	1	9
671.640	1	-13
672.826	1	-9
674.011	1	1
675.197	1	-1
676.383	1	6
677.569	1	5
678.754	1	-1
679.940	1	5
681.125	1	15
682.311	1	-6
683.496	1	-2
684.682	1	-2
685.867	1	16
687.053	1	1
688.238	1	11
688.746	1	1

File: GaN_sample F_spot6_UVVIS_130 K_200um_350 ms 2x2mm1_126.txt
340.368	1	11
341.565	1	-3
342.763	1	8
343.960	1	-9
345.157	1	-9
346.354	1	0
347.552	1	4
348.749	1	6
349.946	1	8
351.143	1	4
352.340	1	11
353.537	1	3
354.734	1	9
355.931	1	4
357.127	1	9
358.324	1	6
359.521	1	11
360.718	1	23
361.914	1	18
363.111	1	32
364.308	1	46
365.504	1	51
366.701	1	61
367.897	1	50
369.093	1	52
370.290	1	54
371.486	1	47
372.682	1	31
373.879	1	42
375.075	1	46
376.271	1	44
377.467	1	35
378.663	1	17
379.859	1	20
381.055	1	15
382.251	1	25
383.447	1	23
384.643	1	21
385.839	1	13
387.035	1	23
388.230	1	17
389.426	1	21
390.622	1	9
391.817	1	19
393.013	1	9
394.208	1	5
395.404	1	1
396.599	1	16
397.795	1	12
398.990	1	6
400.186	1	7
401.381	1	13
402.576	1	15
403.771	1	9
404.967	1	12
406.162	1	7
407.357	1	19
408.552	1	0
409.747	1	3
410.942	1	5
412.137	1	3
413.332	1	1
414.526	1	5
415.721	1	2
416.916	1	-5
418.111	1	8
419.305	1	11
420.500	1	5
421.695	1	2
422.889	1	7
424.084	1	8
425.278	1	7
426.472	1	4
427.667	1	14
428.861	1	-1
430.055	1	2
431.250	1	11
432.444	1	6
433.638	1	11
434.832	1	6
436.026	1	14
437.220	1	-3
438.414	1	0
439.608	1	19
440.802	1	-5
441.996	1	5
443.190	1	6
444.384	1	-4
445.578	1	5
446.771	1	9
447.965	1	7
449.159	1	6
450.352	1	13
451.546	1	12
452.739	1	11
453.933	1	13
455.126	1	-2
456.320	1	5
457.513	1	-1
458.706	1	5
459.899	1	13
461.093	1	6
462.286	1	7
463.479	1	10
464.672	1	6
465.865	1	-13
467.058	1	8
468.251	1	5
469.444	1	8
470.637	1	12
471.830	1	12
473.023	1	1
474.215	1	9
475.408	1	7
476.601	1	6
477.793	1	5
478.986	1	-3
480.179	1	5
481.371	1	9
482.564	1	-3
483.756	1	7
484.948	1	11
486.141	1	2
487.333	1	6
488.525	1	18
489.718	1	15
490.910	1	0
492.102	1	14
493.294	1	24
494.486	1	22
495.678	1	4
496.870	1	25
498.062	1	13
499.254	1	12
500.446	1	11
501.638	1	3
502.829	1	15
504.021	1	10
505.213	1	7
506.404	1	10
507.596	1	14
508.788	1	10
509.979	1	19
511.171	1	27
512.362	1	22
513.553	1	23
514.745	1	16
515.936	1	20
517.127	1	22
518.319	1	18
519.510	1	25
520.701	1	19
521.892	1	22
523.083	1	18
524.274	1	5
525.465	1	28
526.656	1	14
527.847	1	23
529.038	1	15
530.229	1	26
531.419	1	28
532.610	1	17
533.801	1	32
534.991	1	22
536.182	1	26
537.373	1	28
538.563	1	26
539.754	1	12
540.944	1	26
542.134	1	26
543.325	1	16
544.515	1	20
545.705	1	14
546.896	1	17
548.086	1	7
549.276	1	10
550.466	1	17
551.656	1	16
552.846	1	17
554.036	1	19
555.226	1	12
556.416	1	25
557.606	1	21
558.796	1	19
559.986	1	12
561.175	1	17
562.365	1	13
563.555	1	23
564.744	1	12
565.934	1	24
567.123	1	11
568.313	1	15
569.502	1	15
570.692	1	11
571.881	1	2
573.070	1	12
574.260	1	8
575.449	1	15
576.638	1	6
577.827	1	-5
579.016	1	14
580.205	1	7
581.394	1	14
582.583	1	18
583.772	1	16
584.961	1	-2
586.150	1	17
587.339	1	-2
588.528	1	9
589.717	1	-3
590.905	1	11
592.094	1	1
593.283	1	2
594.471	1	5
595.660	1	4
596.848	1	13
598.037	1	4
599.225	1	15
600.413	1	12
601.602	1	-1
602.790	1	7
603.978	1	17
605.166	1	15
606.355	1	11
607.543	1	9
608.731	1	6
609.919	1	7
611.107	1	11
612.295	1	19
613.483	1	-10
614.671	1	6
615.858	1	0
617.046	1	13
618.234	1	9
619.422	1	4
620.609	1	-4
621.797	1	-1
622.985	1	10
624.172	1	-1
625.360	1	-3
626.547	1	10
627.735	1	14
628.922	1	3
630.109	1	9
631.297	1	3
632.484	1	-4
633.671	1	1
634.858	1	15
636.045	1	19
637.232	1	-1
638.419	1	15
639.606	1	11
640.793	1	-11
641.980	1	3
643.167	1	8
644.354	1	0
645.541	1	0
646.728	1	0
647.914	1	-2
649.101	1	0
650.288	1	17
651.474	1	3
652.661	1	4
653.847	1	8
655.034	1	1
656.220	1	5
657.406	1	0
658.593	1	0
659.779	1	6
660.965	1	5
662.152	1	8
663.338	1	-8
664.524	1	2
665.710	1	0
666.896	1	9
668.082	1	7
669.268	1	4
670.454	1	2
671.640	1	-4
672.826	1	-1
674.011	1	5
675.197	1	7
676.383	1	1
677.569	1	6
678.754	1	0
679.940	1	-4
681.125	1	8
682.311	1	-2
683.496	1	1
684.682	1	7
685.867	1	8
687.053	1	11
688.238	1	10
688.746	1	15

File: GaN_sample F_spot6_UVVIS_130 K_200um_350 ms 2x2mm1_127.txt
340.368	1	1
341.565	1	3
342.763	1	8
343.960	1	-3
345.157	1	-4
346.354	1	4
347.552	1	2
348.749	1	6
349.946	1	5
351.143	1	0
352.340	1	8
353.537	1	9
354.734	1	-8
355.931	1	8
357.127	1	8
358.324	1	13
359.521	1	9
360.718	1	17
361.914	1	14
363.111	1	32
364.308	1	37
365.504	1	48
366.701	1	53
367.897	1	60
369.093	1	51
370.290	1	55
371.486	1	45
372.682	1	41
373.879	1	33
375.075	1	38
376.271	1	21
377.467	1	31
378.663	1	25
379.859	1	9
381.055	1	17
382.251	1	20
383.447	1	25
384.643	1	12
385.839	1	14
387.035	1	20
388.230	1	19
389.426	1	11
390.622	1	13
391.817	1	17
393.013	1	12
394.208	1	4
395.404	1	4
396.599	1	24
397.795	1	3
398.990	1	4
400.186	1	-3
401.381	1	10
402.576	1	19
403.771	1	14
404.967	1	11
406.162	1	6
407.357	1	6
408.552	1	2
409.747	1	10
410.942	1	6
412.137	1	3
413.332	1	2
414.526	1	5
415.721	1	10
416.916	1	7
418.111	1	13
419.305	1	12
420.500	1	5
421.695	1	13
422.889	1	5
424.084	1	13
425.278	1	5
426.472	1	6
427.667	1	12
428.861	1	13
430.055	1	6
431.250	1	18
432.444	1	10
433.638	1	8
434.832	1	10
436.026	1	15
437.220	1	8
438.414	1	9
439.608	1	13
440.802	1	-6
441.996	1	12
443.190	1	14
444.384	1	2
445.578	1	5
446.771	1	18
447.965	1	7
449.159	1	8
450.352	1	13
451.546	1	17
452.739	1	12
453.933	1	9
455.126	1	-7
456.320	1	-3
457.513	1	14
458.706	1	-1
459.899	1	2
461.093	1	16
462.286	1	10
463.479	1	15
464.672	1	11
465.865	1	-3
467.058	1	4
468.251	1	-2
469.444	1	5
470.637	1	3
471.830	1	5
473.023	1	3
474.215	1	12
475.408	1	7
476.601	1	2
477.793	1	8
478.986	1	3
480.179	1	7
481.371	1	10
482.564	1	13
483.756	1	-8
484.948	1	8
486.141	1	8
487.333	1	-3
488.525	1	9
489.718	1	19
490.910	1	-6
492.102	1	15
493.294	1	15
494.486	1	9
495.678	1	11
496.870	1	14
498.062	1	5
499.254	1	14
500.446	1	19
501.638	1	13
502.829	1	12
504.021	1	2
505.213	1	15
506.404	1	7
507.596	1	15
508.788	1	4
509.979	1	12
511.171	1	25
512.362	1	14
513.553	1	22
514.745	1	18
515.936	1	43
517.127	1	20
518.319	1	15
519.510	1	18
520.701	1	15
521.892	1	31
523.083	1	24
524.274	1	7
525.465	1	19
526.656	1	23
527.847	1	14
529.038	1	5
530.229	1	22
531.419	1	33
532.610	1	22
533.801	1	28
534.991	1	19
536.182	1	18
537.373	1	23
538.563	1	29
539.754	1	26
540.944	1	19
542.134	1	18
543.325	1	26
544.515	1	20
545.705	1	21
546.896	1	18
548.086	1	15
549.276	1	12
550.466	1	20
551.656	1	20
552.846	1	3
554.036	1	26
555.226	1	9
556.416	1	25
557.606	1	12
558.796	1	16
559.986	1	15
561.175	1	11
562.365	1	18
563.555	1	14
564.744	1	11
565.934	1	6
567.123	1	14
568.313	1	3
569.502	1	7
570.692	1	12
571.881	1	15
573.070	1	11
574.260	1	12
575.449	1	9
576.638	1	-1
577.827	1	6
579.016	1	9
580.205	1	-10
581.394	1	7
582.583	1	16
583.772	1	8
584.961	1	6
586.150	1	13
587.339	1	3
588.528	1	8
589.717	1	3
590.905	1	11
592.094	1	4
593.283	1	-5
594.471	1	-2
595.660	1	8
596.848	1	12
598.037	1	12
599.225	1	10
600.413	1	15
601.602	1	-2
602.790	1	8
603.978	1	-1
605.166	1	6
606.355	1	10
607.543	1	10
608.731	1	9
609.919	1	15
611.107	1	6
612.295	1	13
613.483	1	2
614.671	1	5
615.858	1	1
617.046	1	12
618.234	1	0
619.422	1	2
620.609	1	-3
621.797	1	8
622.985	1	16
624.172	1	2
625.360	1	5
626.547	1	4
627.735	1	19
628.922	1	-3
630.109	1	12
631.297	1	5
632.484	1	-3
633.671	1	-5
634.858	1	20
636.045	1	9
637.232	1	1
638.419	1	2
639.606	1	11
640.793	1	-2
641.980	1	0
643.167	1	7
644.354	1	-3
645.541	1	2
646.728	1	8
647.914	1	2
649.101	1	-5
650.288	1	9
651.474	1	6
652.661	1	-2
653.847	1	-6
655.034	1	7
656.220	1	-2
657.406	1	6
658.593	1	-1
659.779	1	4
660.965	1	7
662.152	1	4
663.338	1	2
664.524	1	0
665.710	1	-2
666.896	1	8
668.082	1	9
669.268	1	-5
670.454	1	-2
671.640	1	-2
672.826	1	6
674.011	1	0
675.197	1	4
676.383	1	10
677.569	1	6
678.754	1	9
679.940	1	1
681.125	1	8
682.311	1	-11
683.496	1	2
684.682	1	1
685.867	1	0
687.053	1	8
688.238	1	9
688.746	1	11

File: GaN_sample F_spot6_UVVIS_130 K_200um_350 ms 2x2mm1_128.txt
340.368	1	11
341.565	1	1
342.763	1	10
343.960	1	-8
345.157	1	-9
346.354	1	10
347.552	1	5
348.749	1	12
349.946	1	7
351.143	1	6
352.340	1	13
353.537	1	-2
354.734	1	4
355.931	1	7
357.127	1	7
358.324	1	5
359.521	1	4
360.718	1	19
361.914	1	20
363.111	1	32
364.308	1	36
365.504	1	53
366.701	1	51
367.897	1	56
369.093	1	51
370.290	1	56
371.486	1	40
372.682	1	36
373.879	1	40
375.075	1	39
376.271	1	18
377.467	1	30
378.663	1	25
379.859	1	10
381.055	1	21
382.251	1	20
383.447	1	20
384.643	1	10
385.839	1	17
387.035	1	22
388.230	1	11
389.426	1	15
390.622	1	12
391.817	1	16
393.013	1	10
394.208	1	9
395.404	1	0
396.599	1	18
397.795	1	7
398.990	1	7
400.186	1	11
401.381	1	9
402.576	1	8
403.771	1	14
404.967	1	9
406.162	1	-3
407.357	1	17
408.552	1	3
409.747	1	6
410.942	1	9
412.137	1	2
413.332	1	8
414.526	1	7
415.721	1	2
416.916	1	2
418.111	1	12
419.305	1	3
420.500	1	12
421.695	1	3
422.889	1	7
424.084	1	11
425.278	1	4
426.472	1	12
427.667	1	5
428.861	1	-6
430.055	1	15
431.250	1	15
432.444	1	9
433.638	1	1
434.832	1	3
436.026	1	3
437.220	1	5
438.414	1	-3
439.608	1	11
440.802	1	-4
441.996	1	11
443.190	1	2
444.384	1	3
445.578	1	9
446.771	1	5
447.965	1	10
449.159	1	10
450.352	1	14
451.546	1	14
452.739	1	14
453.933	1	-2
455.126	1	-1
456.320	1	-1
457.513	1	1
458.706	1	7
459.899	1	4
461.093	1	18
462.286	1	21
463.479	1	16
464.672	1	10
465.865	1	0
467.058	1	7
468.251	1	7
469.444	1	10
470.637	1	11
471.830	1	6
473.023	1	12
474.215	1	11
475.408	1	2
476.601	1	1
477.793	1	0
478.986	1	-1
480.179	1	2
481.371	1	13
482.564	1	2
483.756	1	-2
484.948	1	0
486.141	1	-1
487.333	1	4
488.525	1	7
489.718	1	13
490.910	1	1
492.102	1	9
493.294	1	10
494.486	1	26
495.678	1	7
496.870	1	8
498.062	1	15
499.254	1	24
500.446	1	12
501.638	1	10
502.829	1	5
504.021	1	9
505.213	1	10
506.404	1	12
507.596	1	7
508.788	1	12
509.979	1	23
511.171	1	17
512.362	1	8
513.553	1	24
514.745	1	25
515.936	1	25
517.127	1	18
518.319	1	8
519.510	1	17
520.701	1	20
521.892	1	27
523.083	1	18
524.274	1	18
525.465	1	27
526.656	1	21
527.847	1	20
529.038	1	15
530.229	1	33
531.419	1	24
532.610	1	21
533.801	1	38
534.991	1	14
536.182	1	30
537.373	1	20
538.563	1	21
539.754	1	24
540.944	1	11
542.134	1	14
543.325	1	12
544.515	1	11
545.705	1	17
546.896	1	31
548.086	1	5
549.276	1	6
550.466	1	19
551.656	1	29
552.846	1	5
554.036	1	19
555.226	1	16
556.416	1	19
557.606	1	18
558.796	1	23
559.986	1	16
561.175	1	18
562.365	1	7
563.555	1	22
564.744	1	19
565.934	1	8
567.123	1	15
568.313	1	6
569.502	1	11
570.692	1	16
571.881	1	13
573.070	1	6
574.260	1	8
575.449	1	9
576.638	1	1
577.827	1	1
579.016	1	14
580.205	1	0
581.394	1	8
582.583	1	21
583.772	1	4
584.961	1	2
586.150	1	14
587.339	1	7
588.528	1	13
589.717	1	-7
590.905	1	16
592.094	1	3
593.283	1	-7
594.471	1	6
595.660	1	7
596.848	1	12
598.037	1	7
599.225	1	6
600.413	1	13
601.602	1	-4
602.790	1	4
603.978	1	9
605.166	1	5
606.355	1	11
607.543	1	4
608.731	1	7
609.919	1	0
611.107	1	14
612.295	1	11
613.483	1	-6
614.671	1	0
615.858	1	2
617.046	1	6
618.234	1	7
619.422	1	3
620.609	1	0
621.797	1	-3
622.985	1	10
624.172	1	10
625.360	1	6
626.547	1	10
627.735	1	8
628.922	1	-7
630.109	1	10
631.297	1	2
632.484	1	-9
633.671	1	1
634.858	1	11
636.045	1	13
637.232	1	1
638.419	1	14
639.606	1	3
640.793	1	-7
641.980	1	4
643.167	1	7
644.354	1	0
645.541	1	3
646.728	1	16
647.914	1	-3
649.101	1	3
650.288	1	10
651.474	1	-1
652.661	1	0
653.847	1	1
655.034	1	3
656.220	1	5
657.406	1	7
658.593	1	6
659.779	1	1
660.965	1	0
662.152	1	1
663.338	1	-2
664.524	1	-2
665.710	1	7
666.896	1	6
668.082	1	11
669.268	1	-3
670.454	1	13
671.640	1	1
672.826	1	-1
674.011	1	5
675.197	1	-2
676.383	1	6
677.569	1	-4
678.754	1	4
679.940	1	7
681.125	1	9
682.311	1	-1
683.496	1	2
684.682	1	8
685.867	1	6
687.053	1	11
688.238	1	10
688.746	1	9

File: GaN_sample F_spot6_UVVIS_130 K_200um_350 ms 2x2mm1_129.txt
340.368	1	5
341.565	1	0
342.763	1	11
343.960	1	1
345.157	1	-9
346.354	1	1
347.552	1	-4
348.749	1	10
349.946	1	8
351.143	1	13
352.340	1	9
353.537	1	3
354.734	1	6
355.931	1	15
357.127	1	11
358.324	1	11
359.521	1	13
360.718	1	12
361.914	1	19
363.111	1	32
364.308	1	45
365.504	1	38
366.701	1	48
367.897	1	55
369.093	1	43
370.290	1	53
371.486	1	54
372.682	1	43
373.879	1	39
375.075	1	39
376.271	1	21
377.467	1	29
378.663	1	24
379.859	1	12
381.055	1	17
382.251	1	14
383.447	1	21
384.643	1	17
385.839	1	14
387.035	1	24
388.230	1	15
389.426	1	25
390.622	1	22
391.817	1	11
393.013	1	11
394.208	1	6
395.404	1	-2
396.599	1	11
397.795	1	2
398.990	1	5
400.186	1	3
401.381	1	9
402.576	1	3
403.771	1	14
404.967	1	6
406.162	1	3
407.357	1	15
408.552	1	6
409.747	1	5
410.942	1	6
412.137	1	2
413.332	1	11
414.526	1	10
415.721	1	6
416.916	1	1
418.111	1	4
419.305	1	0
420.500	1	5
421.695	1	11
422.889	1	11
424.084	1	13
425.278	1	1
426.472	1	13
427.667	1	12
428.861	1	6
430.055	1	4
431.250	1	21
432.444	1	15
433.638	1	1
434.832	1	1
436.026	1	5
437.220	1	-7
438.414	1	7
439.608	1	18
440.802	1	-1
441.996	1	11
443.190	1	4
444.384	1	-5
445.578	1	5
446.771	1	11
447.965	1	-5
449.159	1	12
450.352	1	3
451.546	1	13
452.739	1	10
453.933	1	1
455.126	1	-1
456.320	1	1
457.513	1	-4
458.706	1	16
459.899	1	7
461.093	1	10
462.286	1	9
463.479	1	17
464.672	1	6
465.865	1	-11
467.058	1	5
468.251	1	1
469.444	1	6
470.637	1	9
471.830	1	3
473.023	1	7
474.215	1	-3
475.408	1	6
476.601	1	5
477.793	1	7
478.986	1	-2
480.179	1	3
481.371	1	8
482.564	1	3
483.756	1	6
484.948	1	11
486.141	1	15
487.333	1	-3
488.525	1	14
489.718	1	8
490.910	1	-6
492.102	1	14
493.294	1	7
494.486	1	24
495.678	1	9
496.870	1	17
498.062	1	2
499.254	1	20
500.446	1	9
501.638	1	17
502.829	1	13
504.021	1	14
505.213	1	15
506.404	1	9
507.596	1	-1
508.788	1	3
509.979	1	5
511.171	1	31
512.362	1	28
513.553	1	15
514.745	1	7
515.936	1	24
517.127	1	19
518.319	1	11
519.510	1	11
520.701	1	21
521.892	1	22
523.083	1	22
524.274	1	15
525.465	1	25
526.656	1	26
527.847	1	12
529.038	1	14
530.229	1	24
531.419	1	19
532.610	1	16
533.801	1	26
534.991	1	15
536.182	1	25
537.373	1	13
538.563	1	32
539.754	1	14
540.944	1	30
542.134	1	15
543.325	1	19
544.515	1	10
545.705	1	16
546.896	1	18
548.086	1	18
549.276	1	12
550.466	1	14
551.656	1	13
552.846	1	7
554.036	1	13
555.226	1	19
556.416	1	16
557.606	1	16
558.796	1	13
559.986	1	8
561.175	1	14
562.365	1	11
563.555	1	21
564.744	1	9
565.934	1	9
567.123	1	12
568.313	1	6
569.502	1	6
570.692	1	11
571.881	1	13
573.070	1	3
574.260	1	9
575.449	1	7
576.638	1	6
577.827	1	6
579.016	1	7
580.205	1	9
581.394	1	4
582.583	1	12
583.772	1	8
584.961	1	8
586.150	1	11
587.339	1	13
588.528	1	13
589.717	1	3
590.905	1	7
592.094	1	10
593.283	1	-1
594.471	1	7
595.660	1	5
596.848	1	7
598.037	1	5
599.225	1	9
600.413	1	6
601.602	1	-4
602.790	1	13
603.978	1	8
605.166	1	20
606.355	1	21
607.543	1	6
608.731	1	9
609.919	1	13
611.107	1	15
612.295	1	15
613.483	1	5
614.671	1	7
615.858	1	5
617.046	1	17
618.234	1	11
619.422	1	5
620.609	1	-1
621.797	1	6
622.985	1	9
624.172	1	-1
625.360	1	4
626.547	1	7
627.735	1	14
628.922	1	8
630.109	1	10
631.297	1	0
632.484	1	-1
633.671	1	-8
634.858	1	8
636.045	1	13
637.232	1	1
638.419	1	7
639.606	1	5
640.793	1	-1
641.980	1	1
643.167	1	8
644.354	1	2
645.541	1	-1
646.728	1	10
647.914	1	-1
649.101	1	-16
650.288	1	9
651.474	1	2
652.661	1	-3
653.847	1	4
655.034	1	6
656.220	1	-4
657.406	1	3
658.593	1	2
659.779	1	8
660.965	1	6
662.152	1	2
663.338	1	6
664.524	1	-1
665.710	1	9
666.896	1	14
668.082	1	4
669.268	1	-2
670.454	1	8
671.640	1	-2
672.826	1	11
674.011	1	7
675.197	1	-2
676.383	1	0
677.569	1	-4
678.754	1	0
679.940	1	1
681.125	1	3
682.311	1	-7
683.496	1	4
684.682	1	-7
685.867	1	-2
687.053	1	6
688.238	1	7
688.746	1	6