Folder: cryo-il_analysis/Data/GaN_170K_550ms (part 23)

File: GaN_sample D_spot 18_UVVIS_170 K_200um_550 ms 2x2mm1_279.txt
340.368	1	0
341.565	1	1
342.763	1	-6
343.960	1	-3
345.157	1	-5
346.354	1	-8
347.552	1	14
348.749	1	4
349.946	1	14
351.143	1	6
352.340	1	3
353.537	1	4
354.734	1	7
355.931	1	1
357.127	1	-5
358.324	1	3
359.521	1	8
360.718	1	8
361.914	1	4
363.111	1	9
364.308	1	12
365.504	1	0
366.701	1	12
367.897	1	7
369.093	1	-6
370.290	1	4
371.486	1	8
372.682	1	23
373.879	1	11
375.075	1	1
376.271	1	11
377.467	1	8
378.663	1	8
379.859	1	-2
381.055	1	2
382.251	1	2
383.447	1	13
384.643	1	-8
385.839	1	-9
387.035	1	13
388.230	1	7
389.426	1	10
390.622	1	4
391.817	1	-5
393.013	1	1
394.208	1	8
395.404	1	8
396.599	1	-5
397.795	1	3
398.990	1	-11
400.186	1	-1
401.381	1	7
402.576	1	0
403.771	1	-1
404.967	1	-5
406.162	1	15
407.357	1	-8
408.552	1	7
409.747	1	-5
410.942	1	5
412.137	1	-7
413.332	1	2
414.526	1	1
415.721	1	-6
416.916	1	-4
418.111	1	3
419.305	1	-1
420.500	1	2
421.695	1	-4
422.889	1	3
424.084	1	10
425.278	1	1
426.472	1	9
427.667	1	6
428.861	1	-2
430.055	1	5
431.250	1	10
432.444	1	7
433.638	1	15
434.832	1	1
436.026	1	0
437.220	1	-3
438.414	1	-7
439.608	1	-3
440.802	1	5
441.996	1	-3
443.190	1	-4
444.384	1	7
445.578	1	8
446.771	1	-9
447.965	1	-3
449.159	1	-8
450.352	1	-6
451.546	1	-2
452.739	1	1
453.933	1	-8
455.126	1	6
456.320	1	-3
457.513	1	10
458.706	1	7
459.899	1	1
461.093	1	0
462.286	1	-1
463.479	1	-9
464.672	1	3
465.865	1	0
467.058	1	6
468.251	1	-11
469.444	1	-1
470.637	1	1
471.830	1	-6
473.023	1	-1
474.215	1	-1
475.408	1	-10
476.601	1	15
477.793	1	1
478.986	1	-8
480.179	1	-6
481.371	1	-4
482.564	1	-2
483.756	1	2
484.948	1	-4
486.141	1	13
487.333	1	0
488.525	1	4
489.718	1	8
490.910	1	4
492.102	1	0
493.294	1	-3
494.486	1	3
495.678	1	7
496.870	1	-4
498.062	1	-1
499.254	1	2
500.446	1	2
501.638	1	-8
502.829	1	4
504.021	1	2
505.213	1	-4
506.404	1	0
507.596	1	4
508.788	1	-14
509.979	1	3
511.171	1	4
512.362	1	0
513.553	1	7
514.745	1	-8
515.936	1	3
517.127	1	12
518.319	1	15
519.510	1	1
520.701	1	9
521.892	1	-2
523.083	1	2
524.274	1	4
525.465	1	0
526.656	1	9
527.847	1	4
529.038	1	3
530.229	1	6
531.419	1	5
532.610	1	0
533.801	1	12
534.991	1	-6
536.182	1	-6
537.373	1	-2
538.563	1	5
539.754	1	2
540.944	1	2
542.134	1	4
543.325	1	4
544.515	1	2
545.705	1	9
546.896	1	11
548.086	1	6
549.276	1	3
550.466	1	-1
551.656	1	9
552.846	1	-4
554.036	1	5
555.226	1	-1
556.416	1	4
557.606	1	10
558.796	1	4
559.986	1	-2
561.175	1	-4
562.365	1	2
563.555	1	6
564.744	1	3
565.934	1	7
567.123	1	1
568.313	1	-1
569.502	1	5
570.692	1	8
571.881	1	-5
573.070	1	-2
574.260	1	2
575.449	1	3
576.638	1	0
577.827	1	-7
579.016	1	6
580.205	1	-3
581.394	1	8
582.583	1	-6
583.772	1	0
584.961	1	-3
586.150	1	-1
587.339	1	-3
588.528	1	-1
589.717	1	2
590.905	1	5
592.094	1	4
593.283	1	-3
594.471	1	4
595.660	1	-2
596.848	1	-1
598.037	1	8
599.225	1	7
600.413	1	-4
601.602	1	5
602.790	1	4
603.978	1	8
605.166	1	2
606.355	1	10
607.543	1	14
608.731	1	0
609.919	1	-7
611.107	1	-3
612.295	1	-4
613.483	1	-9
614.671	1	3
615.858	1	-6
617.046	1	-3
618.234	1	3
619.422	1	-11
620.609	1	0
621.797	1	-4
622.985	1	7
624.172	1	10
625.360	1	1
626.547	1	-8
627.735	1	-4
628.922	1	-2
630.109	1	4
631.297	1	1
632.484	1	-13
633.671	1	3
634.858	1	6
636.045	1	7
637.232	1	3
638.419	1	-3
639.606	1	-5
640.793	1	-5
641.980	1	-8
643.167	1	-11
644.354	1	7
645.541	1	1
646.728	1	4
647.914	1	3
649.101	1	5
650.288	1	1
651.474	1	4
652.661	1	0
653.847	1	-12
655.034	1	-2
656.220	1	7
657.406	1	0
658.593	1	-6
659.779	1	-3
660.965	1	11
662.152	1	3
663.338	1	5
664.524	1	2
665.710	1	-1
666.896	1	3
668.082	1	5
669.268	1	0
670.454	1	-7
671.640	1	4
672.826	1	-2
674.011	1	10
675.197	1	4
676.383	1	-1
677.569	1	-9
678.754	1	4
679.940	1	8
681.125	1	4
682.311	1	6
683.496	1	7
684.682	1	1
685.867	1	4
687.053	1	-5
688.238	1	-1
688.746	1	-5

File: GaN_sample D_spot 18_UVVIS_170 K_200um_550 ms 2x2mm1_280.txt
340.368	1	3
341.565	1	4
342.763	1	-2
343.960	1	-4
345.157	1	0
346.354	1	-12
347.552	1	7
348.749	1	11
349.946	1	1
351.143	1	-6
352.340	1	9
353.537	1	3
354.734	1	8
355.931	1	2
357.127	1	3
358.324	1	14
359.521	1	-1
360.718	1	7
361.914	1	9
363.111	1	18
364.308	1	4
365.504	1	2
366.701	1	5
367.897	1	10
369.093	1	3
370.290	1	11
371.486	1	-4
372.682	1	8
373.879	1	15
375.075	1	7
376.271	1	9
377.467	1	12
378.663	1	10
379.859	1	0
381.055	1	3
382.251	1	5
383.447	1	16
384.643	1	2
385.839	1	-6
387.035	1	-3
388.230	1	-3
389.426	1	4
390.622	1	-2
391.817	1	1
393.013	1	-5
394.208	1	4
395.404	1	7
396.599	1	-7
397.795	1	4
398.990	1	-3
400.186	1	-6
401.381	1	5
402.576	1	1
403.771	1	5
404.967	1	1
406.162	1	5
407.357	1	3
408.552	1	-2
409.747	1	3
410.942	1	0
412.137	1	-6
413.332	1	-3
414.526	1	-1
415.721	1	-1
416.916	1	-10
418.111	1	8
419.305	1	1
420.500	1	-2
421.695	1	-4
422.889	1	2
424.084	1	17
425.278	1	-6
426.472	1	5
427.667	1	2
428.861	1	-2
430.055	1	5
431.250	1	19
432.444	1	4
433.638	1	5
434.832	1	1
436.026	1	4
437.220	1	6
438.414	1	3
439.608	1	-3
440.802	1	11
441.996	1	0
443.190	1	-5
444.384	1	2
445.578	1	5
446.771	1	-14
447.965	1	-5
449.159	1	-4
450.352	1	0
451.546	1	-1
452.739	1	0
453.933	1	4
455.126	1	17
456.320	1	2
457.513	1	7
458.706	1	7
459.899	1	1
461.093	1	6
462.286	1	-2
463.479	1	-12
464.672	1	-14
465.865	1	3
467.058	1	6
468.251	1	1
469.444	1	3
470.637	1	-3
471.830	1	-3
473.023	1	11
474.215	1	2
475.408	1	-10
476.601	1	12
477.793	1	15
478.986	1	-6
480.179	1	-8
481.371	1	-1
482.564	1	2
483.756	1	7
484.948	1	-8
486.141	1	12
487.333	1	-11
488.525	1	8
489.718	1	3
490.910	1	-1
492.102	1	0
493.294	1	-1
494.486	1	8
495.678	1	0
496.870	1	6
498.062	1	5
499.254	1	14
500.446	1	-1
501.638	1	-3
502.829	1	-5
504.021	1	4
505.213	1	-7
506.404	1	5
507.596	1	8
508.788	1	-9
509.979	1	5
511.171	1	0
512.362	1	-2
513.553	1	-1
514.745	1	-4
515.936	1	2
517.127	1	0
518.319	1	4
519.510	1	11
520.701	1	1
521.892	1	1
523.083	1	3
524.274	1	7
525.465	1	2
526.656	1	-1
527.847	1	-2
529.038	1	-10
530.229	1	13
531.419	1	3
532.610	1	7
533.801	1	-3
534.991	1	-1
536.182	1	6
537.373	1	3
538.563	1	2
539.754	1	4
540.944	1	-1
542.134	1	-6
543.325	1	1
544.515	1	0
545.705	1	14
546.896	1	6
548.086	1	0
549.276	1	3
550.466	1	2
551.656	1	4
552.846	1	-4
554.036	1	0
555.226	1	0
556.416	1	1
557.606	1	-3
558.796	1	1
559.986	1	7
561.175	1	-10
562.365	1	3
563.555	1	2
564.744	1	2
565.934	1	9
567.123	1	1
568.313	1	-1
569.502	1	6
570.692	1	6
571.881	1	8
573.070	1	-9
574.260	1	10
575.449	1	7
576.638	1	10
577.827	1	-7
579.016	1	7
580.205	1	-6
581.394	1	3
582.583	1	-4
583.772	1	9
584.961	1	4
586.150	1	-7
587.339	1	7
588.528	1	2
589.717	1	6
590.905	1	8
592.094	1	9
593.283	1	2
594.471	1	9
595.660	1	0
596.848	1	2
598.037	1	-5
599.225	1	10
600.413	1	-7
601.602	1	-5
602.790	1	7
603.978	1	5
605.166	1	1
606.355	1	7
607.543	1	11
608.731	1	4
609.919	1	-7
611.107	1	0
612.295	1	2
613.483	1	-2
614.671	1	5
615.858	1	-5
617.046	1	-3
618.234	1	0
619.422	1	-4
620.609	1	-1
621.797	1	0
622.985	1	3
624.172	1	0
625.360	1	1
626.547	1	-8
627.735	1	-10
628.922	1	2
630.109	1	-8
631.297	1	1
632.484	1	-2
633.671	1	9
634.858	1	1
636.045	1	-4
637.232	1	2
638.419	1	-4
639.606	1	-4
640.793	1	-5
641.980	1	-7
643.167	1	-1
644.354	1	-2
645.541	1	2
646.728	1	0
647.914	1	4
649.101	1	-1
650.288	1	-2
651.474	1	12
652.661	1	4
653.847	1	4
655.034	1	0
656.220	1	-1
657.406	1	-1
658.593	1	2
659.779	1	5
660.965	1	10
662.152	1	1
663.338	1	1
664.524	1	1
665.710	1	-2
666.896	1	2
668.082	1	9
669.268	1	-6
670.454	1	-6
671.640	1	3
672.826	1	-6
674.011	1	8
675.197	1	0
676.383	1	-3
677.569	1	-6
678.754	1	-4
679.940	1	16
681.125	1	4
682.311	1	1
683.496	1	2
684.682	1	-1
685.867	1	8
687.053	1	-10
688.238	1	0
688.746	1	-7

File: GaN_sample D_spot 18_UVVIS_170 K_200um_550 ms 2x2mm1_282.txt
340.368	1	4
341.565	1	4
342.763	1	7
343.960	1	-2
345.157	1	-5
346.354	1	-1
347.552	1	4
348.749	1	3
349.946	1	5
351.143	1	7
352.340	1	-3
353.537	1	0
354.734	1	10
355.931	1	2
357.127	1	-1
358.324	1	14
359.521	1	10
360.718	1	2
361.914	1	-3
363.111	1	15
364.308	1	5
365.504	1	6
366.701	1	17
367.897	1	13
369.093	1	-1
370.290	1	3
371.486	1	4
372.682	1	13
373.879	1	4
375.075	1	10
376.271	1	13
377.467	1	8
378.663	1	0
379.859	1	-6
381.055	1	1
382.251	1	5
383.447	1	13
384.643	1	-3
385.839	1	-6
387.035	1	6
388.230	1	6
389.426	1	3
390.622	1	3
391.817	1	-9
393.013	1	1
394.208	1	13
395.404	1	7
396.599	1	-7
397.795	1	-1
398.990	1	-5
400.186	1	-7
401.381	1	13
402.576	1	-3
403.771	1	0
404.967	1	0
406.162	1	7
407.357	1	-4
408.552	1	1
409.747	1	10
410.942	1	1
412.137	1	-5
413.332	1	-6
414.526	1	3
415.721	1	-5
416.916	1	-9
418.111	1	3
419.305	1	1
420.500	1	6
421.695	1	-3
422.889	1	2
424.084	1	7
425.278	1	-8
426.472	1	4
427.667	1	9
428.861	1	3
430.055	1	-3
431.250	1	13
432.444	1	8
433.638	1	5
434.832	1	7
436.026	1	-4
437.220	1	6
438.414	1	-13
439.608	1	-6
440.802	1	12
441.996	1	-2
443.190	1	4
444.384	1	-2
445.578	1	7
446.771	1	-10
447.965	1	-1
449.159	1	-1
450.352	1	-5
451.546	1	-9
452.739	1	3
453.933	1	-2
455.126	1	6
456.320	1	-3
457.513	1	2
458.706	1	5
459.899	1	-3
461.093	1	15
462.286	1	1
463.479	1	-1
464.672	1	7
465.865	1	-1
467.058	1	7
468.251	1	-1
469.444	1	1
470.637	1	-5
471.830	1	-3
473.023	1	-3
474.215	1	6
475.408	1	0
476.601	1	4
477.793	1	-3
478.986	1	-5
480.179	1	-8
481.371	1	3
482.564	1	-1
483.756	1	-2
484.948	1	-2
486.141	1	10
487.333	1	-7
488.525	1	9
489.718	1	2
490.910	1	0
492.102	1	0
493.294	1	-7
494.486	1	8
495.678	1	-3
496.870	1	-6
498.062	1	-6
499.254	1	8
500.446	1	-5
501.638	1	1
502.829	1	0
504.021	1	5
505.213	1	-1
506.404	1	3
507.596	1	4
508.788	1	-9
509.979	1	10
511.171	1	7
512.362	1	-2
513.553	1	6
514.745	1	4
515.936	1	2
517.127	1	6
518.319	1	-3
519.510	1	6
520.701	1	15
521.892	1	-4
523.083	1	0
524.274	1	3
525.465	1	11
526.656	1	1
527.847	1	0
529.038	1	6
530.229	1	16
531.419	1	3
532.610	1	10
533.801	1	4
534.991	1	-2
536.182	1	6
537.373	1	0
538.563	1	6
539.754	1	8
540.944	1	-3
542.134	1	-4
543.325	1	5
544.515	1	-1
545.705	1	9
546.896	1	8
548.086	1	3
549.276	1	5
550.466	1	7
551.656	1	4
552.846	1	0
554.036	1	1
555.226	1	-4
556.416	1	-3
557.606	1	-5
558.796	1	-6
559.986	1	7
561.175	1	-16
562.365	1	-4
563.555	1	3
564.744	1	-3
565.934	1	0
567.123	1	-1
568.313	1	1
569.502	1	5
570.692	1	15
571.881	1	-1
573.070	1	-2
574.260	1	5
575.449	1	9
576.638	1	1
577.827	1	-2
579.016	1	-2
580.205	1	-7
581.394	1	2
582.583	1	1
583.772	1	-3
584.961	1	6
586.150	1	0
587.339	1	-1
588.528	1	-8
589.717	1	6
590.905	1	4
592.094	1	-1
593.283	1	-5
594.471	1	3
595.660	1	-5
596.848	1	3
598.037	1	4
599.225	1	10
600.413	1	-7
601.602	1	0
602.790	1	5
603.978	1	7
605.166	1	2
606.355	1	-4
607.543	1	10
608.731	1	-1
609.919	1	1
611.107	1	-2
612.295	1	6
613.483	1	-10
614.671	1	7
615.858	1	-3
617.046	1	-1
618.234	1	4
619.422	1	-2
620.609	1	6
621.797	1	-5
622.985	1	4
624.172	1	4
625.360	1	5
626.547	1	-4
627.735	1	-9
628.922	1	-4
630.109	1	-3
631.297	1	-7
632.484	1	3
633.671	1	12
634.858	1	-5
636.045	1	10
637.232	1	1
638.419	1	-9
639.606	1	1
640.793	1	-1
641.980	1	-1
643.167	1	-3
644.354	1	2
645.541	1	-2
646.728	1	5
647.914	1	0
649.101	1	-1
650.288	1	5
651.474	1	5
652.661	1	-4
653.847	1	0
655.034	1	-1
656.220	1	-7
657.406	1	-1
658.593	1	-2
659.779	1	8
660.965	1	15
662.152	1	5
663.338	1	6
664.524	1	1
665.710	1	6
666.896	1	-2
668.082	1	10
669.268	1	-10
670.454	1	-5
671.640	1	6
672.826	1	5
674.011	1	5
675.197	1	4
676.383	1	2
677.569	1	-6
678.754	1	1
679.940	1	-2
681.125	1	10
682.311	1	0
683.496	1	5
684.682	1	12
685.867	1	7
687.053	1	-9
688.238	1	-3
688.746	1	-3

File: GaN_sample D_spot 18_UVVIS_170 K_200um_550 ms 2x2mm1_286.txt
340.368	1	7
341.565	1	-1
342.763	1	-2
343.960	1	-3
345.157	1	-4
346.354	1	-6
347.552	1	4
348.749	1	7
349.946	1	10
351.143	1	9
352.340	1	6
353.537	1	2
354.734	1	-1
355.931	1	-6
357.127	1	-4
358.324	1	11
359.521	1	1
360.718	1	3
361.914	1	9
363.111	1	1
364.308	1	-1
365.504	1	10
366.701	1	10
367.897	1	10
369.093	1	9
370.290	1	4
371.486	1	1
372.682	1	13
373.879	1	5
375.075	1	2
376.271	1	4
377.467	1	14
378.663	1	9
379.859	1	8
381.055	1	-1
382.251	1	7
383.447	1	14
384.643	1	-1
385.839	1	-4
387.035	1	-3
388.230	1	5
389.426	1	3
390.622	1	-8
391.817	1	4
393.013	1	3
394.208	1	4
395.404	1	7
396.599	1	-2
397.795	1	0
398.990	1	-13
400.186	1	-5
401.381	1	7
402.576	1	-3
403.771	1	-5
404.967	1	8
406.162	1	9
407.357	1	-3
408.552	1	-10
409.747	1	-1
410.942	1	5
412.137	1	-10
413.332	1	-10
414.526	1	5
415.721	1	-8
416.916	1	-7
418.111	1	10
419.305	1	2
420.500	1	5
421.695	1	-7
422.889	1	6
424.084	1	21
425.278	1	-4
426.472	1	5
427.667	1	4
428.861	1	0
430.055	1	-4
431.250	1	13
432.444	1	5
433.638	1	6
434.832	1	5
436.026	1	-7
437.220	1	6
438.414	1	-2
439.608	1	5
440.802	1	4
441.996	1	-13
443.190	1	5
444.384	1	-11
445.578	1	2
446.771	1	-13
447.965	1	0
449.159	1	1
450.352	1	-2
451.546	1	-10
452.739	1	7
453.933	1	3
455.126	1	6
456.320	1	-3
457.513	1	10
458.706	1	2
459.899	1	2
461.093	1	9
462.286	1	-2
463.479	1	6
464.672	1	1
465.865	1	-1
467.058	1	-1
468.251	1	0
469.444	1	-1
470.637	1	10
471.830	1	-2
473.023	1	10
474.215	1	1
475.408	1	-8
476.601	1	5
477.793	1	10
478.986	1	8
480.179	1	-6
481.371	1	1
482.564	1	0
483.756	1	-8
484.948	1	6
486.141	1	13
487.333	1	1
488.525	1	6
489.718	1	13
490.910	1	1
492.102	1	1
493.294	1	0
494.486	1	8
495.678	1	9
496.870	1	2
498.062	1	0
499.254	1	0
500.446	1	-1
501.638	1	-5
502.829	1	-1
504.021	1	5
505.213	1	-9
506.404	1	0
507.596	1	-8
508.788	1	-4
509.979	1	10
511.171	1	1
512.362	1	1
513.553	1	6
514.745	1	-3
515.936	1	-8
517.127	1	9
518.319	1	4
519.510	1	8
520.701	1	3
521.892	1	-2
523.083	1	2
524.274	1	1
525.465	1	13
526.656	1	11
527.847	1	-3
529.038	1	3
530.229	1	5
531.419	1	7
532.610	1	4
533.801	1	-3
534.991	1	-2
536.182	1	-2
537.373	1	1
538.563	1	4
539.754	1	-2
540.944	1	-5
542.134	1	1
543.325	1	-1
544.515	1	-5
545.705	1	13
546.896	1	5
548.086	1	-3
549.276	1	1
550.466	1	-1
551.656	1	-1
552.846	1	7
554.036	1	-4
555.226	1	-6
556.416	1	7
557.606	1	12
558.796	1	5
559.986	1	-1
561.175	1	-1
562.365	1	10
563.555	1	0
564.744	1	6
565.934	1	6
567.123	1	1
568.313	1	7
569.502	1	-3
570.692	1	7
571.881	1	-7
573.070	1	-2
574.260	1	7
575.449	1	0
576.638	1	11
577.827	1	-10
579.016	1	5
580.205	1	-6
581.394	1	3
582.583	1	2
583.772	1	-6
584.961	1	-2
586.150	1	-2
587.339	1	-5
588.528	1	-2
589.717	1	3
590.905	1	10
592.094	1	3
593.283	1	8
594.471	1	-3
595.660	1	0
596.848	1	-1
598.037	1	1
599.225	1	8
600.413	1	-1
601.602	1	7
602.790	1	16
603.978	1	7
605.166	1	10
606.355	1	6
607.543	1	4
608.731	1	2
609.919	1	-1
611.107	1	-7
612.295	1	5
613.483	1	-6
614.671	1	4
615.858	1	5
617.046	1	0
618.234	1	-3
619.422	1	-9
620.609	1	-7
621.797	1	2
622.985	1	-1
624.172	1	8
625.360	1	0
626.547	1	-6
627.735	1	-8
628.922	1	-15
630.109	1	-5
631.297	1	-6
632.484	1	-11
633.671	1	3
634.858	1	-6
636.045	1	3
637.232	1	0
638.419	1	5
639.606	1	-4
640.793	1	-8
641.980	1	-3
643.167	1	-4
644.354	1	8
645.541	1	2
646.728	1	5
647.914	1	-9
649.101	1	9
650.288	1	4
651.474	1	17
652.661	1	-1
653.847	1	6
655.034	1	3
656.220	1	-3
657.406	1	3
658.593	1	0
659.779	1	0
660.965	1	10
662.152	1	9
663.338	1	-1
664.524	1	6
665.710	1	-2
666.896	1	4
668.082	1	6
669.268	1	-4
670.454	1	-4
671.640	1	12
672.826	1	-5
674.011	1	-4
675.197	1	1
676.383	1	1
677.569	1	-15
678.754	1	1
679.940	1	11
681.125	1	8
682.311	1	-7
683.496	1	1
684.682	1	0
685.867	1	-4
687.053	1	-8
688.238	1	-5
688.746	1	-3

File: GaN_sample D_spot 18_UVVIS_170 K_200um_550 ms 2x2mm1_288.txt
340.368	1	-4
341.565	1	4
342.763	1	3
343.960	1	-4
345.157	1	-4
346.354	1	1
347.552	1	9
348.749	1	10
349.946	1	11
351.143	1	-2
352.340	1	-1
353.537	1	5
354.734	1	-1
355.931	1	3
357.127	1	2
358.324	1	6
359.521	1	5
360.718	1	10
361.914	1	1
363.111	1	18
364.308	1	15
365.504	1	13
366.701	1	15
367.897	1	5
369.093	1	-4
370.290	1	11
371.486	1	2
372.682	1	9
373.879	1	5
375.075	1	-2
376.271	1	11
377.467	1	7
378.663	1	8
379.859	1	4
381.055	1	-4
382.251	1	-1
383.447	1	13
384.643	1	-7
385.839	1	-7
387.035	1	-7
388.230	1	1
389.426	1	4
390.622	1	2
391.817	1	0
393.013	1	-4
394.208	1	5
395.404	1	13
396.599	1	-5
397.795	1	6
398.990	1	0
400.186	1	-9
401.381	1	9
402.576	1	0
403.771	1	0
404.967	1	1
406.162	1	12
407.357	1	-4
408.552	1	-2
409.747	1	1
410.942	1	4
412.137	1	-5
413.332	1	-7
414.526	1	4
415.721	1	-4
416.916	1	1
418.111	1	7
419.305	1	-6
420.500	1	5
421.695	1	-6
422.889	1	-5
424.084	1	8
425.278	1	-1
426.472	1	-3
427.667	1	5
428.861	1	8
430.055	1	2
431.250	1	11
432.444	1	5
433.638	1	2
434.832	1	2
436.026	1	-5
437.220	1	8
438.414	1	-1
439.608	1	4
440.802	1	13
441.996	1	-2
443.190	1	0
444.384	1	2
445.578	1	1
446.771	1	-3
447.965	1	0
449.159	1	1
450.352	1	-3
451.546	1	-4
452.739	1	6
453.933	1	-2
455.126	1	4
456.320	1	-3
457.513	1	12
458.706	1	1
459.899	1	3
461.093	1	-2
462.286	1	-5
463.479	1	-1
464.672	1	7
465.865	1	2
467.058	1	2
468.251	1	4
469.444	1	-7
470.637	1	9
471.830	1	-2
473.023	1	-1
474.215	1	4
475.408	1	-4
476.601	1	6
477.793	1	5
478.986	1	-2
480.179	1	2
481.371	1	7
482.564	1	0
483.756	1	-2
484.948	1	0
486.141	1	10
487.333	1	2
488.525	1	5
489.718	1	8
490.910	1	0
492.102	1	5
493.294	1	-4
494.486	1	8
495.678	1	1
496.870	1	5
498.062	1	-2
499.254	1	7
500.446	1	-4
501.638	1	-7
502.829	1	-2
504.021	1	-4
505.213	1	0
506.404	1	3
507.596	1	7
508.788	1	-5
509.979	1	1
511.171	1	2
512.362	1	0
513.553	1	4
514.745	1	-5
515.936	1	3
517.127	1	12
518.319	1	8
519.510	1	9
520.701	1	0
521.892	1	4
523.083	1	-2
524.274	1	1
525.465	1	-8
526.656	1	7
527.847	1	4
529.038	1	-7
530.229	1	13
531.419	1	16
532.610	1	1
533.801	1	1
534.991	1	4
536.182	1	8
537.373	1	-5
538.563	1	3
539.754	1	7
540.944	1	-9
542.134	1	-5
543.325	1	1
544.515	1	-3
545.705	1	8
546.896	1	5
548.086	1	-5
549.276	1	4
550.466	1	1
551.656	1	9
552.846	1	0
554.036	1	-5
555.226	1	-4
556.416	1	0
557.606	1	14
558.796	1	3
559.986	1	8
561.175	1	-11
562.365	1	3
563.555	1	4
564.744	1	-1
565.934	1	4
567.123	1	1
568.313	1	4
569.502	1	2
570.692	1	11
571.881	1	-6
573.070	1	2
574.260	1	6
575.449	1	4
576.638	1	8
577.827	1	-4
579.016	1	3
580.205	1	1
581.394	1	-1
582.583	1	4
583.772	1	-4
584.961	1	-6
586.150	1	-13
587.339	1	-3
588.528	1	-6
589.717	1	5
590.905	1	9
592.094	1	2
593.283	1	1
594.471	1	10
595.660	1	-3
596.848	1	4
598.037	1	7
599.225	1	-6
600.413	1	0
601.602	1	-3
602.790	1	9
603.978	1	5
605.166	1	3
606.355	1	8
607.543	1	8
608.731	1	12
609.919	1	-11
611.107	1	5
612.295	1	4
613.483	1	-4
614.671	1	8
615.858	1	-1
617.046	1	0
618.234	1	-1
619.422	1	-2
620.609	1	-1
621.797	1	1
622.985	1	-1
624.172	1	-3
625.360	1	-2
626.547	1	-7
627.735	1	-14
628.922	1	-5
630.109	1	-4
631.297	1	-6
632.484	1	-1
633.671	1	4
634.858	1	6
636.045	1	2
637.232	1	2
638.419	1	-13
639.606	1	-4
640.793	1	-5
641.980	1	3
643.167	1	-2
644.354	1	4
645.541	1	-7
646.728	1	3
647.914	1	-1
649.101	1	-3
650.288	1	3
651.474	1	9
652.661	1	-8
653.847	1	4
655.034	1	-6
656.220	1	3
657.406	1	-7
658.593	1	-3
659.779	1	5
660.965	1	4
662.152	1	4
663.338	1	0
664.524	1	5
665.710	1	6
666.896	1	4
668.082	1	7
669.268	1	-4
670.454	1	-3
671.640	1	3
672.826	1	-8
674.011	1	0
675.197	1	7
676.383	1	7
677.569	1	-2
678.754	1	8
679.940	1	15
681.125	1	7
682.311	1	2
683.496	1	1
684.682	1	5
685.867	1	3
687.053	1	-5
688.238	1	-6
688.746	1	-8

File: GaN_sample D_spot 18_UVVIS_170 K_200um_550 ms 2x2mm1_292.txt
340.368	1	-11
341.565	1	1
342.763	1	-2
343.960	1	2
345.157	1	5
346.354	1	0
347.552	1	10
348.749	1	5
349.946	1	6
351.143	1	-2
352.340	1	-3
353.537	1	4
354.734	1	6
355.931	1	1
357.127	1	-5
358.324	1	5
359.521	1	6
360.718	1	0
361.914	1	-1
363.111	1	13
364.308	1	7
365.504	1	7
366.701	1	12
367.897	1	11
369.093	1	2
370.290	1	13
371.486	1	1
372.682	1	12
373.879	1	12
375.075	1	5
376.271	1	18
377.467	1	4
378.663	1	2
379.859	1	6
381.055	1	7
382.251	1	-5
383.447	1	10
384.643	1	2
385.839	1	1
387.035	1	6
388.230	1	1
389.426	1	5
390.622	1	-5
391.817	1	9
393.013	1	0
394.208	1	6
395.404	1	2
396.599	1	-10
397.795	1	-1
398.990	1	-6
400.186	1	0
401.381	1	11
402.576	1	-5
403.771	1	5
404.967	1	12
406.162	1	4
407.357	1	-6
408.552	1	5
409.747	1	2
410.942	1	1
412.137	1	-6
413.332	1	-1
414.526	1	11
415.721	1	-1
416.916	1	2
418.111	1	8
419.305	1	-2
420.500	1	-4
421.695	1	-2
422.889	1	-6
424.084	1	11
425.278	1	-5
426.472	1	0
427.667	1	-3
428.861	1	3
430.055	1	2
431.250	1	12
432.444	1	0
433.638	1	16
434.832	1	2
436.026	1	-2
437.220	1	6
438.414	1	-3
439.608	1	-7
440.802	1	14
441.996	1	-2
443.190	1	6
444.384	1	9
445.578	1	0
446.771	1	-15
447.965	1	-2
449.159	1	7
450.352	1	-6
451.546	1	-6
452.739	1	8
453.933	1	-7
455.126	1	8
456.320	1	-2
457.513	1	2
458.706	1	9
459.899	1	0
461.093	1	7
462.286	1	-5
463.479	1	-8
464.672	1	-11
465.865	1	-1
467.058	1	7
468.251	1	-6
469.444	1	-11
470.637	1	-2
471.830	1	-4
473.023	1	4
474.215	1	0
475.408	1	-5
476.601	1	0
477.793	1	3
478.986	1	7
480.179	1	-1
481.371	1	4
482.564	1	4
483.756	1	-8
484.948	1	1
486.141	1	2
487.333	1	-9
488.525	1	9
489.718	1	8
490.910	1	-5
492.102	1	8
493.294	1	1
494.486	1	8
495.678	1	3
496.870	1	5
498.062	1	-2
499.254	1	9
500.446	1	-3
501.638	1	-6
502.829	1	4
504.021	1	1
505.213	1	-5
506.404	1	3
507.596	1	3
508.788	1	3
509.979	1	-2
511.171	1	-3
512.362	1	-8
513.553	1	6
514.745	1	4
515.936	1	1
517.127	1	7
518.319	1	7
519.510	1	6
520.701	1	3
521.892	1	4
523.083	1	-3
524.274	1	0
525.465	1	-1
526.656	1	6
527.847	1	2
529.038	1	4
530.229	1	9
531.419	1	10
532.610	1	8
533.801	1	8
534.991	1	-2
536.182	1	6
537.373	1	-1
538.563	1	6
539.754	1	-6
540.944	1	-2
542.134	1	1
543.325	1	0
544.515	1	2
545.705	1	5
546.896	1	4
548.086	1	3
549.276	1	0
550.466	1	1
551.656	1	0
552.846	1	8
554.036	1	-4
555.226	1	1
556.416	1	2
557.606	1	7
558.796	1	6
559.986	1	5
561.175	1	-10
562.365	1	-4
563.555	1	7
564.744	1	1
565.934	1	5
567.123	1	2
568.313	1	0
569.502	1	-3
570.692	1	4
571.881	1	-7
573.070	1	-5
574.260	1	12
575.449	1	2
576.638	1	1
577.827	1	-3
579.016	1	-6
580.205	1	-7
581.394	1	8
582.583	1	-2
583.772	1	-4
584.961	1	2
586.150	1	-7
587.339	1	-4
588.528	1	1
589.717	1	4
590.905	1	10
592.094	1	9
593.283	1	2
594.471	1	10
595.660	1	-3
596.848	1	0
598.037	1	9
599.225	1	3
600.413	1	-8
601.602	1	1
602.790	1	3
603.978	1	5
605.166	1	7
606.355	1	-2
607.543	1	6
608.731	1	6
609.919	1	0
611.107	1	-3
612.295	1	0
613.483	1	5
614.671	1	12
615.858	1	-1
617.046	1	-1
618.234	1	-3
619.422	1	-5
620.609	1	7
621.797	1	4
622.985	1	-2
624.172	1	-1
625.360	1	-1
626.547	1	-5
627.735	1	-10
628.922	1	-6
630.109	1	-6
631.297	1	1
632.484	1	-5
633.671	1	17
634.858	1	4
636.045	1	11
637.232	1	3
638.419	1	-5
639.606	1	-4
640.793	1	-6
641.980	1	-11
643.167	1	7
644.354	1	-1
645.541	1	1
646.728	1	1
647.914	1	-7
649.101	1	3
650.288	1	-6
651.474	1	5
652.661	1	2
653.847	1	5
655.034	1	-9
656.220	1	6
657.406	1	-1
658.593	1	2
659.779	1	3
660.965	1	12
662.152	1	0
663.338	1	10
664.524	1	-3
665.710	1	3
666.896	1	1
668.082	1	7
669.268	1	-8
670.454	1	-6
671.640	1	9
672.826	1	-3
674.011	1	3
675.197	1	1
676.383	1	9
677.569	1	-9
678.754	1	0
679.940	1	3
681.125	1	1
682.311	1	-2
683.496	1	3
684.682	1	-1
685.867	1	5
687.053	1	-3
688.238	1	-5
688.746	1	-8