Folder: cryo-il_analysis/Data/GaN_150K_450ms (part 9)

File: GaN_sample D_spot15_UVVIS_150 K_200um_450 ms 2x2mm1_85.txt
340.368	1	9
341.565	1	11
342.763	1	3
343.960	1	6
345.157	1	16
346.354	1	5
347.552	1	22
348.749	1	17
349.946	1	9
351.143	1	13
352.340	1	8
353.537	1	7
354.734	1	9
355.931	1	14
357.127	1	23
358.324	1	24
359.521	1	25
360.718	1	27
361.914	1	47
363.111	1	48
364.308	1	80
365.504	1	92
366.701	1	126
367.897	1	131
369.093	1	148
370.290	1	122
371.486	1	113
372.682	1	91
373.879	1	71
375.075	1	48
376.271	1	55
377.467	1	55
378.663	1	38
379.859	1	31
381.055	1	30
382.251	1	17
383.447	1	34
384.643	1	19
385.839	1	26
387.035	1	25
388.230	1	26
389.426	1	7
390.622	1	7
391.817	1	8
393.013	1	26
394.208	1	13
395.404	1	10
396.599	1	18
397.795	1	13
398.990	1	22
400.186	1	10
401.381	1	12
402.576	1	23
403.771	1	1
404.967	1	13
406.162	1	8
407.357	1	27
408.552	1	3
409.747	1	14
410.942	1	17
412.137	1	5
413.332	1	11
414.526	1	3
415.721	1	15
416.916	1	21
418.111	1	10
419.305	1	15
420.500	1	14
421.695	1	19
422.889	1	13
424.084	1	11
425.278	1	12
426.472	1	25
427.667	1	17
428.861	1	14
430.055	1	28
431.250	1	20
432.444	1	20
433.638	1	9
434.832	1	10
436.026	1	17
437.220	1	21
438.414	1	13
439.608	1	9
440.802	1	13
441.996	1	9
443.190	1	16
444.384	1	12
445.578	1	9
446.771	1	11
447.965	1	9
449.159	1	11
450.352	1	8
451.546	1	7
452.739	1	11
453.933	1	-5
455.126	1	-2
456.320	1	18
457.513	1	17
458.706	1	13
459.899	1	2
461.093	1	21
462.286	1	12
463.479	1	5
464.672	1	13
465.865	1	9
467.058	1	9
468.251	1	3
469.444	1	11
470.637	1	8
471.830	1	5
473.023	1	17
474.215	1	9
475.408	1	15
476.601	1	7
477.793	1	11
478.986	1	15
480.179	1	4
481.371	1	-4
482.564	1	21
483.756	1	14
484.948	1	12
486.141	1	10
487.333	1	8
488.525	1	7
489.718	1	2
490.910	1	20
492.102	1	11
493.294	1	2
494.486	1	17
495.678	1	8
496.870	1	15
498.062	1	15
499.254	1	10
500.446	1	13
501.638	1	19
502.829	1	18
504.021	1	18
505.213	1	15
506.404	1	26
507.596	1	28
508.788	1	20
509.979	1	23
511.171	1	33
512.362	1	37
513.553	1	43
514.745	1	26
515.936	1	29
517.127	1	40
518.319	1	22
519.510	1	28
520.701	1	44
521.892	1	28
523.083	1	31
524.274	1	39
525.465	1	36
526.656	1	44
527.847	1	33
529.038	1	38
530.229	1	43
531.419	1	45
532.610	1	42
533.801	1	41
534.991	1	41
536.182	1	37
537.373	1	35
538.563	1	30
539.754	1	29
540.944	1	31
542.134	1	39
543.325	1	43
544.515	1	37
545.705	1	29
546.896	1	27
548.086	1	33
549.276	1	36
550.466	1	25
551.656	1	31
552.846	1	30
554.036	1	40
555.226	1	38
556.416	1	28
557.606	1	13
558.796	1	40
559.986	1	25
561.175	1	22
562.365	1	14
563.555	1	26
564.744	1	32
565.934	1	24
567.123	1	20
568.313	1	17
569.502	1	22
570.692	1	20
571.881	1	18
573.070	1	23
574.260	1	24
575.449	1	21
576.638	1	19
577.827	1	17
579.016	1	15
580.205	1	14
581.394	1	18
582.583	1	14
583.772	1	26
584.961	1	4
586.150	1	19
587.339	1	10
588.528	1	7
589.717	1	17
590.905	1	8
592.094	1	18
593.283	1	12
594.471	1	1
595.660	1	11
596.848	1	17
598.037	1	6
599.225	1	11
600.413	1	14
601.602	1	14
602.790	1	5
603.978	1	14
605.166	1	13
606.355	1	2
607.543	1	6
608.731	1	-1
609.919	1	6
611.107	1	19
612.295	1	16
613.483	1	4
614.671	1	10
615.858	1	3
617.046	1	7
618.234	1	-2
619.422	1	17
620.609	1	10
621.797	1	13
622.985	1	2
624.172	1	18
625.360	1	7
626.547	1	-1
627.735	1	9
628.922	1	13
630.109	1	-3
631.297	1	18
632.484	1	17
633.671	1	22
634.858	1	12
636.045	1	-3
637.232	1	1
638.419	1	6
639.606	1	13
640.793	1	14
641.980	1	4
643.167	1	5
644.354	1	22
645.541	1	2
646.728	1	17
647.914	1	3
649.101	1	12
650.288	1	7
651.474	1	8
652.661	1	-1
653.847	1	-1
655.034	1	3
656.220	1	7
657.406	1	2
658.593	1	17
659.779	1	11
660.965	1	2
662.152	1	0
663.338	1	-4
664.524	1	5
665.710	1	7
666.896	1	8
668.082	1	5
669.268	1	-2
670.454	1	8
671.640	1	0
672.826	1	-3
674.011	1	8
675.197	1	11
676.383	1	4
677.569	1	25
678.754	1	12
679.940	1	1
681.125	1	9
682.311	1	12
683.496	1	-3
684.682	1	15
685.867	1	2
687.053	1	26
688.238	1	16
688.746	1	9

File: GaN_sample D_spot15_UVVIS_150 K_200um_450 ms 2x2mm1_86.txt
340.368	1	4
341.565	1	10
342.763	1	5
343.960	1	8
345.157	1	14
346.354	1	5
347.552	1	20
348.749	1	9
349.946	1	4
351.143	1	10
352.340	1	10
353.537	1	9
354.734	1	18
355.931	1	18
357.127	1	22
358.324	1	21
359.521	1	31
360.718	1	26
361.914	1	45
363.111	1	58
364.308	1	73
365.504	1	87
366.701	1	115
367.897	1	128
369.093	1	140
370.290	1	121
371.486	1	96
372.682	1	75
373.879	1	64
375.075	1	66
376.271	1	58
377.467	1	54
378.663	1	39
379.859	1	33
381.055	1	26
382.251	1	18
383.447	1	16
384.643	1	16
385.839	1	24
387.035	1	15
388.230	1	16
389.426	1	9
390.622	1	20
391.817	1	7
393.013	1	19
394.208	1	8
395.404	1	21
396.599	1	20
397.795	1	9
398.990	1	22
400.186	1	21
401.381	1	14
402.576	1	13
403.771	1	9
404.967	1	15
406.162	1	8
407.357	1	17
408.552	1	6
409.747	1	9
410.942	1	17
412.137	1	8
413.332	1	14
414.526	1	12
415.721	1	8
416.916	1	8
418.111	1	18
419.305	1	25
420.500	1	17
421.695	1	19
422.889	1	19
424.084	1	14
425.278	1	10
426.472	1	28
427.667	1	5
428.861	1	24
430.055	1	21
431.250	1	19
432.444	1	10
433.638	1	18
434.832	1	16
436.026	1	4
437.220	1	11
438.414	1	14
439.608	1	12
440.802	1	6
441.996	1	14
443.190	1	16
444.384	1	17
445.578	1	11
446.771	1	11
447.965	1	5
449.159	1	3
450.352	1	8
451.546	1	5
452.739	1	11
453.933	1	1
455.126	1	10
456.320	1	7
457.513	1	5
458.706	1	16
459.899	1	12
461.093	1	12
462.286	1	6
463.479	1	7
464.672	1	5
465.865	1	6
467.058	1	9
468.251	1	4
469.444	1	17
470.637	1	8
471.830	1	4
473.023	1	6
474.215	1	2
475.408	1	2
476.601	1	12
477.793	1	7
478.986	1	16
480.179	1	21
481.371	1	1
482.564	1	15
483.756	1	17
484.948	1	12
486.141	1	18
487.333	1	6
488.525	1	6
489.718	1	5
490.910	1	17
492.102	1	16
493.294	1	7
494.486	1	10
495.678	1	17
496.870	1	11
498.062	1	19
499.254	1	13
500.446	1	17
501.638	1	25
502.829	1	16
504.021	1	20
505.213	1	27
506.404	1	18
507.596	1	35
508.788	1	29
509.979	1	23
511.171	1	36
512.362	1	42
513.553	1	29
514.745	1	33
515.936	1	34
517.127	1	40
518.319	1	30
519.510	1	28
520.701	1	38
521.892	1	39
523.083	1	34
524.274	1	40
525.465	1	47
526.656	1	29
527.847	1	36
529.038	1	42
530.229	1	46
531.419	1	41
532.610	1	49
533.801	1	35
534.991	1	36
536.182	1	29
537.373	1	29
538.563	1	24
539.754	1	30
540.944	1	38
542.134	1	33
543.325	1	35
544.515	1	30
545.705	1	38
546.896	1	26
548.086	1	38
549.276	1	32
550.466	1	29
551.656	1	26
552.846	1	35
554.036	1	38
555.226	1	25
556.416	1	30
557.606	1	15
558.796	1	39
559.986	1	37
561.175	1	9
562.365	1	26
563.555	1	18
564.744	1	32
565.934	1	30
567.123	1	16
568.313	1	12
569.502	1	16
570.692	1	19
571.881	1	22
573.070	1	15
574.260	1	13
575.449	1	12
576.638	1	22
577.827	1	14
579.016	1	21
580.205	1	9
581.394	1	14
582.583	1	15
583.772	1	18
584.961	1	11
586.150	1	15
587.339	1	13
588.528	1	9
589.717	1	16
590.905	1	20
592.094	1	14
593.283	1	18
594.471	1	4
595.660	1	18
596.848	1	14
598.037	1	11
599.225	1	10
600.413	1	6
601.602	1	11
602.790	1	16
603.978	1	11
605.166	1	9
606.355	1	-9
607.543	1	15
608.731	1	-3
609.919	1	-4
611.107	1	14
612.295	1	12
613.483	1	11
614.671	1	1
615.858	1	-2
617.046	1	11
618.234	1	6
619.422	1	21
620.609	1	10
621.797	1	7
622.985	1	17
624.172	1	3
625.360	1	-3
626.547	1	6
627.735	1	2
628.922	1	12
630.109	1	0
631.297	1	11
632.484	1	17
633.671	1	14
634.858	1	4
636.045	1	3
637.232	1	8
638.419	1	-1
639.606	1	8
640.793	1	11
641.980	1	15
643.167	1	12
644.354	1	14
645.541	1	7
646.728	1	12
647.914	1	11
649.101	1	1
650.288	1	6
651.474	1	15
652.661	1	12
653.847	1	17
655.034	1	8
656.220	1	14
657.406	1	1
658.593	1	11
659.779	1	10
660.965	1	11
662.152	1	1
663.338	1	3
664.524	1	17
665.710	1	12
666.896	1	9
668.082	1	10
669.268	1	1
670.454	1	16
671.640	1	13
672.826	1	5
674.011	1	6
675.197	1	8
676.383	1	5
677.569	1	17
678.754	1	11
679.940	1	5
681.125	1	8
682.311	1	9
683.496	1	3
684.682	1	20
685.867	1	9
687.053	1	16
688.238	1	14
688.746	1	7

File: GaN_sample D_spot15_UVVIS_150 K_200um_450 ms 2x2mm1_87.txt
340.368	1	6
341.565	1	7
342.763	1	3
343.960	1	9
345.157	1	13
346.354	1	10
347.552	1	20
348.749	1	18
349.946	1	7
351.143	1	13
352.340	1	12
353.537	1	-1
354.734	1	11
355.931	1	10
357.127	1	23
358.324	1	19
359.521	1	28
360.718	1	27
361.914	1	47
363.111	1	53
364.308	1	71
365.504	1	85
366.701	1	121
367.897	1	136
369.093	1	135
370.290	1	110
371.486	1	103
372.682	1	77
373.879	1	66
375.075	1	48
376.271	1	47
377.467	1	49
378.663	1	43
379.859	1	24
381.055	1	30
382.251	1	20
383.447	1	20
384.643	1	18
385.839	1	22
387.035	1	23
388.230	1	16
389.426	1	10
390.622	1	11
391.817	1	13
393.013	1	17
394.208	1	14
395.404	1	15
396.599	1	6
397.795	1	11
398.990	1	13
400.186	1	6
401.381	1	12
402.576	1	19
403.771	1	8
404.967	1	13
406.162	1	12
407.357	1	19
408.552	1	7
409.747	1	15
410.942	1	20
412.137	1	11
413.332	1	25
414.526	1	0
415.721	1	22
416.916	1	10
418.111	1	12
419.305	1	26
420.500	1	17
421.695	1	23
422.889	1	19
424.084	1	22
425.278	1	11
426.472	1	26
427.667	1	19
428.861	1	15
430.055	1	21
431.250	1	17
432.444	1	22
433.638	1	23
434.832	1	14
436.026	1	9
437.220	1	18
438.414	1	11
439.608	1	4
440.802	1	18
441.996	1	3
443.190	1	24
444.384	1	14
445.578	1	15
446.771	1	7
447.965	1	14
449.159	1	7
450.352	1	0
451.546	1	11
452.739	1	11
453.933	1	2
455.126	1	25
456.320	1	20
457.513	1	2
458.706	1	20
459.899	1	11
461.093	1	11
462.286	1	5
463.479	1	9
464.672	1	13
465.865	1	12
467.058	1	9
468.251	1	5
469.444	1	11
470.637	1	11
471.830	1	10
473.023	1	3
474.215	1	8
475.408	1	12
476.601	1	6
477.793	1	7
478.986	1	9
480.179	1	14
481.371	1	3
482.564	1	21
483.756	1	10
484.948	1	14
486.141	1	10
487.333	1	9
488.525	1	5
489.718	1	7
490.910	1	23
492.102	1	21
493.294	1	11
494.486	1	6
495.678	1	15
496.870	1	13
498.062	1	10
499.254	1	18
500.446	1	21
501.638	1	17
502.829	1	15
504.021	1	22
505.213	1	18
506.404	1	26
507.596	1	31
508.788	1	31
509.979	1	27
511.171	1	28
512.362	1	43
513.553	1	33
514.745	1	21
515.936	1	27
517.127	1	41
518.319	1	39
519.510	1	32
520.701	1	35
521.892	1	31
523.083	1	39
524.274	1	35
525.465	1	39
526.656	1	31
527.847	1	27
529.038	1	40
530.229	1	42
531.419	1	39
532.610	1	37
533.801	1	44
534.991	1	38
536.182	1	32
537.373	1	34
538.563	1	27
539.754	1	21
540.944	1	20
542.134	1	28
543.325	1	37
544.515	1	36
545.705	1	30
546.896	1	43
548.086	1	23
549.276	1	41
550.466	1	24
551.656	1	26
552.846	1	29
554.036	1	31
555.226	1	34
556.416	1	19
557.606	1	19
558.796	1	24
559.986	1	33
561.175	1	16
562.365	1	26
563.555	1	26
564.744	1	23
565.934	1	34
567.123	1	7
568.313	1	21
569.502	1	25
570.692	1	18
571.881	1	13
573.070	1	20
574.260	1	21
575.449	1	10
576.638	1	16
577.827	1	20
579.016	1	9
580.205	1	19
581.394	1	11
582.583	1	10
583.772	1	13
584.961	1	1
586.150	1	13
587.339	1	9
588.528	1	7
589.717	1	11
590.905	1	9
592.094	1	10
593.283	1	12
594.471	1	-3
595.660	1	13
596.848	1	14
598.037	1	12
599.225	1	8
600.413	1	12
601.602	1	13
602.790	1	19
603.978	1	10
605.166	1	10
606.355	1	4
607.543	1	8
608.731	1	-5
609.919	1	-4
611.107	1	20
612.295	1	19
613.483	1	9
614.671	1	6
615.858	1	3
617.046	1	7
618.234	1	3
619.422	1	19
620.609	1	10
621.797	1	12
622.985	1	7
624.172	1	7
625.360	1	7
626.547	1	-4
627.735	1	4
628.922	1	7
630.109	1	3
631.297	1	8
632.484	1	16
633.671	1	5
634.858	1	9
636.045	1	1
637.232	1	7
638.419	1	5
639.606	1	10
640.793	1	13
641.980	1	13
643.167	1	10
644.354	1	10
645.541	1	4
646.728	1	16
647.914	1	5
649.101	1	8
650.288	1	7
651.474	1	11
652.661	1	12
653.847	1	15
655.034	1	1
656.220	1	3
657.406	1	-3
658.593	1	11
659.779	1	16
660.965	1	14
662.152	1	9
663.338	1	3
664.524	1	6
665.710	1	13
666.896	1	6
668.082	1	6
669.268	1	0
670.454	1	11
671.640	1	14
672.826	1	4
674.011	1	11
675.197	1	9
676.383	1	5
677.569	1	12
678.754	1	5
679.940	1	3
681.125	1	11
682.311	1	10
683.496	1	6
684.682	1	11
685.867	1	1
687.053	1	12
688.238	1	14
688.746	1	1

File: GaN_sample D_spot15_UVVIS_150 K_200um_450 ms 2x2mm1_88.txt
340.368	1	7
341.565	1	8
342.763	1	-6
343.960	1	8
345.157	1	18
346.354	1	9
347.552	1	19
348.749	1	12
349.946	1	3
351.143	1	5
352.340	1	16
353.537	1	7
354.734	1	17
355.931	1	14
357.127	1	14
358.324	1	16
359.521	1	22
360.718	1	35
361.914	1	33
363.111	1	47
364.308	1	78
365.504	1	88
366.701	1	103
367.897	1	123
369.093	1	128
370.290	1	101
371.486	1	95
372.682	1	84
373.879	1	71
375.075	1	56
376.271	1	48
377.467	1	44
378.663	1	31
379.859	1	36
381.055	1	29
382.251	1	23
383.447	1	23
384.643	1	20
385.839	1	19
387.035	1	13
388.230	1	14
389.426	1	3
390.622	1	10
391.817	1	5
393.013	1	10
394.208	1	17
395.404	1	21
396.599	1	11
397.795	1	12
398.990	1	22
400.186	1	14
401.381	1	17
402.576	1	17
403.771	1	3
404.967	1	13
406.162	1	7
407.357	1	17
408.552	1	16
409.747	1	14
410.942	1	14
412.137	1	6
413.332	1	21
414.526	1	6
415.721	1	7
416.916	1	19
418.111	1	6
419.305	1	21
420.500	1	19
421.695	1	22
422.889	1	12
424.084	1	20
425.278	1	23
426.472	1	16
427.667	1	14
428.861	1	17
430.055	1	26
431.250	1	16
432.444	1	20
433.638	1	19
434.832	1	14
436.026	1	9
437.220	1	17
438.414	1	21
439.608	1	8
440.802	1	16
441.996	1	7
443.190	1	15
444.384	1	15
445.578	1	3
446.771	1	9
447.965	1	14
449.159	1	8
450.352	1	9
451.546	1	9
452.739	1	4
453.933	1	1
455.126	1	6
456.320	1	14
457.513	1	12
458.706	1	14
459.899	1	11
461.093	1	17
462.286	1	8
463.479	1	5
464.672	1	15
465.865	1	4
467.058	1	20
468.251	1	5
469.444	1	10
470.637	1	6
471.830	1	12
473.023	1	6
474.215	1	8
475.408	1	10
476.601	1	18
477.793	1	8
478.986	1	12
480.179	1	6
481.371	1	1
482.564	1	12
483.756	1	8
484.948	1	14
486.141	1	4
487.333	1	5
488.525	1	8
489.718	1	-1
490.910	1	19
492.102	1	7
493.294	1	3
494.486	1	11
495.678	1	12
496.870	1	20
498.062	1	9
499.254	1	22
500.446	1	13
501.638	1	22
502.829	1	9
504.021	1	27
505.213	1	12
506.404	1	34
507.596	1	33
508.788	1	25
509.979	1	18
511.171	1	35
512.362	1	29
513.553	1	35
514.745	1	34
515.936	1	34
517.127	1	38
518.319	1	32
519.510	1	28
520.701	1	40
521.892	1	29
523.083	1	34
524.274	1	38
525.465	1	45
526.656	1	44
527.847	1	27
529.038	1	45
530.229	1	42
531.419	1	35
532.610	1	48
533.801	1	26
534.991	1	32
536.182	1	32
537.373	1	27
538.563	1	31
539.754	1	26
540.944	1	37
542.134	1	38
543.325	1	39
544.515	1	33
545.705	1	36
546.896	1	31
548.086	1	31
549.276	1	33
550.466	1	30
551.656	1	24
552.846	1	38
554.036	1	28
555.226	1	27
556.416	1	35
557.606	1	19
558.796	1	33
559.986	1	28
561.175	1	21
562.365	1	24
563.555	1	22
564.744	1	25
565.934	1	25
567.123	1	19
568.313	1	24
569.502	1	26
570.692	1	20
571.881	1	20
573.070	1	19
574.260	1	10
575.449	1	14
576.638	1	25
577.827	1	11
579.016	1	14
580.205	1	20
581.394	1	18
582.583	1	13
583.772	1	12
584.961	1	4
586.150	1	22
587.339	1	1
588.528	1	4
589.717	1	9
590.905	1	13
592.094	1	13
593.283	1	16
594.471	1	-4
595.660	1	14
596.848	1	15
598.037	1	13
599.225	1	10
600.413	1	18
601.602	1	14
602.790	1	6
603.978	1	5
605.166	1	4
606.355	1	-6
607.543	1	18
608.731	1	-3
609.919	1	1
611.107	1	12
612.295	1	14
613.483	1	2
614.671	1	5
615.858	1	-6
617.046	1	3
618.234	1	6
619.422	1	17
620.609	1	10
621.797	1	9
622.985	1	-3
624.172	1	13
625.360	1	9
626.547	1	6
627.735	1	16
628.922	1	16
630.109	1	5
631.297	1	3
632.484	1	12
633.671	1	7
634.858	1	11
636.045	1	1
637.232	1	8
638.419	1	6
639.606	1	16
640.793	1	2
641.980	1	11
643.167	1	12
644.354	1	12
645.541	1	3
646.728	1	3
647.914	1	3
649.101	1	4
650.288	1	9
651.474	1	6
652.661	1	2
653.847	1	7
655.034	1	6
656.220	1	9
657.406	1	-2
658.593	1	12
659.779	1	12
660.965	1	4
662.152	1	6
663.338	1	-2
664.524	1	15
665.710	1	5
666.896	1	5
668.082	1	11
669.268	1	3
670.454	1	7
671.640	1	12
672.826	1	8
674.011	1	9
675.197	1	9
676.383	1	11
677.569	1	18
678.754	1	9
679.940	1	2
681.125	1	3
682.311	1	1
683.496	1	5
684.682	1	11
685.867	1	0
687.053	1	27
688.238	1	16
688.746	1	9

File: GaN_sample D_spot15_UVVIS_150 K_200um_450 ms 2x2mm1_89.txt
340.368	1	6
341.565	1	6
342.763	1	6
343.960	1	3
345.157	1	15
346.354	1	6
347.552	1	15
348.749	1	7
349.946	1	-1
351.143	1	11
352.340	1	6
353.537	1	5
354.734	1	7
355.931	1	12
357.127	1	15
358.324	1	19
359.521	1	24
360.718	1	28
361.914	1	41
363.111	1	39
364.308	1	63
365.504	1	86
366.701	1	108
367.897	1	113
369.093	1	132
370.290	1	108
371.486	1	90
372.682	1	58
373.879	1	59
375.075	1	45
376.271	1	45
377.467	1	59
378.663	1	36
379.859	1	24
381.055	1	28
382.251	1	12
383.447	1	20
384.643	1	18
385.839	1	20
387.035	1	19
388.230	1	9
389.426	1	8
390.622	1	20
391.817	1	9
393.013	1	20
394.208	1	15
395.404	1	15
396.599	1	15
397.795	1	19
398.990	1	14
400.186	1	17
401.381	1	6
402.576	1	19
403.771	1	1
404.967	1	11
406.162	1	10
407.357	1	16
408.552	1	5
409.747	1	11
410.942	1	33
412.137	1	12
413.332	1	19
414.526	1	6
415.721	1	15
416.916	1	8
418.111	1	23
419.305	1	19
420.500	1	13
421.695	1	20
422.889	1	16
424.084	1	25
425.278	1	15
426.472	1	14
427.667	1	12
428.861	1	16
430.055	1	28
431.250	1	21
432.444	1	19
433.638	1	19
434.832	1	10
436.026	1	5
437.220	1	17
438.414	1	10
439.608	1	12
440.802	1	15
441.996	1	9
443.190	1	20
444.384	1	7
445.578	1	8
446.771	1	16
447.965	1	15
449.159	1	9
450.352	1	9
451.546	1	15
452.739	1	10
453.933	1	6
455.126	1	7
456.320	1	21
457.513	1	15
458.706	1	16
459.899	1	7
461.093	1	10
462.286	1	-2
463.479	1	2
464.672	1	19
465.865	1	2
467.058	1	6
468.251	1	0
469.444	1	13
470.637	1	9
471.830	1	10
473.023	1	10
474.215	1	11
475.408	1	5
476.601	1	7
477.793	1	11
478.986	1	15
480.179	1	3
481.371	1	-2
482.564	1	5
483.756	1	6
484.948	1	13
486.141	1	7
487.333	1	8
488.525	1	8
489.718	1	11
490.910	1	18
492.102	1	11
493.294	1	-1
494.486	1	9
495.678	1	11
496.870	1	25
498.062	1	18
499.254	1	18
500.446	1	15
501.638	1	12
502.829	1	16
504.021	1	21
505.213	1	7
506.404	1	19
507.596	1	26
508.788	1	32
509.979	1	17
511.171	1	21
512.362	1	27
513.553	1	39
514.745	1	29
515.936	1	22
517.127	1	43
518.319	1	36
519.510	1	28
520.701	1	40
521.892	1	24
523.083	1	36
524.274	1	33
525.465	1	38
526.656	1	40
527.847	1	24
529.038	1	31
530.229	1	48
531.419	1	39
532.610	1	40
533.801	1	30
534.991	1	29
536.182	1	27
537.373	1	34
538.563	1	34
539.754	1	18
540.944	1	29
542.134	1	25
543.325	1	36
544.515	1	30
545.705	1	33
546.896	1	22
548.086	1	30
549.276	1	28
550.466	1	24
551.656	1	33
552.846	1	33
554.036	1	24
555.226	1	26
556.416	1	34
557.606	1	20
558.796	1	34
559.986	1	27
561.175	1	21
562.365	1	15
563.555	1	29
564.744	1	22
565.934	1	22
567.123	1	16
568.313	1	18
569.502	1	25
570.692	1	21
571.881	1	16
573.070	1	19
574.260	1	23
575.449	1	7
576.638	1	18
577.827	1	8
579.016	1	22
580.205	1	15
581.394	1	14
582.583	1	25
583.772	1	14
584.961	1	12
586.150	1	18
587.339	1	7
588.528	1	5
589.717	1	13
590.905	1	19
592.094	1	15
593.283	1	13
594.471	1	-4
595.660	1	14
596.848	1	13
598.037	1	10
599.225	1	9
600.413	1	9
601.602	1	9
602.790	1	5
603.978	1	12
605.166	1	7
606.355	1	2
607.543	1	7
608.731	1	-1
609.919	1	8
611.107	1	12
612.295	1	13
613.483	1	3
614.671	1	10
615.858	1	6
617.046	1	-1
618.234	1	-1
619.422	1	23
620.609	1	4
621.797	1	7
622.985	1	0
624.172	1	5
625.360	1	6
626.547	1	8
627.735	1	10
628.922	1	7
630.109	1	1
631.297	1	4
632.484	1	13
633.671	1	12
634.858	1	9
636.045	1	8
637.232	1	7
638.419	1	-2
639.606	1	20
640.793	1	3
641.980	1	10
643.167	1	6
644.354	1	20
645.541	1	15
646.728	1	12
647.914	1	16
649.101	1	-1
650.288	1	6
651.474	1	16
652.661	1	18
653.847	1	4
655.034	1	-3
656.220	1	8
657.406	1	4
658.593	1	10
659.779	1	13
660.965	1	2
662.152	1	6
663.338	1	1
664.524	1	11
665.710	1	10
666.896	1	9
668.082	1	9
669.268	1	-4
670.454	1	8
671.640	1	11
672.826	1	1
674.011	1	9
675.197	1	17
676.383	1	-5
677.569	1	5
678.754	1	10
679.940	1	-4
681.125	1	5
682.311	1	18
683.496	1	11
684.682	1	14
685.867	1	7
687.053	1	19
688.238	1	13
688.746	1	-1

File: GaN_sample D_spot15_UVVIS_150 K_200um_450 ms 2x2mm1_90.txt
340.368	1	14
341.565	1	6
342.763	1	0
343.960	1	7
345.157	1	18
346.354	1	8
347.552	1	17
348.749	1	7
349.946	1	3
351.143	1	14
352.340	1	17
353.537	1	1
354.734	1	17
355.931	1	12
357.127	1	23
358.324	1	17
359.521	1	22
360.718	1	30
361.914	1	44
363.111	1	50
364.308	1	73
365.504	1	79
366.701	1	112
367.897	1	111
369.093	1	125
370.290	1	113
371.486	1	91
372.682	1	77
373.879	1	59
375.075	1	51
376.271	1	45
377.467	1	46
378.663	1	38
379.859	1	27
381.055	1	18
382.251	1	22
383.447	1	19
384.643	1	21
385.839	1	10
387.035	1	21
388.230	1	22
389.426	1	11
390.622	1	-1
391.817	1	10
393.013	1	20
394.208	1	15
395.404	1	15
396.599	1	4
397.795	1	13
398.990	1	23
400.186	1	20
401.381	1	13
402.576	1	13
403.771	1	5
404.967	1	13
406.162	1	4
407.357	1	13
408.552	1	11
409.747	1	11
410.942	1	15
412.137	1	4
413.332	1	16
414.526	1	10
415.721	1	14
416.916	1	16
418.111	1	18
419.305	1	10
420.500	1	11
421.695	1	24
422.889	1	17
424.084	1	14
425.278	1	9
426.472	1	9
427.667	1	5
428.861	1	25
430.055	1	23
431.250	1	15
432.444	1	15
433.638	1	22
434.832	1	4
436.026	1	4
437.220	1	19
438.414	1	22
439.608	1	9
440.802	1	6
441.996	1	9
443.190	1	12
444.384	1	10
445.578	1	5
446.771	1	8
447.965	1	15
449.159	1	17
450.352	1	12
451.546	1	8
452.739	1	5
453.933	1	5
455.126	1	9
456.320	1	15
457.513	1	14
458.706	1	15
459.899	1	8
461.093	1	19
462.286	1	3
463.479	1	0
464.672	1	14
465.865	1	5
467.058	1	13
468.251	1	9
469.444	1	17
470.637	1	8
471.830	1	12
473.023	1	11
474.215	1	16
475.408	1	4
476.601	1	2
477.793	1	9
478.986	1	13
480.179	1	20
481.371	1	3
482.564	1	8
483.756	1	7
484.948	1	9
486.141	1	13
487.333	1	3
488.525	1	7
489.718	1	7
490.910	1	15
492.102	1	18
493.294	1	6
494.486	1	15
495.678	1	9
496.870	1	13
498.062	1	11
499.254	1	13
500.446	1	10
501.638	1	27
502.829	1	23
504.021	1	21
505.213	1	15
506.404	1	22
507.596	1	25
508.788	1	27
509.979	1	18
511.171	1	29
512.362	1	27
513.553	1	30
514.745	1	18
515.936	1	27
517.127	1	43
518.319	1	30
519.510	1	26
520.701	1	40
521.892	1	21
523.083	1	24
524.274	1	44
525.465	1	39
526.656	1	36
527.847	1	24
529.038	1	38
530.229	1	38
531.419	1	37
532.610	1	42
533.801	1	28
534.991	1	25
536.182	1	30
537.373	1	37
538.563	1	31
539.754	1	23
540.944	1	43
542.134	1	23
543.325	1	27
544.515	1	33
545.705	1	30
546.896	1	33
548.086	1	31
549.276	1	36
550.466	1	20
551.656	1	34
552.846	1	35
554.036	1	39
555.226	1	28
556.416	1	23
557.606	1	18
558.796	1	28
559.986	1	22
561.175	1	19
562.365	1	21
563.555	1	24
564.744	1	24
565.934	1	23
567.123	1	13
568.313	1	17
569.502	1	15
570.692	1	18
571.881	1	16
573.070	1	21
574.260	1	10
575.449	1	10
576.638	1	11
577.827	1	17
579.016	1	17
580.205	1	20
581.394	1	19
582.583	1	19
583.772	1	13
584.961	1	3
586.150	1	17
587.339	1	3
588.528	1	8
589.717	1	21
590.905	1	10
592.094	1	19
593.283	1	16
594.471	1	7
595.660	1	13
596.848	1	14
598.037	1	6
599.225	1	0
600.413	1	12
601.602	1	16
602.790	1	13
603.978	1	12
605.166	1	4
606.355	1	-8
607.543	1	17
608.731	1	-1
609.919	1	1
611.107	1	18
612.295	1	-1
613.483	1	8
614.671	1	9
615.858	1	-1
617.046	1	4
618.234	1	3
619.422	1	16
620.609	1	6
621.797	1	8
622.985	1	8
624.172	1	10
625.360	1	13
626.547	1	4
627.735	1	3
628.922	1	11
630.109	1	2
631.297	1	9
632.484	1	11
633.671	1	17
634.858	1	10
636.045	1	10
637.232	1	10
638.419	1	10
639.606	1	9
640.793	1	7
641.980	1	11
643.167	1	10
644.354	1	16
645.541	1	5
646.728	1	6
647.914	1	11
649.101	1	3
650.288	1	10
651.474	1	13
652.661	1	16
653.847	1	9
655.034	1	-1
656.220	1	18
657.406	1	3
658.593	1	9
659.779	1	16
660.965	1	10
662.152	1	6
663.338	1	3
664.524	1	20
665.710	1	9
666.896	1	4
668.082	1	9
669.268	1	-2
670.454	1	7
671.640	1	4
672.826	1	8
674.011	1	12
675.197	1	18
676.383	1	10
677.569	1	16
678.754	1	3
679.940	1	-2
681.125	1	5
682.311	1	15
683.496	1	-1
684.682	1	9
685.867	1	9
687.053	1	27
688.238	1	14
688.746	1	4