Folder: cryo-il_analysis/Data/GaN_150K_450ms (part 30)

File: GaN_sample D_spot15_UVVIS_150 K_200um_450 ms 2x2mm1_283.txt
340.368	1	10
341.565	1	6
342.763	1	1
343.960	1	5
345.157	1	7
346.354	1	9
347.552	1	17
348.749	1	10
349.946	1	-4
351.143	1	1
352.340	1	4
353.537	1	-8
354.734	1	2
355.931	1	12
357.127	1	10
358.324	1	1
359.521	1	12
360.718	1	10
361.914	1	7
363.111	1	-3
364.308	1	10
365.504	1	5
366.701	1	10
367.897	1	8
369.093	1	18
370.290	1	22
371.486	1	19
372.682	1	11
373.879	1	0
375.075	1	8
376.271	1	-1
377.467	1	7
378.663	1	5
379.859	1	7
381.055	1	-5
382.251	1	-3
383.447	1	11
384.643	1	1
385.839	1	11
387.035	1	-4
388.230	1	-4
389.426	1	0
390.622	1	-4
391.817	1	-2
393.013	1	6
394.208	1	4
395.404	1	4
396.599	1	5
397.795	1	2
398.990	1	13
400.186	1	0
401.381	1	1
402.576	1	8
403.771	1	-8
404.967	1	0
406.162	1	-8
407.357	1	6
408.552	1	2
409.747	1	9
410.942	1	1
412.137	1	-1
413.332	1	9
414.526	1	-8
415.721	1	1
416.916	1	-6
418.111	1	3
419.305	1	7
420.500	1	0
421.695	1	12
422.889	1	1
424.084	1	-1
425.278	1	11
426.472	1	11
427.667	1	1
428.861	1	7
430.055	1	9
431.250	1	11
432.444	1	5
433.638	1	7
434.832	1	1
436.026	1	5
437.220	1	14
438.414	1	4
439.608	1	1
440.802	1	5
441.996	1	2
443.190	1	-2
444.384	1	5
445.578	1	-12
446.771	1	-1
447.965	1	5
449.159	1	-12
450.352	1	3
451.546	1	4
452.739	1	14
453.933	1	-9
455.126	1	3
456.320	1	2
457.513	1	0
458.706	1	10
459.899	1	-3
461.093	1	6
462.286	1	3
463.479	1	-1
464.672	1	12
465.865	1	-4
467.058	1	6
468.251	1	-8
469.444	1	5
470.637	1	0
471.830	1	4
473.023	1	0
474.215	1	4
475.408	1	3
476.601	1	6
477.793	1	-1
478.986	1	4
480.179	1	9
481.371	1	-13
482.564	1	5
483.756	1	8
484.948	1	-3
486.141	1	6
487.333	1	-7
488.525	1	-4
489.718	1	-5
490.910	1	8
492.102	1	5
493.294	1	-13
494.486	1	0
495.678	1	-2
496.870	1	5
498.062	1	-7
499.254	1	-3
500.446	1	-7
501.638	1	-4
502.829	1	-4
504.021	1	6
505.213	1	-3
506.404	1	1
507.596	1	13
508.788	1	-2
509.979	1	-1
511.171	1	0
512.362	1	3
513.553	1	13
514.745	1	-3
515.936	1	-2
517.127	1	4
518.319	1	4
519.510	1	-6
520.701	1	13
521.892	1	0
523.083	1	-3
524.274	1	5
525.465	1	12
526.656	1	1
527.847	1	-2
529.038	1	2
530.229	1	6
531.419	1	-5
532.610	1	16
533.801	1	-2
534.991	1	-4
536.182	1	7
537.373	1	-5
538.563	1	-3
539.754	1	4
540.944	1	2
542.134	1	5
543.325	1	10
544.515	1	6
545.705	1	5
546.896	1	9
548.086	1	9
549.276	1	-1
550.466	1	0
551.656	1	-7
552.846	1	-1
554.036	1	9
555.226	1	0
556.416	1	6
557.606	1	-13
558.796	1	2
559.986	1	18
561.175	1	6
562.365	1	-5
563.555	1	5
564.744	1	22
565.934	1	11
567.123	1	2
568.313	1	8
569.502	1	5
570.692	1	-1
571.881	1	0
573.070	1	-1
574.260	1	-2
575.449	1	2
576.638	1	4
577.827	1	-5
579.016	1	-1
580.205	1	4
581.394	1	2
582.583	1	-5
583.772	1	7
584.961	1	-3
586.150	1	0
587.339	1	5
588.528	1	-9
589.717	1	0
590.905	1	-3
592.094	1	6
593.283	1	-8
594.471	1	-1
595.660	1	-3
596.848	1	11
598.037	1	1
599.225	1	-4
600.413	1	2
601.602	1	9
602.790	1	10
603.978	1	3
605.166	1	5
606.355	1	-5
607.543	1	5
608.731	1	-13
609.919	1	-4
611.107	1	11
612.295	1	7
613.483	1	0
614.671	1	4
615.858	1	-4
617.046	1	6
618.234	1	-3
619.422	1	21
620.609	1	-4
621.797	1	-3
622.985	1	5
624.172	1	5
625.360	1	-1
626.547	1	-1
627.735	1	-9
628.922	1	6
630.109	1	-4
631.297	1	-4
632.484	1	16
633.671	1	6
634.858	1	-4
636.045	1	-6
637.232	1	1
638.419	1	-4
639.606	1	0
640.793	1	8
641.980	1	2
643.167	1	-5
644.354	1	7
645.541	1	-5
646.728	1	8
647.914	1	1
649.101	1	2
650.288	1	4
651.474	1	10
652.661	1	0
653.847	1	11
655.034	1	-6
656.220	1	9
657.406	1	-8
658.593	1	12
659.779	1	5
660.965	1	-2
662.152	1	6
663.338	1	-10
664.524	1	7
665.710	1	3
666.896	1	5
668.082	1	-1
669.268	1	6
670.454	1	10
671.640	1	0
672.826	1	12
674.011	1	2
675.197	1	1
676.383	1	-2
677.569	1	8
678.754	1	9
679.940	1	-5
681.125	1	-9
682.311	1	11
683.496	1	-6
684.682	1	-1
685.867	1	-5
687.053	1	16
688.238	1	13
688.746	1	3

File: GaN_sample D_spot15_UVVIS_150 K_200um_450 ms 2x2mm1_286.txt
340.368	1	1
341.565	1	4
342.763	1	-2
343.960	1	5
345.157	1	9
346.354	1	2
347.552	1	12
348.749	1	9
349.946	1	4
351.143	1	5
352.340	1	3
353.537	1	4
354.734	1	6
355.931	1	12
357.127	1	3
358.324	1	11
359.521	1	11
360.718	1	2
361.914	1	12
363.111	1	8
364.308	1	1
365.504	1	0
366.701	1	3
367.897	1	21
369.093	1	5
370.290	1	6
371.486	1	20
372.682	1	9
373.879	1	9
375.075	1	-3
376.271	1	7
377.467	1	8
378.663	1	7
379.859	1	8
381.055	1	-1
382.251	1	-3
383.447	1	-5
384.643	1	0
385.839	1	1
387.035	1	4
388.230	1	2
389.426	1	5
390.622	1	-7
391.817	1	-1
393.013	1	-1
394.208	1	-2
395.404	1	9
396.599	1	5
397.795	1	6
398.990	1	13
400.186	1	5
401.381	1	4
402.576	1	6
403.771	1	-4
404.967	1	0
406.162	1	-8
407.357	1	2
408.552	1	-3
409.747	1	-1
410.942	1	9
412.137	1	4
413.332	1	6
414.526	1	-4
415.721	1	6
416.916	1	-2
418.111	1	3
419.305	1	4
420.500	1	7
421.695	1	9
422.889	1	5
424.084	1	3
425.278	1	0
426.472	1	7
427.667	1	3
428.861	1	5
430.055	1	8
431.250	1	6
432.444	1	3
433.638	1	3
434.832	1	3
436.026	1	4
437.220	1	8
438.414	1	6
439.608	1	0
440.802	1	0
441.996	1	4
443.190	1	7
444.384	1	20
445.578	1	-10
446.771	1	7
447.965	1	10
449.159	1	2
450.352	1	-5
451.546	1	-2
452.739	1	8
453.933	1	2
455.126	1	-1
456.320	1	13
457.513	1	6
458.706	1	11
459.899	1	6
461.093	1	3
462.286	1	-4
463.479	1	5
464.672	1	2
465.865	1	2
467.058	1	7
468.251	1	-7
469.444	1	8
470.637	1	4
471.830	1	1
473.023	1	-1
474.215	1	-5
475.408	1	8
476.601	1	-6
477.793	1	-1
478.986	1	13
480.179	1	-1
481.371	1	-7
482.564	1	0
483.756	1	0
484.948	1	5
486.141	1	-6
487.333	1	-7
488.525	1	-5
489.718	1	-7
490.910	1	7
492.102	1	6
493.294	1	-13
494.486	1	-7
495.678	1	-1
496.870	1	2
498.062	1	0
499.254	1	5
500.446	1	1
501.638	1	7
502.829	1	-4
504.021	1	-2
505.213	1	1
506.404	1	7
507.596	1	5
508.788	1	4
509.979	1	-4
511.171	1	0
512.362	1	10
513.553	1	10
514.745	1	-6
515.936	1	1
517.127	1	7
518.319	1	5
519.510	1	-3
520.701	1	5
521.892	1	7
523.083	1	5
524.274	1	10
525.465	1	13
526.656	1	5
527.847	1	-8
529.038	1	2
530.229	1	4
531.419	1	3
532.610	1	13
533.801	1	5
534.991	1	-4
536.182	1	6
537.373	1	1
538.563	1	-2
539.754	1	-3
540.944	1	-1
542.134	1	2
543.325	1	3
544.515	1	13
545.705	1	5
546.896	1	-1
548.086	1	9
549.276	1	4
550.466	1	-5
551.656	1	6
552.846	1	-2
554.036	1	10
555.226	1	6
556.416	1	6
557.606	1	-13
558.796	1	8
559.986	1	11
561.175	1	4
562.365	1	-5
563.555	1	3
564.744	1	15
565.934	1	15
567.123	1	-1
568.313	1	4
569.502	1	-1
570.692	1	13
571.881	1	-1
573.070	1	4
574.260	1	7
575.449	1	1
576.638	1	4
577.827	1	1
579.016	1	-1
580.205	1	8
581.394	1	-8
582.583	1	8
583.772	1	7
584.961	1	0
586.150	1	5
587.339	1	-1
588.528	1	12
589.717	1	2
590.905	1	-1
592.094	1	11
593.283	1	3
594.471	1	-5
595.660	1	-1
596.848	1	6
598.037	1	5
599.225	1	1
600.413	1	3
601.602	1	11
602.790	1	9
603.978	1	6
605.166	1	4
606.355	1	-17
607.543	1	6
608.731	1	-4
609.919	1	-7
611.107	1	8
612.295	1	5
613.483	1	-3
614.671	1	13
615.858	1	-11
617.046	1	2
618.234	1	-1
619.422	1	27
620.609	1	-3
621.797	1	0
622.985	1	-3
624.172	1	5
625.360	1	7
626.547	1	2
627.735	1	-1
628.922	1	7
630.109	1	-10
631.297	1	5
632.484	1	2
633.671	1	7
634.858	1	8
636.045	1	-8
637.232	1	3
638.419	1	-1
639.606	1	6
640.793	1	-2
641.980	1	3
643.167	1	-4
644.354	1	7
645.541	1	-2
646.728	1	6
647.914	1	-1
649.101	1	1
650.288	1	4
651.474	1	10
652.661	1	7
653.847	1	4
655.034	1	-1
656.220	1	-1
657.406	1	-3
658.593	1	-1
659.779	1	5
660.965	1	4
662.152	1	-3
663.338	1	-4
664.524	1	15
665.710	1	3
666.896	1	0
668.082	1	-4
669.268	1	5
670.454	1	0
671.640	1	9
672.826	1	13
674.011	1	3
675.197	1	4
676.383	1	3
677.569	1	16
678.754	1	-3
679.940	1	-1
681.125	1	1
682.311	1	5
683.496	1	2
684.682	1	7
685.867	1	9
687.053	1	15
688.238	1	5
688.746	1	-6

File: GaN_sample D_spot15_UVVIS_150 K_200um_450 ms 2x2mm1_288.txt
340.368	1	3
341.565	1	8
342.763	1	2
343.960	1	3
345.157	1	9
346.354	1	-2
347.552	1	18
348.749	1	13
349.946	1	5
351.143	1	12
352.340	1	2
353.537	1	4
354.734	1	3
355.931	1	1
357.127	1	11
358.324	1	4
359.521	1	1
360.718	1	9
361.914	1	13
363.111	1	9
364.308	1	7
365.504	1	4
366.701	1	4
367.897	1	6
369.093	1	13
370.290	1	17
371.486	1	14
372.682	1	8
373.879	1	8
375.075	1	-1
376.271	1	10
377.467	1	11
378.663	1	6
379.859	1	9
381.055	1	2
382.251	1	-12
383.447	1	9
384.643	1	3
385.839	1	3
387.035	1	6
388.230	1	4
389.426	1	2
390.622	1	0
391.817	1	-5
393.013	1	-5
394.208	1	-8
395.404	1	0
396.599	1	9
397.795	1	-9
398.990	1	6
400.186	1	1
401.381	1	-1
402.576	1	8
403.771	1	-3
404.967	1	5
406.162	1	-10
407.357	1	9
408.552	1	1
409.747	1	-2
410.942	1	7
412.137	1	-3
413.332	1	-5
414.526	1	0
415.721	1	-1
416.916	1	-3
418.111	1	4
419.305	1	7
420.500	1	9
421.695	1	12
422.889	1	-1
424.084	1	7
425.278	1	5
426.472	1	-1
427.667	1	-12
428.861	1	7
430.055	1	12
431.250	1	4
432.444	1	-2
433.638	1	5
434.832	1	-4
436.026	1	2
437.220	1	8
438.414	1	5
439.608	1	1
440.802	1	2
441.996	1	-4
443.190	1	-1
444.384	1	10
445.578	1	-7
446.771	1	-3
447.965	1	1
449.159	1	-8
450.352	1	5
451.546	1	8
452.739	1	1
453.933	1	-14
455.126	1	-5
456.320	1	8
457.513	1	-3
458.706	1	4
459.899	1	-1
461.093	1	9
462.286	1	2
463.479	1	2
464.672	1	-1
465.865	1	0
467.058	1	6
468.251	1	2
469.444	1	8
470.637	1	-2
471.830	1	9
473.023	1	-1
474.215	1	0
475.408	1	6
476.601	1	4
477.793	1	-1
478.986	1	4
480.179	1	6
481.371	1	-3
482.564	1	7
483.756	1	4
484.948	1	6
486.141	1	2
487.333	1	-7
488.525	1	-5
489.718	1	0
490.910	1	6
492.102	1	9
493.294	1	-8
494.486	1	1
495.678	1	-2
496.870	1	-6
498.062	1	-5
499.254	1	-8
500.446	1	-1
501.638	1	6
502.829	1	-2
504.021	1	4
505.213	1	-4
506.404	1	3
507.596	1	4
508.788	1	8
509.979	1	1
511.171	1	1
512.362	1	12
513.553	1	2
514.745	1	2
515.936	1	-2
517.127	1	9
518.319	1	3
519.510	1	-4
520.701	1	7
521.892	1	-6
523.083	1	-2
524.274	1	-8
525.465	1	5
526.656	1	6
527.847	1	-10
529.038	1	3
530.229	1	5
531.419	1	4
532.610	1	7
533.801	1	-3
534.991	1	1
536.182	1	-2
537.373	1	-1
538.563	1	-2
539.754	1	9
540.944	1	1
542.134	1	1
543.325	1	10
544.515	1	0
545.705	1	8
546.896	1	2
548.086	1	21
549.276	1	3
550.466	1	-1
551.656	1	3
552.846	1	6
554.036	1	5
555.226	1	5
556.416	1	6
557.606	1	1
558.796	1	5
559.986	1	0
561.175	1	2
562.365	1	-1
563.555	1	3
564.744	1	9
565.934	1	10
567.123	1	-4
568.313	1	6
569.502	1	10
570.692	1	-2
571.881	1	2
573.070	1	2
574.260	1	1
575.449	1	0
576.638	1	9
577.827	1	-7
579.016	1	-7
580.205	1	3
581.394	1	5
582.583	1	1
583.772	1	2
584.961	1	-5
586.150	1	9
587.339	1	-1
588.528	1	-4
589.717	1	3
590.905	1	7
592.094	1	4
593.283	1	3
594.471	1	-4
595.660	1	6
596.848	1	-2
598.037	1	-8
599.225	1	-1
600.413	1	5
601.602	1	7
602.790	1	2
603.978	1	-1
605.166	1	-3
606.355	1	-8
607.543	1	1
608.731	1	-1
609.919	1	-3
611.107	1	2
612.295	1	7
613.483	1	-6
614.671	1	2
615.858	1	-1
617.046	1	2
618.234	1	-8
619.422	1	16
620.609	1	5
621.797	1	-1
622.985	1	-1
624.172	1	0
625.360	1	-3
626.547	1	-5
627.735	1	-1
628.922	1	2
630.109	1	-7
631.297	1	2
632.484	1	13
633.671	1	7
634.858	1	2
636.045	1	-4
637.232	1	1
638.419	1	-1
639.606	1	7
640.793	1	2
641.980	1	9
643.167	1	-1
644.354	1	11
645.541	1	6
646.728	1	3
647.914	1	5
649.101	1	-1
650.288	1	1
651.474	1	12
652.661	1	5
653.847	1	7
655.034	1	-5
656.220	1	7
657.406	1	0
658.593	1	6
659.779	1	1
660.965	1	-3
662.152	1	-1
663.338	1	0
664.524	1	1
665.710	1	3
666.896	1	4
668.082	1	-7
669.268	1	-10
670.454	1	2
671.640	1	7
672.826	1	0
674.011	1	2
675.197	1	6
676.383	1	3
677.569	1	8
678.754	1	-4
679.940	1	3
681.125	1	-2
682.311	1	2
683.496	1	-1
684.682	1	3
685.867	1	-8
687.053	1	14
688.238	1	8
688.746	1	-2

File: GaN_sample D_spot15_UVVIS_150 K_200um_450 ms 2x2mm1_289.txt
340.368	1	8
341.565	1	5
342.763	1	4
343.960	1	-3
345.157	1	12
346.354	1	-5
347.552	1	19
348.749	1	8
349.946	1	6
351.143	1	11
352.340	1	7
353.537	1	0
354.734	1	0
355.931	1	0
357.127	1	11
358.324	1	1
359.521	1	4
360.718	1	9
361.914	1	11
363.111	1	0
364.308	1	15
365.504	1	1
366.701	1	3
367.897	1	17
369.093	1	10
370.290	1	6
371.486	1	17
372.682	1	13
373.879	1	-1
375.075	1	-9
376.271	1	5
377.467	1	14
378.663	1	8
379.859	1	1
381.055	1	-3
382.251	1	-7
383.447	1	-1
384.643	1	5
385.839	1	4
387.035	1	11
388.230	1	-2
389.426	1	5
390.622	1	4
391.817	1	-7
393.013	1	3
394.208	1	-1
395.404	1	5
396.599	1	-1
397.795	1	-1
398.990	1	7
400.186	1	2
401.381	1	1
402.576	1	7
403.771	1	-15
404.967	1	1
406.162	1	-2
407.357	1	9
408.552	1	0
409.747	1	-5
410.942	1	7
412.137	1	-2
413.332	1	-2
414.526	1	-1
415.721	1	-3
416.916	1	7
418.111	1	4
419.305	1	0
420.500	1	-2
421.695	1	0
422.889	1	-5
424.084	1	8
425.278	1	2
426.472	1	14
427.667	1	-1
428.861	1	13
430.055	1	5
431.250	1	2
432.444	1	4
433.638	1	11
434.832	1	7
436.026	1	-2
437.220	1	6
438.414	1	4
439.608	1	-5
440.802	1	0
441.996	1	0
443.190	1	7
444.384	1	-5
445.578	1	-5
446.771	1	0
447.965	1	3
449.159	1	-8
450.352	1	-5
451.546	1	3
452.739	1	-1
453.933	1	-2
455.126	1	6
456.320	1	5
457.513	1	2
458.706	1	9
459.899	1	-2
461.093	1	2
462.286	1	-5
463.479	1	-3
464.672	1	6
465.865	1	-4
467.058	1	0
468.251	1	-1
469.444	1	3
470.637	1	1
471.830	1	-4
473.023	1	0
474.215	1	3
475.408	1	-2
476.601	1	-2
477.793	1	2
478.986	1	11
480.179	1	1
481.371	1	-3
482.564	1	8
483.756	1	1
484.948	1	0
486.141	1	6
487.333	1	0
488.525	1	-4
489.718	1	-4
490.910	1	5
492.102	1	4
493.294	1	-9
494.486	1	0
495.678	1	5
496.870	1	-1
498.062	1	-3
499.254	1	2
500.446	1	-7
501.638	1	-3
502.829	1	-11
504.021	1	4
505.213	1	-5
506.404	1	-5
507.596	1	14
508.788	1	9
509.979	1	-1
511.171	1	6
512.362	1	6
513.553	1	-5
514.745	1	-4
515.936	1	1
517.127	1	9
518.319	1	5
519.510	1	-7
520.701	1	-1
521.892	1	-4
523.083	1	-1
524.274	1	5
525.465	1	14
526.656	1	9
527.847	1	-15
529.038	1	5
530.229	1	9
531.419	1	-7
532.610	1	4
533.801	1	5
534.991	1	1
536.182	1	3
537.373	1	1
538.563	1	3
539.754	1	2
540.944	1	1
542.134	1	4
543.325	1	1
544.515	1	4
545.705	1	6
546.896	1	5
548.086	1	7
549.276	1	-5
550.466	1	3
551.656	1	4
552.846	1	4
554.036	1	6
555.226	1	8
556.416	1	9
557.606	1	-14
558.796	1	4
559.986	1	4
561.175	1	-3
562.365	1	6
563.555	1	5
564.744	1	9
565.934	1	15
567.123	1	2
568.313	1	7
569.502	1	-4
570.692	1	2
571.881	1	1
573.070	1	-2
574.260	1	6
575.449	1	-4
576.638	1	9
577.827	1	0
579.016	1	8
580.205	1	1
581.394	1	-5
582.583	1	3
583.772	1	-1
584.961	1	-2
586.150	1	-3
587.339	1	0
588.528	1	0
589.717	1	-13
590.905	1	-7
592.094	1	8
593.283	1	5
594.471	1	-4
595.660	1	14
596.848	1	3
598.037	1	-3
599.225	1	-1
600.413	1	0
601.602	1	3
602.790	1	4
603.978	1	0
605.166	1	-6
606.355	1	-16
607.543	1	-2
608.731	1	-13
609.919	1	2
611.107	1	7
612.295	1	11
613.483	1	-4
614.671	1	-1
615.858	1	-6
617.046	1	-2
618.234	1	-6
619.422	1	16
620.609	1	1
621.797	1	11
622.985	1	1
624.172	1	6
625.360	1	6
626.547	1	-2
627.735	1	1
628.922	1	11
630.109	1	-12
631.297	1	15
632.484	1	6
633.671	1	12
634.858	1	1
636.045	1	-3
637.232	1	-3
638.419	1	5
639.606	1	7
640.793	1	-4
641.980	1	4
643.167	1	-1
644.354	1	5
645.541	1	6
646.728	1	10
647.914	1	-4
649.101	1	-11
650.288	1	2
651.474	1	7
652.661	1	5
653.847	1	8
655.034	1	0
656.220	1	4
657.406	1	1
658.593	1	14
659.779	1	0
660.965	1	6
662.152	1	-5
663.338	1	-6
664.524	1	10
665.710	1	1
666.896	1	1
668.082	1	5
669.268	1	-7
670.454	1	1
671.640	1	7
672.826	1	1
674.011	1	0
675.197	1	5
676.383	1	-6
677.569	1	8
678.754	1	5
679.940	1	-6
681.125	1	-2
682.311	1	7
683.496	1	-4
684.682	1	13
685.867	1	-2
687.053	1	13
688.238	1	6
688.746	1	6

File: GaN_sample D_spot15_UVVIS_150 K_200um_450 ms 2x2mm1_290.txt
340.368	1	5
341.565	1	4
342.763	1	4
343.960	1	7
345.157	1	10
346.354	1	2
347.552	1	16
348.749	1	16
349.946	1	0
351.143	1	6
352.340	1	7
353.537	1	3
354.734	1	11
355.931	1	-3
357.127	1	8
358.324	1	2
359.521	1	11
360.718	1	-1
361.914	1	14
363.111	1	-2
364.308	1	2
365.504	1	5
366.701	1	9
367.897	1	11
369.093	1	14
370.290	1	16
371.486	1	16
372.682	1	6
373.879	1	5
375.075	1	2
376.271	1	11
377.467	1	14
378.663	1	4
379.859	1	-3
381.055	1	-2
382.251	1	-2
383.447	1	7
384.643	1	7
385.839	1	-3
387.035	1	14
388.230	1	-9
389.426	1	-3
390.622	1	5
391.817	1	-8
393.013	1	14
394.208	1	0
395.404	1	8
396.599	1	7
397.795	1	-6
398.990	1	-1
400.186	1	9
401.381	1	1
402.576	1	-3
403.771	1	-9
404.967	1	-2
406.162	1	-7
407.357	1	8
408.552	1	-1
409.747	1	1
410.942	1	9
412.137	1	4
413.332	1	6
414.526	1	3
415.721	1	0
416.916	1	-1
418.111	1	7
419.305	1	9
420.500	1	-1
421.695	1	3
422.889	1	1
424.084	1	3
425.278	1	-2
426.472	1	9
427.667	1	9
428.861	1	1
430.055	1	-1
431.250	1	11
432.444	1	-1
433.638	1	-3
434.832	1	-3
436.026	1	1
437.220	1	9
438.414	1	13
439.608	1	0
440.802	1	6
441.996	1	-2
443.190	1	9
444.384	1	5
445.578	1	-8
446.771	1	1
447.965	1	6
449.159	1	-4
450.352	1	5
451.546	1	-6
452.739	1	3
453.933	1	-7
455.126	1	7
456.320	1	13
457.513	1	-3
458.706	1	5
459.899	1	-2
461.093	1	4
462.286	1	5
463.479	1	3
464.672	1	8
465.865	1	1
467.058	1	4
468.251	1	-6
469.444	1	0
470.637	1	10
471.830	1	6
473.023	1	2
474.215	1	-1
475.408	1	1
476.601	1	2
477.793	1	-2
478.986	1	9
480.179	1	4
481.371	1	6
482.564	1	7
483.756	1	0
484.948	1	6
486.141	1	1
487.333	1	-5
488.525	1	-8
489.718	1	-13
490.910	1	1
492.102	1	-6
493.294	1	-8
494.486	1	-7
495.678	1	-2
496.870	1	5
498.062	1	0
499.254	1	-4
500.446	1	-3
501.638	1	3
502.829	1	1
504.021	1	5
505.213	1	-10
506.404	1	-5
507.596	1	10
508.788	1	5
509.979	1	-2
511.171	1	5
512.362	1	3
513.553	1	1
514.745	1	4
515.936	1	0
517.127	1	16
518.319	1	5
519.510	1	0
520.701	1	-2
521.892	1	8
523.083	1	1
524.274	1	-3
525.465	1	6
526.656	1	13
527.847	1	-6
529.038	1	5
530.229	1	5
531.419	1	3
532.610	1	9
533.801	1	4
534.991	1	1
536.182	1	-5
537.373	1	-4
538.563	1	-2
539.754	1	9
540.944	1	2
542.134	1	5
543.325	1	5
544.515	1	0
545.705	1	-4
546.896	1	0
548.086	1	6
549.276	1	9
550.466	1	-2
551.656	1	0
552.846	1	3
554.036	1	6
555.226	1	-2
556.416	1	10
557.606	1	-15
558.796	1	12
559.986	1	6
561.175	1	0
562.365	1	0
563.555	1	1
564.744	1	11
565.934	1	14
567.123	1	-11
568.313	1	2
569.502	1	10
570.692	1	3
571.881	1	-1
573.070	1	5
574.260	1	-3
575.449	1	4
576.638	1	7
577.827	1	1
579.016	1	2
580.205	1	7
581.394	1	-4
582.583	1	7
583.772	1	10
584.961	1	-11
586.150	1	0
587.339	1	4
588.528	1	0
589.717	1	3
590.905	1	0
592.094	1	9
593.283	1	5
594.471	1	-6
595.660	1	4
596.848	1	7
598.037	1	-11
599.225	1	1
600.413	1	-2
601.602	1	7
602.790	1	2
603.978	1	-6
605.166	1	11
606.355	1	-12
607.543	1	1
608.731	1	-15
609.919	1	1
611.107	1	7
612.295	1	0
613.483	1	3
614.671	1	7
615.858	1	-2
617.046	1	-1
618.234	1	-3
619.422	1	15
620.609	1	-8
621.797	1	-5
622.985	1	3
624.172	1	4
625.360	1	4
626.547	1	-9
627.735	1	2
628.922	1	6
630.109	1	-2
631.297	1	5
632.484	1	1
633.671	1	14
634.858	1	8
636.045	1	0
637.232	1	7
638.419	1	6
639.606	1	5
640.793	1	-5
641.980	1	15
643.167	1	9
644.354	1	10
645.541	1	4
646.728	1	9
647.914	1	2
649.101	1	-4
650.288	1	11
651.474	1	1
652.661	1	5
653.847	1	4
655.034	1	-5
656.220	1	3
657.406	1	-6
658.593	1	3
659.779	1	2
660.965	1	2
662.152	1	4
663.338	1	3
664.524	1	13
665.710	1	-1
666.896	1	7
668.082	1	-2
669.268	1	0
670.454	1	3
671.640	1	5
672.826	1	-2
674.011	1	7
675.197	1	5
676.383	1	0
677.569	1	15
678.754	1	-8
679.940	1	-2
681.125	1	1
682.311	1	16
683.496	1	-4
684.682	1	12
685.867	1	5
687.053	1	15
688.238	1	12
688.746	1	6

File: GaN_sample D_spot15_UVVIS_150 K_200um_450 ms 2x2mm1_294.txt
340.368	1	-1
341.565	1	5
342.763	1	-2
343.960	1	10
345.157	1	13
346.354	1	7
347.552	1	9
348.749	1	8
349.946	1	-4
351.143	1	4
352.340	1	1
353.537	1	0
354.734	1	8
355.931	1	6
357.127	1	11
358.324	1	6
359.521	1	7
360.718	1	3
361.914	1	-1
363.111	1	11
364.308	1	5
365.504	1	-6
366.701	1	14
367.897	1	15
369.093	1	14
370.290	1	15
371.486	1	15
372.682	1	8
373.879	1	-3
375.075	1	2
376.271	1	-1
377.467	1	15
378.663	1	9
379.859	1	-1
381.055	1	-2
382.251	1	-3
383.447	1	-6
384.643	1	2
385.839	1	2
387.035	1	8
388.230	1	4
389.426	1	-3
390.622	1	2
391.817	1	-9
393.013	1	2
394.208	1	4
395.404	1	7
396.599	1	-3
397.795	1	6
398.990	1	5
400.186	1	6
401.381	1	2
402.576	1	2
403.771	1	-3
404.967	1	3
406.162	1	-7
407.357	1	5
408.552	1	-8
409.747	1	-2
410.942	1	11
412.137	1	-9
413.332	1	9
414.526	1	1
415.721	1	7
416.916	1	-3
418.111	1	7
419.305	1	7
420.500	1	4
421.695	1	5
422.889	1	12
424.084	1	10
425.278	1	7
426.472	1	12
427.667	1	-4
428.861	1	13
430.055	1	6
431.250	1	2
432.444	1	-1
433.638	1	5
434.832	1	11
436.026	1	-3
437.220	1	13
438.414	1	11
439.608	1	-3
440.802	1	1
441.996	1	-1
443.190	1	9
444.384	1	9
445.578	1	-3
446.771	1	3
447.965	1	4
449.159	1	2
450.352	1	-2
451.546	1	6
452.739	1	-2
453.933	1	4
455.126	1	-5
456.320	1	10
457.513	1	-5
458.706	1	2
459.899	1	5
461.093	1	15
462.286	1	-5
463.479	1	-6
464.672	1	7
465.865	1	-2
467.058	1	2
468.251	1	-5
469.444	1	7
470.637	1	-2
471.830	1	-3
473.023	1	7
474.215	1	4
475.408	1	-1
476.601	1	4
477.793	1	-1
478.986	1	9
480.179	1	9
481.371	1	-11
482.564	1	6
483.756	1	-1
484.948	1	13
486.141	1	5
487.333	1	-2
488.525	1	-3
489.718	1	-14
490.910	1	8
492.102	1	-4
493.294	1	-9
494.486	1	-7
495.678	1	0
496.870	1	3
498.062	1	-4
499.254	1	-8
500.446	1	-9
501.638	1	-7
502.829	1	2
504.021	1	3
505.213	1	-1
506.404	1	-1
507.596	1	7
508.788	1	5
509.979	1	1
511.171	1	3
512.362	1	6
513.553	1	8
514.745	1	5
515.936	1	-9
517.127	1	3
518.319	1	-6
519.510	1	-5
520.701	1	2
521.892	1	1
523.083	1	-4
524.274	1	-2
525.465	1	4
526.656	1	1
527.847	1	-5
529.038	1	4
530.229	1	10
531.419	1	5
532.610	1	2
533.801	1	3
534.991	1	-1
536.182	1	1
537.373	1	2
538.563	1	7
539.754	1	1
540.944	1	5
542.134	1	0
543.325	1	14
544.515	1	3
545.705	1	8
546.896	1	4
548.086	1	4
549.276	1	-3
550.466	1	4
551.656	1	-1
552.846	1	5
554.036	1	7
555.226	1	0
556.416	1	8
557.606	1	-1
558.796	1	12
559.986	1	13
561.175	1	-3
562.365	1	2
563.555	1	3
564.744	1	13
565.934	1	5
567.123	1	11
568.313	1	0
569.502	1	5
570.692	1	0
571.881	1	-3
573.070	1	-2
574.260	1	-4
575.449	1	0
576.638	1	3
577.827	1	-4
579.016	1	3
580.205	1	3
581.394	1	-1
582.583	1	3
583.772	1	10
584.961	1	-2
586.150	1	6
587.339	1	-1
588.528	1	1
589.717	1	2
590.905	1	2
592.094	1	6
593.283	1	0
594.471	1	-8
595.660	1	7
596.848	1	5
598.037	1	4
599.225	1	-2
600.413	1	4
601.602	1	5
602.790	1	-4
603.978	1	0
605.166	1	7
606.355	1	-10
607.543	1	3
608.731	1	-6
609.919	1	1
611.107	1	6
612.295	1	6
613.483	1	-3
614.671	1	6
615.858	1	-6
617.046	1	9
618.234	1	6
619.422	1	9
620.609	1	-6
621.797	1	5
622.985	1	-8
624.172	1	-1
625.360	1	7
626.547	1	3
627.735	1	1
628.922	1	13
630.109	1	-6
631.297	1	5
632.484	1	14
633.671	1	6
634.858	1	-1
636.045	1	-1
637.232	1	1
638.419	1	-7
639.606	1	6
640.793	1	-3
641.980	1	17
643.167	1	1
644.354	1	2
645.541	1	7
646.728	1	5
647.914	1	9
649.101	1	-4
650.288	1	4
651.474	1	11
652.661	1	5
653.847	1	4
655.034	1	5
656.220	1	2
657.406	1	-1
658.593	1	0
659.779	1	7
660.965	1	3
662.152	1	-2
663.338	1	-8
664.524	1	9
665.710	1	4
666.896	1	7
668.082	1	-2
669.268	1	-7
670.454	1	8
671.640	1	6
672.826	1	-4
674.011	1	9
675.197	1	3
676.383	1	3
677.569	1	25
678.754	1	-2
679.940	1	0
681.125	1	0
682.311	1	7
683.496	1	-8
684.682	1	5
685.867	1	-3
687.053	1	19
688.238	1	-1
688.746	1	-4