Folder: cryo-il_analysis/Data/GaN_200K_800ms (part 36)

File: GaN_sample F_spot 12_UVVIS_200 K_200um_800 ms 2x2mm1_380.txt
340.368	1	5
341.565	1	-18
342.763	1	3
343.960	1	1
345.157	1	-13
346.354	1	4
347.552	1	-8
348.749	1	-6
349.946	1	-15
351.143	1	-5
352.340	1	-1
353.537	1	-2
354.734	1	-1
355.931	1	-1
357.127	1	-4
358.324	1	-6
359.521	1	3
360.718	1	-3
361.914	1	7
363.111	1	0
364.308	1	-3
365.504	1	7
366.701	1	5
367.897	1	8
369.093	1	6
370.290	1	8
371.486	1	14
372.682	1	15
373.879	1	5
375.075	1	6
376.271	1	18
377.467	1	2
378.663	1	-6
379.859	1	3
381.055	1	6
382.251	1	-8
383.447	1	-1
384.643	1	2
385.839	1	4
387.035	1	1
388.230	1	4
389.426	1	-4
390.622	1	-3
391.817	1	-4
393.013	1	-2
394.208	1	-2
395.404	1	-6
396.599	1	-4
397.795	1	6
398.990	1	3
400.186	1	-3
401.381	1	-2
402.576	1	-3
403.771	1	4
404.967	1	6
406.162	1	3
407.357	1	2
408.552	1	1
409.747	1	0
410.942	1	10
412.137	1	-1
413.332	1	4
414.526	1	-3
415.721	1	6
416.916	1	-8
418.111	1	3
419.305	1	8
420.500	1	-3
421.695	1	-2
422.889	1	-3
424.084	1	2
425.278	1	7
426.472	1	2
427.667	1	4
428.861	1	0
430.055	1	4
431.250	1	-9
432.444	1	0
433.638	1	-4
434.832	1	5
436.026	1	4
437.220	1	8
438.414	1	-10
439.608	1	-13
440.802	1	-13
441.996	1	2
443.190	1	-1
444.384	1	-9
445.578	1	-12
446.771	1	11
447.965	1	-2
449.159	1	-2
450.352	1	4
451.546	1	1
452.739	1	10
453.933	1	2
455.126	1	-12
456.320	1	2
457.513	1	-5
458.706	1	-3
459.899	1	5
461.093	1	-4
462.286	1	-3
463.479	1	-10
464.672	1	0
465.865	1	1
467.058	1	-8
468.251	1	0
469.444	1	-11
470.637	1	-2
471.830	1	-3
473.023	1	5
474.215	1	6
475.408	1	0
476.601	1	5
477.793	1	-4
478.986	1	1
480.179	1	-2
481.371	1	4
482.564	1	4
483.756	1	7
484.948	1	-9
486.141	1	3
487.333	1	-7
488.525	1	3
489.718	1	-3
490.910	1	0
492.102	1	-1
493.294	1	-9
494.486	1	-1
495.678	1	1
496.870	1	5
498.062	1	-2
499.254	1	6
500.446	1	-14
501.638	1	0
502.829	1	-3
504.021	1	-3
505.213	1	1
506.404	1	1
507.596	1	-5
508.788	1	6
509.979	1	-3
511.171	1	-4
512.362	1	-6
513.553	1	-7
514.745	1	-3
515.936	1	-1
517.127	1	6
518.319	1	-5
519.510	1	5
520.701	1	-2
521.892	1	6
523.083	1	1
524.274	1	5
525.465	1	5
526.656	1	5
527.847	1	0
529.038	1	1
530.229	1	-7
531.419	1	5
532.610	1	-2
533.801	1	17
534.991	1	-10
536.182	1	2
537.373	1	-1
538.563	1	0
539.754	1	8
540.944	1	-6
542.134	1	2
543.325	1	0
544.515	1	-4
545.705	1	-6
546.896	1	-6
548.086	1	-5
549.276	1	-4
550.466	1	2
551.656	1	4
552.846	1	1
554.036	1	-4
555.226	1	4
556.416	1	-2
557.606	1	9
558.796	1	-2
559.986	1	1
561.175	1	7
562.365	1	-6
563.555	1	0
564.744	1	3
565.934	1	3
567.123	1	2
568.313	1	2
569.502	1	-8
570.692	1	7
571.881	1	11
573.070	1	6
574.260	1	7
575.449	1	-2
576.638	1	-9
577.827	1	-14
579.016	1	8
580.205	1	-1
581.394	1	-3
582.583	1	8
583.772	1	6
584.961	1	12
586.150	1	0
587.339	1	2
588.528	1	12
589.717	1	1
590.905	1	4
592.094	1	-9
593.283	1	2
594.471	1	9
595.660	1	-2
596.848	1	-3
598.037	1	-2
599.225	1	-2
600.413	1	2
601.602	1	15
602.790	1	-2
603.978	1	4
605.166	1	-2
606.355	1	3
607.543	1	0
608.731	1	2
609.919	1	5
611.107	1	-4
612.295	1	-4
613.483	1	-5
614.671	1	5
615.858	1	2
617.046	1	-5
618.234	1	2
619.422	1	-1
620.609	1	9
621.797	1	-4
622.985	1	1
624.172	1	0
625.360	1	0
626.547	1	0
627.735	1	3
628.922	1	0
630.109	1	-6
631.297	1	-10
632.484	1	-2
633.671	1	-11
634.858	1	-6
636.045	1	5
637.232	1	-5
638.419	1	3
639.606	1	3
640.793	1	3
641.980	1	5
643.167	1	-2
644.354	1	1
645.541	1	5
646.728	1	-1
647.914	1	-12
649.101	1	-11
650.288	1	2
651.474	1	-9
652.661	1	5
653.847	1	3
655.034	1	0
656.220	1	-12
657.406	1	3
658.593	1	7
659.779	1	-2
660.965	1	7
662.152	1	-2
663.338	1	8
664.524	1	2
665.710	1	2
666.896	1	2
668.082	1	-2
669.268	1	-3
670.454	1	4
671.640	1	1
672.826	1	2
674.011	1	1
675.197	1	0
676.383	1	-2
677.569	1	-3
678.754	1	-6
679.940	1	-2
681.125	1	8
682.311	1	8
683.496	1	2
684.682	1	-8
685.867	1	-2
687.053	1	1
688.238	1	-5
688.746	1	8

File: GaN_sample F_spot 12_UVVIS_200 K_200um_800 ms 2x2mm1_382.txt
340.368	1	-2
341.565	1	-11
342.763	1	0
343.960	1	6
345.157	1	0
346.354	1	-8
347.552	1	-2
348.749	1	-11
349.946	1	-5
351.143	1	-1
352.340	1	-1
353.537	1	-1
354.734	1	7
355.931	1	0
357.127	1	-6
358.324	1	0
359.521	1	6
360.718	1	4
361.914	1	9
363.111	1	2
364.308	1	0
365.504	1	0
366.701	1	0
367.897	1	6
369.093	1	2
370.290	1	4
371.486	1	21
372.682	1	13
373.879	1	10
375.075	1	3
376.271	1	13
377.467	1	4
378.663	1	-6
379.859	1	-4
381.055	1	14
382.251	1	-4
383.447	1	5
384.643	1	10
385.839	1	-2
387.035	1	-7
388.230	1	7
389.426	1	-2
390.622	1	-2
391.817	1	2
393.013	1	1
394.208	1	-12
395.404	1	-6
396.599	1	0
397.795	1	-5
398.990	1	0
400.186	1	4
401.381	1	-14
402.576	1	-8
403.771	1	0
404.967	1	-4
406.162	1	7
407.357	1	-3
408.552	1	-6
409.747	1	-6
410.942	1	5
412.137	1	-2
413.332	1	1
414.526	1	-6
415.721	1	-4
416.916	1	-10
418.111	1	-5
419.305	1	-3
420.500	1	-15
421.695	1	3
422.889	1	-9
424.084	1	3
425.278	1	10
426.472	1	-4
427.667	1	1
428.861	1	-3
430.055	1	-2
431.250	1	-5
432.444	1	-2
433.638	1	-7
434.832	1	0
436.026	1	-2
437.220	1	10
438.414	1	-5
439.608	1	-10
440.802	1	-7
441.996	1	7
443.190	1	1
444.384	1	-10
445.578	1	-4
446.771	1	12
447.965	1	6
449.159	1	-8
450.352	1	1
451.546	1	-9
452.739	1	0
453.933	1	-1
455.126	1	-15
456.320	1	-7
457.513	1	6
458.706	1	-2
459.899	1	5
461.093	1	-4
462.286	1	-5
463.479	1	5
464.672	1	-1
465.865	1	-2
467.058	1	0
468.251	1	0
469.444	1	-15
470.637	1	-6
471.830	1	-2
473.023	1	6
474.215	1	12
475.408	1	1
476.601	1	2
477.793	1	0
478.986	1	1
480.179	1	0
481.371	1	2
482.564	1	4
483.756	1	4
484.948	1	-1
486.141	1	-2
487.333	1	-2
488.525	1	0
489.718	1	1
490.910	1	-1
492.102	1	-2
493.294	1	-11
494.486	1	2
495.678	1	-9
496.870	1	4
498.062	1	-2
499.254	1	-3
500.446	1	-13
501.638	1	-8
502.829	1	-13
504.021	1	3
505.213	1	0
506.404	1	11
507.596	1	4
508.788	1	24
509.979	1	-7
511.171	1	0
512.362	1	-11
513.553	1	-12
514.745	1	4
515.936	1	1
517.127	1	6
518.319	1	2
519.510	1	1
520.701	1	-6
521.892	1	9
523.083	1	-9
524.274	1	-1
525.465	1	4
526.656	1	-6
527.847	1	-7
529.038	1	3
530.229	1	7
531.419	1	4
532.610	1	-5
533.801	1	2
534.991	1	-6
536.182	1	2
537.373	1	-3
538.563	1	0
539.754	1	1
540.944	1	-5
542.134	1	4
543.325	1	0
544.515	1	1
545.705	1	-8
546.896	1	9
548.086	1	-6
549.276	1	-9
550.466	1	6
551.656	1	-4
552.846	1	5
554.036	1	-7
555.226	1	-8
556.416	1	-9
557.606	1	0
558.796	1	1
559.986	1	-1
561.175	1	5
562.365	1	-1
563.555	1	-9
564.744	1	2
565.934	1	8
567.123	1	4
568.313	1	7
569.502	1	0
570.692	1	6
571.881	1	7
573.070	1	10
574.260	1	6
575.449	1	-2
576.638	1	-6
577.827	1	-6
579.016	1	9
580.205	1	-2
581.394	1	-4
582.583	1	5
583.772	1	12
584.961	1	1
586.150	1	2
587.339	1	3
588.528	1	8
589.717	1	1
590.905	1	-5
592.094	1	-2
593.283	1	-1
594.471	1	13
595.660	1	-3
596.848	1	3
598.037	1	2
599.225	1	-12
600.413	1	4
601.602	1	8
602.790	1	-1
603.978	1	-1
605.166	1	5
606.355	1	0
607.543	1	-2
608.731	1	-2
609.919	1	5
611.107	1	6
612.295	1	-1
613.483	1	8
614.671	1	0
615.858	1	4
617.046	1	-7
618.234	1	-7
619.422	1	-6
620.609	1	-2
621.797	1	-2
622.985	1	-3
624.172	1	-1
625.360	1	4
626.547	1	-7
627.735	1	10
628.922	1	6
630.109	1	-11
631.297	1	-1
632.484	1	2
633.671	1	-6
634.858	1	-6
636.045	1	9
637.232	1	-8
638.419	1	-12
639.606	1	9
640.793	1	8
641.980	1	6
643.167	1	4
644.354	1	0
645.541	1	-5
646.728	1	-3
647.914	1	-2
649.101	1	-6
650.288	1	0
651.474	1	-1
652.661	1	-8
653.847	1	13
655.034	1	4
656.220	1	-1
657.406	1	4
658.593	1	7
659.779	1	-2
660.965	1	4
662.152	1	3
663.338	1	12
664.524	1	-6
665.710	1	7
666.896	1	-1
668.082	1	-4
669.268	1	-5
670.454	1	8
671.640	1	3
672.826	1	-6
674.011	1	1
675.197	1	-6
676.383	1	-7
677.569	1	3
678.754	1	-1
679.940	1	-1
681.125	1	3
682.311	1	-2
683.496	1	0
684.682	1	-14
685.867	1	0
687.053	1	1
688.238	1	1
688.746	1	-2

File: GaN_sample F_spot 12_UVVIS_200 K_200um_800 ms 2x2mm1_389.txt
340.368	1	1
341.565	1	-9
342.763	1	7
343.960	1	-1
345.157	1	-2
346.354	1	-6
347.552	1	-1
348.749	1	-7
349.946	1	-3
351.143	1	-5
352.340	1	9
353.537	1	-1
354.734	1	-4
355.931	1	-12
357.127	1	-2
358.324	1	4
359.521	1	2
360.718	1	1
361.914	1	4
363.111	1	-5
364.308	1	-1
365.504	1	8
366.701	1	5
367.897	1	11
369.093	1	7
370.290	1	16
371.486	1	16
372.682	1	11
373.879	1	5
375.075	1	6
376.271	1	14
377.467	1	4
378.663	1	-2
379.859	1	7
381.055	1	5
382.251	1	1
383.447	1	-2
384.643	1	3
385.839	1	1
387.035	1	8
388.230	1	8
389.426	1	-1
390.622	1	-6
391.817	1	6
393.013	1	-5
394.208	1	-2
395.404	1	-5
396.599	1	-10
397.795	1	-1
398.990	1	-7
400.186	1	0
401.381	1	-8
402.576	1	0
403.771	1	7
404.967	1	0
406.162	1	5
407.357	1	-5
408.552	1	-7
409.747	1	0
410.942	1	2
412.137	1	-4
413.332	1	0
414.526	1	4
415.721	1	-4
416.916	1	-8
418.111	1	4
419.305	1	-3
420.500	1	4
421.695	1	4
422.889	1	-12
424.084	1	2
425.278	1	-1
426.472	1	-4
427.667	1	6
428.861	1	1
430.055	1	1
431.250	1	-14
432.444	1	8
433.638	1	-1
434.832	1	0
436.026	1	-2
437.220	1	4
438.414	1	-12
439.608	1	-13
440.802	1	-3
441.996	1	-3
443.190	1	-3
444.384	1	-8
445.578	1	-7
446.771	1	2
447.965	1	7
449.159	1	-3
450.352	1	-1
451.546	1	2
452.739	1	4
453.933	1	-7
455.126	1	-13
456.320	1	3
457.513	1	3
458.706	1	-4
459.899	1	-6
461.093	1	-2
462.286	1	-4
463.479	1	5
464.672	1	-2
465.865	1	-4
467.058	1	5
468.251	1	-7
469.444	1	-9
470.637	1	-3
471.830	1	-10
473.023	1	2
474.215	1	6
475.408	1	-10
476.601	1	-6
477.793	1	-6
478.986	1	-2
480.179	1	-9
481.371	1	5
482.564	1	1
483.756	1	1
484.948	1	-3
486.141	1	-2
487.333	1	3
488.525	1	-6
489.718	1	-1
490.910	1	-2
492.102	1	-10
493.294	1	-1
494.486	1	2
495.678	1	0
496.870	1	-4
498.062	1	-1
499.254	1	-7
500.446	1	-9
501.638	1	-8
502.829	1	5
504.021	1	-3
505.213	1	-1
506.404	1	-2
507.596	1	4
508.788	1	13
509.979	1	-14
511.171	1	-5
512.362	1	3
513.553	1	-6
514.745	1	-1
515.936	1	3
517.127	1	-6
518.319	1	-1
519.510	1	-1
520.701	1	-3
521.892	1	7
523.083	1	-10
524.274	1	6
525.465	1	-2
526.656	1	-9
527.847	1	-3
529.038	1	-5
530.229	1	1
531.419	1	0
532.610	1	-3
533.801	1	7
534.991	1	-3
536.182	1	6
537.373	1	5
538.563	1	7
539.754	1	4
540.944	1	-6
542.134	1	8
543.325	1	-5
544.515	1	5
545.705	1	-7
546.896	1	0
548.086	1	-1
549.276	1	-2
550.466	1	1
551.656	1	3
552.846	1	3
554.036	1	-1
555.226	1	-1
556.416	1	-9
557.606	1	-2
558.796	1	-7
559.986	1	-7
561.175	1	-1
562.365	1	-1
563.555	1	-4
564.744	1	-3
565.934	1	12
567.123	1	8
568.313	1	-5
569.502	1	-4
570.692	1	10
571.881	1	-3
573.070	1	1
574.260	1	11
575.449	1	1
576.638	1	-7
577.827	1	-1
579.016	1	8
580.205	1	-1
581.394	1	1
582.583	1	3
583.772	1	9
584.961	1	0
586.150	1	-2
587.339	1	3
588.528	1	8
589.717	1	-1
590.905	1	1
592.094	1	4
593.283	1	-6
594.471	1	0
595.660	1	-6
596.848	1	10
598.037	1	5
599.225	1	-5
600.413	1	14
601.602	1	9
602.790	1	-2
603.978	1	0
605.166	1	8
606.355	1	8
607.543	1	-7
608.731	1	-3
609.919	1	1
611.107	1	4
612.295	1	-6
613.483	1	-1
614.671	1	12
615.858	1	9
617.046	1	7
618.234	1	-5
619.422	1	-11
620.609	1	2
621.797	1	-3
622.985	1	-5
624.172	1	-5
625.360	1	-5
626.547	1	-4
627.735	1	1
628.922	1	8
630.109	1	-11
631.297	1	-1
632.484	1	-3
633.671	1	-4
634.858	1	2
636.045	1	5
637.232	1	-2
638.419	1	-10
639.606	1	11
640.793	1	8
641.980	1	0
643.167	1	-8
644.354	1	1
645.541	1	-5
646.728	1	-2
647.914	1	-5
649.101	1	-4
650.288	1	1
651.474	1	-10
652.661	1	-2
653.847	1	8
655.034	1	-5
656.220	1	-14
657.406	1	8
658.593	1	-1
659.779	1	1
660.965	1	16
662.152	1	0
663.338	1	14
664.524	1	1
665.710	1	-2
666.896	1	-5
668.082	1	5
669.268	1	-5
670.454	1	3
671.640	1	-1
672.826	1	-7
674.011	1	3
675.197	1	0
676.383	1	-5
677.569	1	-1
678.754	1	-7
679.940	1	-4
681.125	1	0
682.311	1	-3
683.496	1	3
684.682	1	-7
685.867	1	-3
687.053	1	5
688.238	1	3
688.746	1	-3

File: GaN_sample F_spot 12_UVVIS_200 K_200um_800 ms 2x2mm1_390.txt
340.368	1	9
341.565	1	-11
342.763	1	-2
343.960	1	2
345.157	1	-4
346.354	1	4
347.552	1	-6
348.749	1	-7
349.946	1	-9
351.143	1	6
352.340	1	8
353.537	1	1
354.734	1	1
355.931	1	3
357.127	1	5
358.324	1	-7
359.521	1	14
360.718	1	2
361.914	1	14
363.111	1	9
364.308	1	-2
365.504	1	10
366.701	1	11
367.897	1	9
369.093	1	0
370.290	1	13
371.486	1	21
372.682	1	8
373.879	1	8
375.075	1	2
376.271	1	11
377.467	1	5
378.663	1	-5
379.859	1	0
381.055	1	8
382.251	1	4
383.447	1	-10
384.643	1	14
385.839	1	0
387.035	1	4
388.230	1	5
389.426	1	-11
390.622	1	0
391.817	1	8
393.013	1	-6
394.208	1	0
395.404	1	2
396.599	1	-5
397.795	1	5
398.990	1	3
400.186	1	1
401.381	1	-4
402.576	1	-9
403.771	1	-6
404.967	1	2
406.162	1	1
407.357	1	0
408.552	1	-7
409.747	1	-3
410.942	1	7
412.137	1	4
413.332	1	0
414.526	1	-7
415.721	1	-4
416.916	1	-14
418.111	1	3
419.305	1	0
420.500	1	-9
421.695	1	-7
422.889	1	-9
424.084	1	-3
425.278	1	1
426.472	1	0
427.667	1	1
428.861	1	4
430.055	1	0
431.250	1	2
432.444	1	0
433.638	1	1
434.832	1	2
436.026	1	5
437.220	1	2
438.414	1	-16
439.608	1	-13
440.802	1	-4
441.996	1	8
443.190	1	5
444.384	1	-14
445.578	1	-12
446.771	1	-2
447.965	1	-4
449.159	1	-11
450.352	1	-8
451.546	1	-4
452.739	1	-3
453.933	1	-11
455.126	1	-3
456.320	1	-4
457.513	1	2
458.706	1	-3
459.899	1	-2
461.093	1	4
462.286	1	-4
463.479	1	-6
464.672	1	-3
465.865	1	-2
467.058	1	1
468.251	1	-9
469.444	1	-6
470.637	1	-2
471.830	1	-1
473.023	1	-7
474.215	1	12
475.408	1	-6
476.601	1	-5
477.793	1	2
478.986	1	-4
480.179	1	4
481.371	1	4
482.564	1	-10
483.756	1	9
484.948	1	-7
486.141	1	-6
487.333	1	-9
488.525	1	-8
489.718	1	3
490.910	1	-4
492.102	1	-6
493.294	1	-4
494.486	1	5
495.678	1	0
496.870	1	-3
498.062	1	-2
499.254	1	-1
500.446	1	-13
501.638	1	-2
502.829	1	-3
504.021	1	3
505.213	1	-2
506.404	1	4
507.596	1	-1
508.788	1	11
509.979	1	-7
511.171	1	-8
512.362	1	-9
513.553	1	-15
514.745	1	0
515.936	1	2
517.127	1	-2
518.319	1	5
519.510	1	1
520.701	1	2
521.892	1	-2
523.083	1	1
524.274	1	-6
525.465	1	2
526.656	1	5
527.847	1	-3
529.038	1	-4
530.229	1	4
531.419	1	5
532.610	1	-2
533.801	1	10
534.991	1	5
536.182	1	-7
537.373	1	-5
538.563	1	5
539.754	1	1
540.944	1	-2
542.134	1	2
543.325	1	0
544.515	1	-5
545.705	1	1
546.896	1	-2
548.086	1	-6
549.276	1	-10
550.466	1	-3
551.656	1	-2
552.846	1	8
554.036	1	-6
555.226	1	-9
556.416	1	-9
557.606	1	2
558.796	1	-1
559.986	1	-4
561.175	1	-3
562.365	1	10
563.555	1	-3
564.744	1	4
565.934	1	12
567.123	1	-6
568.313	1	-2
569.502	1	-11
570.692	1	-5
571.881	1	20
573.070	1	-10
574.260	1	11
575.449	1	5
576.638	1	0
577.827	1	-8
579.016	1	2
580.205	1	1
581.394	1	-5
582.583	1	13
583.772	1	6
584.961	1	-2
586.150	1	-5
587.339	1	-3
588.528	1	6
589.717	1	4
590.905	1	3
592.094	1	-1
593.283	1	4
594.471	1	9
595.660	1	-4
596.848	1	-8
598.037	1	-4
599.225	1	-14
600.413	1	6
601.602	1	7
602.790	1	8
603.978	1	1
605.166	1	11
606.355	1	2
607.543	1	-2
608.731	1	2
609.919	1	12
611.107	1	-5
612.295	1	-14
613.483	1	-5
614.671	1	0
615.858	1	-1
617.046	1	3
618.234	1	-5
619.422	1	-16
620.609	1	1
621.797	1	-6
622.985	1	-2
624.172	1	-4
625.360	1	-2
626.547	1	-1
627.735	1	-3
628.922	1	6
630.109	1	-13
631.297	1	-3
632.484	1	-4
633.671	1	-6
634.858	1	0
636.045	1	10
637.232	1	-3
638.419	1	-6
639.606	1	3
640.793	1	8
641.980	1	3
643.167	1	-8
644.354	1	-7
645.541	1	4
646.728	1	0
647.914	1	-3
649.101	1	-9
650.288	1	2
651.474	1	-8
652.661	1	2
653.847	1	3
655.034	1	-1
656.220	1	-4
657.406	1	0
658.593	1	9
659.779	1	6
660.965	1	4
662.152	1	-2
663.338	1	7
664.524	1	-1
665.710	1	1
666.896	1	0
668.082	1	4
669.268	1	-5
670.454	1	6
671.640	1	11
672.826	1	-7
674.011	1	-8
675.197	1	-3
676.383	1	1
677.569	1	-1
678.754	1	2
679.940	1	-5
681.125	1	-6
682.311	1	2
683.496	1	4
684.682	1	4
685.867	1	-2
687.053	1	5
688.238	1	-2
688.746	1	-3

File: GaN_sample F_spot 12_UVVIS_200 K_200um_800 ms 2x2mm1_391.txt
340.368	1	0
341.565	1	-8
342.763	1	0
343.960	1	2
345.157	1	-3
346.354	1	1
347.552	1	-5
348.749	1	-4
349.946	1	-3
351.143	1	3
352.340	1	2
353.537	1	-6
354.734	1	1
355.931	1	2
357.127	1	-14
358.324	1	0
359.521	1	5
360.718	1	7
361.914	1	8
363.111	1	-4
364.308	1	-4
365.504	1	11
366.701	1	10
367.897	1	12
369.093	1	3
370.290	1	13
371.486	1	18
372.682	1	14
373.879	1	4
375.075	1	7
376.271	1	14
377.467	1	4
378.663	1	12
379.859	1	-6
381.055	1	7
382.251	1	-7
383.447	1	0
384.643	1	8
385.839	1	-2
387.035	1	5
388.230	1	11
389.426	1	-4
390.622	1	0
391.817	1	-3
393.013	1	-5
394.208	1	-5
395.404	1	-5
396.599	1	-9
397.795	1	-1
398.990	1	0
400.186	1	0
401.381	1	3
402.576	1	2
403.771	1	2
404.967	1	1
406.162	1	10
407.357	1	-1
408.552	1	-9
409.747	1	-3
410.942	1	9
412.137	1	-3
413.332	1	-2
414.526	1	1
415.721	1	-4
416.916	1	-6
418.111	1	1
419.305	1	0
420.500	1	-9
421.695	1	-6
422.889	1	-6
424.084	1	-5
425.278	1	7
426.472	1	-2
427.667	1	11
428.861	1	-8
430.055	1	1
431.250	1	-9
432.444	1	4
433.638	1	-6
434.832	1	2
436.026	1	1
437.220	1	0
438.414	1	-9
439.608	1	-9
440.802	1	-5
441.996	1	-1
443.190	1	-3
444.384	1	-8
445.578	1	-16
446.771	1	6
447.965	1	-4
449.159	1	-11
450.352	1	-3
451.546	1	3
452.739	1	-3
453.933	1	-2
455.126	1	-9
456.320	1	-6
457.513	1	9
458.706	1	1
459.899	1	-3
461.093	1	4
462.286	1	1
463.479	1	2
464.672	1	1
465.865	1	-3
467.058	1	-4
468.251	1	-4
469.444	1	-8
470.637	1	-1
471.830	1	-4
473.023	1	5
474.215	1	7
475.408	1	2
476.601	1	0
477.793	1	5
478.986	1	-9
480.179	1	-6
481.371	1	-8
482.564	1	4
483.756	1	7
484.948	1	-6
486.141	1	-1
487.333	1	5
488.525	1	0
489.718	1	1
490.910	1	10
492.102	1	-11
493.294	1	-3
494.486	1	0
495.678	1	1
496.870	1	4
498.062	1	-3
499.254	1	-6
500.446	1	0
501.638	1	2
502.829	1	-3
504.021	1	1
505.213	1	9
506.404	1	-3
507.596	1	6
508.788	1	8
509.979	1	-2
511.171	1	-7
512.362	1	-7
513.553	1	-20
514.745	1	-8
515.936	1	-3
517.127	1	-1
518.319	1	0
519.510	1	-2
520.701	1	3
521.892	1	2
523.083	1	-1
524.274	1	8
525.465	1	2
526.656	1	0
527.847	1	1
529.038	1	-1
530.229	1	-10
531.419	1	6
532.610	1	-8
533.801	1	9
534.991	1	-6
536.182	1	1
537.373	1	5
538.563	1	-1
539.754	1	7
540.944	1	-8
542.134	1	-3
543.325	1	-6
544.515	1	-4
545.705	1	-5
546.896	1	-10
548.086	1	-1
549.276	1	1
550.466	1	6
551.656	1	5
552.846	1	7
554.036	1	-4
555.226	1	-8
556.416	1	-6
557.606	1	7
558.796	1	-2
559.986	1	-9
561.175	1	5
562.365	1	8
563.555	1	-1
564.744	1	-2
565.934	1	9
567.123	1	0
568.313	1	5
569.502	1	-4
570.692	1	9
571.881	1	8
573.070	1	2
574.260	1	9
575.449	1	5
576.638	1	-3
577.827	1	-2
579.016	1	3
580.205	1	-2
581.394	1	0
582.583	1	5
583.772	1	5
584.961	1	-1
586.150	1	-4
587.339	1	-2
588.528	1	8
589.717	1	1
590.905	1	-12
592.094	1	0
593.283	1	-1
594.471	1	15
595.660	1	0
596.848	1	-3
598.037	1	-4
599.225	1	-2
600.413	1	5
601.602	1	10
602.790	1	-2
603.978	1	-1
605.166	1	-2
606.355	1	3
607.543	1	2
608.731	1	6
609.919	1	10
611.107	1	-4
612.295	1	-6
613.483	1	0
614.671	1	0
615.858	1	-2
617.046	1	4
618.234	1	7
619.422	1	-5
620.609	1	1
621.797	1	-1
622.985	1	-3
624.172	1	3
625.360	1	-3
626.547	1	-1
627.735	1	8
628.922	1	6
630.109	1	-4
631.297	1	-3
632.484	1	-9
633.671	1	-4
634.858	1	-4
636.045	1	12
637.232	1	-1
638.419	1	-10
639.606	1	2
640.793	1	4
641.980	1	12
643.167	1	-12
644.354	1	-8
645.541	1	-1
646.728	1	-1
647.914	1	2
649.101	1	-8
650.288	1	-1
651.474	1	3
652.661	1	-10
653.847	1	9
655.034	1	0
656.220	1	-10
657.406	1	9
658.593	1	14
659.779	1	-2
660.965	1	-2
662.152	1	1
663.338	1	9
664.524	1	-3
665.710	1	-2
666.896	1	-4
668.082	1	0
669.268	1	7
670.454	1	1
671.640	1	8
672.826	1	-8
674.011	1	7
675.197	1	2
676.383	1	1
677.569	1	4
678.754	1	1
679.940	1	-2
681.125	1	3
682.311	1	8
683.496	1	-1
684.682	1	-11
685.867	1	5
687.053	1	-5
688.238	1	4
688.746	1	2

File: GaN_sample F_spot 12_UVVIS_200 K_200um_800 ms 2x2mm1_398.txt
340.368	1	0
341.565	1	-8
342.763	1	9
343.960	1	2
345.157	1	-9
346.354	1	-14
347.552	1	-6
348.749	1	-11
349.946	1	-11
351.143	1	-3
352.340	1	-2
353.537	1	2
354.734	1	4
355.931	1	-5
357.127	1	-3
358.324	1	9
359.521	1	8
360.718	1	4
361.914	1	15
363.111	1	-2
364.308	1	3
365.504	1	8
366.701	1	10
367.897	1	11
369.093	1	4
370.290	1	3
371.486	1	14
372.682	1	16
373.879	1	7
375.075	1	6
376.271	1	7
377.467	1	15
378.663	1	-3
379.859	1	0
381.055	1	7
382.251	1	-4
383.447	1	-8
384.643	1	13
385.839	1	-4
387.035	1	3
388.230	1	11
389.426	1	-3
390.622	1	-4
391.817	1	5
393.013	1	-1
394.208	1	7
395.404	1	-5
396.599	1	-3
397.795	1	2
398.990	1	3
400.186	1	-9
401.381	1	-8
402.576	1	-3
403.771	1	-3
404.967	1	-3
406.162	1	-1
407.357	1	-3
408.552	1	-2
409.747	1	-2
410.942	1	1
412.137	1	6
413.332	1	2
414.526	1	-1
415.721	1	-9
416.916	1	-11
418.111	1	3
419.305	1	0
420.500	1	0
421.695	1	1
422.889	1	-3
424.084	1	2
425.278	1	7
426.472	1	-1
427.667	1	0
428.861	1	1
430.055	1	-5
431.250	1	3
432.444	1	9
433.638	1	-4
434.832	1	5
436.026	1	4
437.220	1	-2
438.414	1	-8
439.608	1	-4
440.802	1	-12
441.996	1	-4
443.190	1	-3
444.384	1	-2
445.578	1	-6
446.771	1	14
447.965	1	-7
449.159	1	-6
450.352	1	4
451.546	1	-2
452.739	1	1
453.933	1	-1
455.126	1	-7
456.320	1	-6
457.513	1	3
458.706	1	-1
459.899	1	-3
461.093	1	-1
462.286	1	-11
463.479	1	-4
464.672	1	4
465.865	1	-9
467.058	1	-2
468.251	1	4
469.444	1	-12
470.637	1	11
471.830	1	0
473.023	1	1
474.215	1	6
475.408	1	-5
476.601	1	4
477.793	1	-13
478.986	1	-6
480.179	1	0
481.371	1	-2
482.564	1	3
483.756	1	10
484.948	1	-13
486.141	1	-5
487.333	1	-1
488.525	1	-3
489.718	1	-5
490.910	1	4
492.102	1	-1
493.294	1	-2
494.486	1	2
495.678	1	-1
496.870	1	4
498.062	1	-6
499.254	1	-5
500.446	1	-9
501.638	1	-2
502.829	1	4
504.021	1	0
505.213	1	-3
506.404	1	-1
507.596	1	3
508.788	1	15
509.979	1	-9
511.171	1	-5
512.362	1	-1
513.553	1	-9
514.745	1	-3
515.936	1	-3
517.127	1	-5
518.319	1	-1
519.510	1	-1
520.701	1	2
521.892	1	4
523.083	1	-3
524.274	1	0
525.465	1	12
526.656	1	0
527.847	1	-1
529.038	1	5
530.229	1	6
531.419	1	13
532.610	1	-1
533.801	1	10
534.991	1	2
536.182	1	-10
537.373	1	-2
538.563	1	14
539.754	1	-2
540.944	1	1
542.134	1	5
543.325	1	3
544.515	1	1
545.705	1	3
546.896	1	7
548.086	1	-2
549.276	1	3
550.466	1	0
551.656	1	2
552.846	1	2
554.036	1	-8
555.226	1	-10
556.416	1	-5
557.606	1	5
558.796	1	4
559.986	1	-7
561.175	1	8
562.365	1	9
563.555	1	-4
564.744	1	1
565.934	1	7
567.123	1	-6
568.313	1	0
569.502	1	1
570.692	1	7
571.881	1	13
573.070	1	2
574.260	1	12
575.449	1	-5
576.638	1	-10
577.827	1	-2
579.016	1	13
580.205	1	0
581.394	1	-1
582.583	1	7
583.772	1	1
584.961	1	6
586.150	1	0
587.339	1	-3
588.528	1	9
589.717	1	6
590.905	1	1
592.094	1	-7
593.283	1	-6
594.471	1	11
595.660	1	-4
596.848	1	5
598.037	1	-3
599.225	1	-19
600.413	1	5
601.602	1	14
602.790	1	6
603.978	1	3
605.166	1	2
606.355	1	2
607.543	1	-2
608.731	1	-5
609.919	1	5
611.107	1	0
612.295	1	-3
613.483	1	8
614.671	1	1
615.858	1	5
617.046	1	10
618.234	1	5
619.422	1	-12
620.609	1	3
621.797	1	-7
622.985	1	-4
624.172	1	-1
625.360	1	2
626.547	1	7
627.735	1	-1
628.922	1	1
630.109	1	-14
631.297	1	-8
632.484	1	-3
633.671	1	-1
634.858	1	-4
636.045	1	9
637.232	1	-10
638.419	1	-9
639.606	1	10
640.793	1	19
641.980	1	10
643.167	1	-9
644.354	1	3
645.541	1	0
646.728	1	-6
647.914	1	-4
649.101	1	0
650.288	1	4
651.474	1	-5
652.661	1	-6
653.847	1	18
655.034	1	5
656.220	1	-12
657.406	1	3
658.593	1	9
659.779	1	-1
660.965	1	7
662.152	1	3
663.338	1	5
664.524	1	-3
665.710	1	-2
666.896	1	-6
668.082	1	-1
669.268	1	-4
670.454	1	-1
671.640	1	10
672.826	1	-3
674.011	1	-2
675.197	1	-7
676.383	1	6
677.569	1	-13
678.754	1	-1
679.940	1	-5
681.125	1	2
682.311	1	2
683.496	1	4
684.682	1	-2
685.867	1	-7
687.053	1	-2
688.238	1	0
688.746	1	5