Folder: cryo-il_analysis/Data/GaN_170K_550ms (part 19)

File: GaN_sample D_spot 18_UVVIS_170 K_200um_550 ms 2x2mm1_209.txt
340.368	1	-7
341.565	1	-5
342.763	1	2
343.960	1	-6
345.157	1	-6
346.354	1	-4
347.552	1	5
348.749	1	-1
349.946	1	7
351.143	1	3
352.340	1	-1
353.537	1	4
354.734	1	3
355.931	1	-2
357.127	1	1
358.324	1	15
359.521	1	4
360.718	1	6
361.914	1	9
363.111	1	15
364.308	1	16
365.504	1	16
366.701	1	21
367.897	1	21
369.093	1	2
370.290	1	24
371.486	1	8
372.682	1	21
373.879	1	19
375.075	1	17
376.271	1	11
377.467	1	14
378.663	1	4
379.859	1	6
381.055	1	12
382.251	1	5
383.447	1	0
384.643	1	6
385.839	1	-3
387.035	1	6
388.230	1	0
389.426	1	-2
390.622	1	-1
391.817	1	5
393.013	1	-4
394.208	1	11
395.404	1	5
396.599	1	3
397.795	1	-2
398.990	1	1
400.186	1	-6
401.381	1	9
402.576	1	-7
403.771	1	3
404.967	1	2
406.162	1	8
407.357	1	-7
408.552	1	9
409.747	1	-1
410.942	1	4
412.137	1	-5
413.332	1	-6
414.526	1	9
415.721	1	0
416.916	1	-11
418.111	1	14
419.305	1	4
420.500	1	-4
421.695	1	-13
422.889	1	-3
424.084	1	8
425.278	1	1
426.472	1	6
427.667	1	5
428.861	1	5
430.055	1	-1
431.250	1	10
432.444	1	7
433.638	1	5
434.832	1	9
436.026	1	-4
437.220	1	-4
438.414	1	-2
439.608	1	0
440.802	1	3
441.996	1	-4
443.190	1	1
444.384	1	-1
445.578	1	-3
446.771	1	-9
447.965	1	-5
449.159	1	-6
450.352	1	0
451.546	1	-14
452.739	1	6
453.933	1	1
455.126	1	1
456.320	1	1
457.513	1	9
458.706	1	5
459.899	1	-1
461.093	1	10
462.286	1	-8
463.479	1	-8
464.672	1	-4
465.865	1	3
467.058	1	8
468.251	1	-2
469.444	1	-2
470.637	1	-1
471.830	1	9
473.023	1	6
474.215	1	-2
475.408	1	-2
476.601	1	-5
477.793	1	0
478.986	1	4
480.179	1	-1
481.371	1	0
482.564	1	2
483.756	1	-5
484.948	1	-6
486.141	1	0
487.333	1	-6
488.525	1	7
489.718	1	12
490.910	1	6
492.102	1	3
493.294	1	-2
494.486	1	4
495.678	1	5
496.870	1	0
498.062	1	-7
499.254	1	3
500.446	1	-4
501.638	1	-4
502.829	1	7
504.021	1	6
505.213	1	-2
506.404	1	4
507.596	1	7
508.788	1	-6
509.979	1	5
511.171	1	8
512.362	1	1
513.553	1	9
514.745	1	3
515.936	1	1
517.127	1	0
518.319	1	3
519.510	1	2
520.701	1	5
521.892	1	10
523.083	1	-1
524.274	1	1
525.465	1	6
526.656	1	6
527.847	1	-1
529.038	1	1
530.229	1	7
531.419	1	11
532.610	1	2
533.801	1	8
534.991	1	-5
536.182	1	2
537.373	1	-3
538.563	1	10
539.754	1	6
540.944	1	1
542.134	1	0
543.325	1	-5
544.515	1	4
545.705	1	8
546.896	1	9
548.086	1	2
549.276	1	7
550.466	1	0
551.656	1	0
552.846	1	4
554.036	1	-1
555.226	1	-8
556.416	1	3
557.606	1	5
558.796	1	6
559.986	1	6
561.175	1	-3
562.365	1	3
563.555	1	4
564.744	1	4
565.934	1	6
567.123	1	-2
568.313	1	4
569.502	1	3
570.692	1	9
571.881	1	6
573.070	1	-4
574.260	1	3
575.449	1	4
576.638	1	-3
577.827	1	0
579.016	1	8
580.205	1	5
581.394	1	-7
582.583	1	-2
583.772	1	1
584.961	1	5
586.150	1	-4
587.339	1	0
588.528	1	-4
589.717	1	3
590.905	1	9
592.094	1	10
593.283	1	-3
594.471	1	6
595.660	1	3
596.848	1	4
598.037	1	1
599.225	1	6
600.413	1	-8
601.602	1	-2
602.790	1	11
603.978	1	5
605.166	1	4
606.355	1	9
607.543	1	9
608.731	1	0
609.919	1	-1
611.107	1	-7
612.295	1	6
613.483	1	-7
614.671	1	12
615.858	1	1
617.046	1	-8
618.234	1	4
619.422	1	-2
620.609	1	8
621.797	1	0
622.985	1	8
624.172	1	8
625.360	1	3
626.547	1	-5
627.735	1	-8
628.922	1	-5
630.109	1	0
631.297	1	6
632.484	1	-7
633.671	1	9
634.858	1	-1
636.045	1	6
637.232	1	2
638.419	1	-1
639.606	1	-5
640.793	1	3
641.980	1	1
643.167	1	2
644.354	1	0
645.541	1	10
646.728	1	0
647.914	1	-4
649.101	1	4
650.288	1	3
651.474	1	4
652.661	1	3
653.847	1	4
655.034	1	-4
656.220	1	6
657.406	1	0
658.593	1	-5
659.779	1	-4
660.965	1	11
662.152	1	3
663.338	1	-4
664.524	1	12
665.710	1	0
666.896	1	7
668.082	1	7
669.268	1	-3
670.454	1	-1
671.640	1	2
672.826	1	-2
674.011	1	6
675.197	1	7
676.383	1	5
677.569	1	-6
678.754	1	8
679.940	1	0
681.125	1	2
682.311	1	-1
683.496	1	3
684.682	1	4
685.867	1	5
687.053	1	-5
688.238	1	0
688.746	1	-4

File: GaN_sample D_spot 18_UVVIS_170 K_200um_550 ms 2x2mm1_210.txt
340.368	1	-6
341.565	1	-3
342.763	1	4
343.960	1	4
345.157	1	-4
346.354	1	-4
347.552	1	8
348.749	1	5
349.946	1	9
351.143	1	-4
352.340	1	0
353.537	1	4
354.734	1	6
355.931	1	9
357.127	1	-6
358.324	1	12
359.521	1	6
360.718	1	1
361.914	1	11
363.111	1	21
364.308	1	19
365.504	1	17
366.701	1	13
367.897	1	20
369.093	1	7
370.290	1	14
371.486	1	4
372.682	1	14
373.879	1	13
375.075	1	7
376.271	1	8
377.467	1	13
378.663	1	8
379.859	1	4
381.055	1	10
382.251	1	12
383.447	1	11
384.643	1	1
385.839	1	-7
387.035	1	6
388.230	1	8
389.426	1	4
390.622	1	-3
391.817	1	2
393.013	1	-5
394.208	1	9
395.404	1	4
396.599	1	-8
397.795	1	4
398.990	1	-11
400.186	1	-6
401.381	1	4
402.576	1	9
403.771	1	-2
404.967	1	14
406.162	1	4
407.357	1	-2
408.552	1	-1
409.747	1	-5
410.942	1	5
412.137	1	-12
413.332	1	-1
414.526	1	7
415.721	1	-15
416.916	1	-5
418.111	1	4
419.305	1	-6
420.500	1	-2
421.695	1	-10
422.889	1	-1
424.084	1	17
425.278	1	0
426.472	1	2
427.667	1	-5
428.861	1	-2
430.055	1	1
431.250	1	11
432.444	1	3
433.638	1	2
434.832	1	5
436.026	1	8
437.220	1	-8
438.414	1	-8
439.608	1	-6
440.802	1	6
441.996	1	-13
443.190	1	0
444.384	1	8
445.578	1	6
446.771	1	-19
447.965	1	11
449.159	1	3
450.352	1	-6
451.546	1	-8
452.739	1	-2
453.933	1	3
455.126	1	6
456.320	1	-5
457.513	1	9
458.706	1	4
459.899	1	4
461.093	1	5
462.286	1	-9
463.479	1	-1
464.672	1	4
465.865	1	3
467.058	1	-2
468.251	1	0
469.444	1	4
470.637	1	3
471.830	1	4
473.023	1	6
474.215	1	-3
475.408	1	-4
476.601	1	-1
477.793	1	4
478.986	1	2
480.179	1	-5
481.371	1	-3
482.564	1	-3
483.756	1	4
484.948	1	3
486.141	1	8
487.333	1	-5
488.525	1	13
489.718	1	0
490.910	1	2
492.102	1	3
493.294	1	-2
494.486	1	6
495.678	1	5
496.870	1	1
498.062	1	-8
499.254	1	9
500.446	1	-5
501.638	1	-10
502.829	1	2
504.021	1	4
505.213	1	-1
506.404	1	4
507.596	1	4
508.788	1	2
509.979	1	-5
511.171	1	2
512.362	1	-4
513.553	1	10
514.745	1	7
515.936	1	7
517.127	1	6
518.319	1	6
519.510	1	9
520.701	1	5
521.892	1	1
523.083	1	6
524.274	1	-1
525.465	1	11
526.656	1	8
527.847	1	-6
529.038	1	-6
530.229	1	12
531.419	1	6
532.610	1	7
533.801	1	19
534.991	1	-3
536.182	1	-1
537.373	1	-1
538.563	1	13
539.754	1	0
540.944	1	-10
542.134	1	0
543.325	1	7
544.515	1	1
545.705	1	13
546.896	1	5
548.086	1	6
549.276	1	2
550.466	1	8
551.656	1	5
552.846	1	-2
554.036	1	7
555.226	1	-2
556.416	1	7
557.606	1	0
558.796	1	0
559.986	1	11
561.175	1	-7
562.365	1	5
563.555	1	7
564.744	1	1
565.934	1	1
567.123	1	2
568.313	1	-3
569.502	1	5
570.692	1	9
571.881	1	0
573.070	1	6
574.260	1	12
575.449	1	5
576.638	1	8
577.827	1	1
579.016	1	3
580.205	1	3
581.394	1	11
582.583	1	1
583.772	1	0
584.961	1	-3
586.150	1	-7
587.339	1	10
588.528	1	0
589.717	1	9
590.905	1	5
592.094	1	13
593.283	1	0
594.471	1	6
595.660	1	2
596.848	1	4
598.037	1	0
599.225	1	10
600.413	1	0
601.602	1	0
602.790	1	17
603.978	1	11
605.166	1	8
606.355	1	8
607.543	1	9
608.731	1	4
609.919	1	3
611.107	1	0
612.295	1	0
613.483	1	-7
614.671	1	13
615.858	1	-1
617.046	1	-11
618.234	1	0
619.422	1	-2
620.609	1	2
621.797	1	0
622.985	1	9
624.172	1	3
625.360	1	0
626.547	1	0
627.735	1	-1
628.922	1	-13
630.109	1	-1
631.297	1	-4
632.484	1	-1
633.671	1	11
634.858	1	6
636.045	1	10
637.232	1	-1
638.419	1	-7
639.606	1	-7
640.793	1	-7
641.980	1	-4
643.167	1	-10
644.354	1	-1
645.541	1	2
646.728	1	6
647.914	1	1
649.101	1	11
650.288	1	-1
651.474	1	6
652.661	1	1
653.847	1	7
655.034	1	5
656.220	1	2
657.406	1	-1
658.593	1	-4
659.779	1	3
660.965	1	11
662.152	1	5
663.338	1	2
664.524	1	2
665.710	1	11
666.896	1	8
668.082	1	13
669.268	1	-5
670.454	1	-5
671.640	1	-2
672.826	1	-4
674.011	1	10
675.197	1	7
676.383	1	-4
677.569	1	-5
678.754	1	-3
679.940	1	13
681.125	1	0
682.311	1	3
683.496	1	13
684.682	1	-1
685.867	1	2
687.053	1	-8
688.238	1	-5
688.746	1	-2

File: GaN_sample D_spot 18_UVVIS_170 K_200um_550 ms 2x2mm1_213.txt
340.368	1	1
341.565	1	6
342.763	1	4
343.960	1	4
345.157	1	2
346.354	1	-8
347.552	1	6
348.749	1	9
349.946	1	1
351.143	1	-2
352.340	1	1
353.537	1	4
354.734	1	2
355.931	1	11
357.127	1	-1
358.324	1	3
359.521	1	7
360.718	1	3
361.914	1	-9
363.111	1	15
364.308	1	12
365.504	1	6
366.701	1	15
367.897	1	13
369.093	1	12
370.290	1	23
371.486	1	9
372.682	1	8
373.879	1	17
375.075	1	10
376.271	1	8
377.467	1	16
378.663	1	5
379.859	1	0
381.055	1	7
382.251	1	2
383.447	1	9
384.643	1	4
385.839	1	-7
387.035	1	2
388.230	1	2
389.426	1	6
390.622	1	-1
391.817	1	-6
393.013	1	-9
394.208	1	12
395.404	1	16
396.599	1	-1
397.795	1	7
398.990	1	-5
400.186	1	6
401.381	1	13
402.576	1	-1
403.771	1	7
404.967	1	1
406.162	1	10
407.357	1	2
408.552	1	-8
409.747	1	2
410.942	1	0
412.137	1	-9
413.332	1	3
414.526	1	3
415.721	1	1
416.916	1	1
418.111	1	4
419.305	1	7
420.500	1	0
421.695	1	-7
422.889	1	7
424.084	1	12
425.278	1	4
426.472	1	-1
427.667	1	12
428.861	1	3
430.055	1	-12
431.250	1	9
432.444	1	-4
433.638	1	13
434.832	1	7
436.026	1	2
437.220	1	-9
438.414	1	-8
439.608	1	-8
440.802	1	9
441.996	1	3
443.190	1	1
444.384	1	5
445.578	1	11
446.771	1	-2
447.965	1	0
449.159	1	-1
450.352	1	-7
451.546	1	-3
452.739	1	7
453.933	1	-1
455.126	1	11
456.320	1	-5
457.513	1	6
458.706	1	15
459.899	1	0
461.093	1	5
462.286	1	-8
463.479	1	-6
464.672	1	-10
465.865	1	6
467.058	1	2
468.251	1	-5
469.444	1	2
470.637	1	2
471.830	1	2
473.023	1	-3
474.215	1	2
475.408	1	-2
476.601	1	7
477.793	1	6
478.986	1	-3
480.179	1	-4
481.371	1	-2
482.564	1	-2
483.756	1	8
484.948	1	-4
486.141	1	17
487.333	1	-12
488.525	1	9
489.718	1	7
490.910	1	3
492.102	1	-3
493.294	1	2
494.486	1	11
495.678	1	3
496.870	1	2
498.062	1	1
499.254	1	7
500.446	1	3
501.638	1	0
502.829	1	6
504.021	1	5
505.213	1	-2
506.404	1	5
507.596	1	4
508.788	1	-1
509.979	1	2
511.171	1	7
512.362	1	3
513.553	1	1
514.745	1	0
515.936	1	4
517.127	1	10
518.319	1	7
519.510	1	7
520.701	1	2
521.892	1	-3
523.083	1	0
524.274	1	-2
525.465	1	12
526.656	1	6
527.847	1	8
529.038	1	7
530.229	1	6
531.419	1	3
532.610	1	6
533.801	1	5
534.991	1	-3
536.182	1	1
537.373	1	-3
538.563	1	1
539.754	1	4
540.944	1	5
542.134	1	3
543.325	1	4
544.515	1	2
545.705	1	-2
546.896	1	7
548.086	1	9
549.276	1	12
550.466	1	9
551.656	1	11
552.846	1	1
554.036	1	4
555.226	1	-1
556.416	1	8
557.606	1	8
558.796	1	-5
559.986	1	3
561.175	1	-2
562.365	1	-1
563.555	1	8
564.744	1	9
565.934	1	6
567.123	1	-1
568.313	1	-14
569.502	1	2
570.692	1	16
571.881	1	-3
573.070	1	0
574.260	1	6
575.449	1	2
576.638	1	7
577.827	1	4
579.016	1	7
580.205	1	0
581.394	1	5
582.583	1	1
583.772	1	0
584.961	1	-1
586.150	1	1
587.339	1	-6
588.528	1	-4
589.717	1	5
590.905	1	9
592.094	1	2
593.283	1	4
594.471	1	0
595.660	1	7
596.848	1	5
598.037	1	8
599.225	1	3
600.413	1	-8
601.602	1	6
602.790	1	19
603.978	1	13
605.166	1	-2
606.355	1	11
607.543	1	8
608.731	1	2
609.919	1	3
611.107	1	-5
612.295	1	3
613.483	1	-2
614.671	1	5
615.858	1	-3
617.046	1	-6
618.234	1	3
619.422	1	2
620.609	1	1
621.797	1	-2
622.985	1	2
624.172	1	4
625.360	1	1
626.547	1	-7
627.735	1	-5
628.922	1	-4
630.109	1	-4
631.297	1	-9
632.484	1	10
633.671	1	12
634.858	1	6
636.045	1	7
637.232	1	3
638.419	1	-8
639.606	1	-7
640.793	1	-1
641.980	1	1
643.167	1	0
644.354	1	3
645.541	1	3
646.728	1	6
647.914	1	-6
649.101	1	-1
650.288	1	0
651.474	1	6
652.661	1	1
653.847	1	2
655.034	1	5
656.220	1	2
657.406	1	12
658.593	1	5
659.779	1	-2
660.965	1	11
662.152	1	2
663.338	1	9
664.524	1	2
665.710	1	8
666.896	1	2
668.082	1	12
669.268	1	-3
670.454	1	-5
671.640	1	-3
672.826	1	-3
674.011	1	8
675.197	1	8
676.383	1	6
677.569	1	1
678.754	1	-6
679.940	1	7
681.125	1	5
682.311	1	6
683.496	1	9
684.682	1	4
685.867	1	2
687.053	1	-11
688.238	1	-11
688.746	1	-12

File: GaN_sample D_spot 18_UVVIS_170 K_200um_550 ms 2x2mm1_215.txt
340.368	1	-1
341.565	1	8
342.763	1	-8
343.960	1	5
345.157	1	-6
346.354	1	-2
347.552	1	9
348.749	1	4
349.946	1	2
351.143	1	4
352.340	1	12
353.537	1	4
354.734	1	9
355.931	1	3
357.127	1	-2
358.324	1	9
359.521	1	6
360.718	1	13
361.914	1	7
363.111	1	8
364.308	1	7
365.504	1	6
366.701	1	20
367.897	1	14
369.093	1	10
370.290	1	19
371.486	1	8
372.682	1	13
373.879	1	21
375.075	1	10
376.271	1	12
377.467	1	10
378.663	1	-2
379.859	1	8
381.055	1	5
382.251	1	-5
383.447	1	18
384.643	1	5
385.839	1	3
387.035	1	-1
388.230	1	7
389.426	1	4
390.622	1	-6
391.817	1	1
393.013	1	-3
394.208	1	10
395.404	1	9
396.599	1	9
397.795	1	-1
398.990	1	-6
400.186	1	0
401.381	1	18
402.576	1	-3
403.771	1	-1
404.967	1	2
406.162	1	7
407.357	1	-2
408.552	1	-2
409.747	1	3
410.942	1	5
412.137	1	-5
413.332	1	1
414.526	1	3
415.721	1	-1
416.916	1	-9
418.111	1	2
419.305	1	3
420.500	1	1
421.695	1	-8
422.889	1	0
424.084	1	20
425.278	1	8
426.472	1	2
427.667	1	0
428.861	1	-3
430.055	1	2
431.250	1	11
432.444	1	3
433.638	1	10
434.832	1	13
436.026	1	2
437.220	1	2
438.414	1	-9
439.608	1	2
440.802	1	4
441.996	1	-5
443.190	1	-4
444.384	1	-10
445.578	1	8
446.771	1	-8
447.965	1	7
449.159	1	-1
450.352	1	4
451.546	1	-1
452.739	1	9
453.933	1	2
455.126	1	16
456.320	1	-2
457.513	1	3
458.706	1	7
459.899	1	0
461.093	1	8
462.286	1	-8
463.479	1	-2
464.672	1	-7
465.865	1	-3
467.058	1	5
468.251	1	0
469.444	1	-1
470.637	1	1
471.830	1	-9
473.023	1	-2
474.215	1	4
475.408	1	-11
476.601	1	2
477.793	1	11
478.986	1	-1
480.179	1	-6
481.371	1	-3
482.564	1	0
483.756	1	4
484.948	1	-7
486.141	1	15
487.333	1	-3
488.525	1	6
489.718	1	5
490.910	1	6
492.102	1	-5
493.294	1	-1
494.486	1	4
495.678	1	7
496.870	1	-2
498.062	1	-2
499.254	1	14
500.446	1	0
501.638	1	-5
502.829	1	2
504.021	1	3
505.213	1	8
506.404	1	0
507.596	1	12
508.788	1	-2
509.979	1	0
511.171	1	2
512.362	1	-3
513.553	1	-11
514.745	1	-2
515.936	1	-6
517.127	1	10
518.319	1	10
519.510	1	2
520.701	1	12
521.892	1	-1
523.083	1	1
524.274	1	1
525.465	1	5
526.656	1	11
527.847	1	0
529.038	1	-3
530.229	1	16
531.419	1	8
532.610	1	8
533.801	1	-2
534.991	1	2
536.182	1	-2
537.373	1	1
538.563	1	4
539.754	1	-3
540.944	1	-4
542.134	1	3
543.325	1	9
544.515	1	4
545.705	1	7
546.896	1	10
548.086	1	1
549.276	1	-2
550.466	1	1
551.656	1	3
552.846	1	-1
554.036	1	-1
555.226	1	-12
556.416	1	2
557.606	1	-3
558.796	1	-6
559.986	1	3
561.175	1	2
562.365	1	5
563.555	1	2
564.744	1	4
565.934	1	4
567.123	1	5
568.313	1	2
569.502	1	7
570.692	1	8
571.881	1	-3
573.070	1	-5
574.260	1	5
575.449	1	8
576.638	1	6
577.827	1	2
579.016	1	7
580.205	1	-1
581.394	1	-1
582.583	1	-6
583.772	1	6
584.961	1	6
586.150	1	5
587.339	1	-4
588.528	1	1
589.717	1	11
590.905	1	4
592.094	1	6
593.283	1	1
594.471	1	4
595.660	1	-5
596.848	1	5
598.037	1	0
599.225	1	11
600.413	1	4
601.602	1	1
602.790	1	10
603.978	1	4
605.166	1	7
606.355	1	4
607.543	1	18
608.731	1	4
609.919	1	0
611.107	1	7
612.295	1	0
613.483	1	-4
614.671	1	10
615.858	1	-7
617.046	1	-9
618.234	1	-3
619.422	1	-10
620.609	1	10
621.797	1	8
622.985	1	4
624.172	1	6
625.360	1	7
626.547	1	1
627.735	1	-10
628.922	1	-8
630.109	1	5
631.297	1	-6
632.484	1	-4
633.671	1	8
634.858	1	2
636.045	1	3
637.232	1	4
638.419	1	-4
639.606	1	-6
640.793	1	4
641.980	1	-5
643.167	1	1
644.354	1	3
645.541	1	-1
646.728	1	7
647.914	1	6
649.101	1	1
650.288	1	1
651.474	1	13
652.661	1	-2
653.847	1	4
655.034	1	-8
656.220	1	-2
657.406	1	-7
658.593	1	3
659.779	1	7
660.965	1	8
662.152	1	9
663.338	1	4
664.524	1	-1
665.710	1	-4
666.896	1	-1
668.082	1	9
669.268	1	-8
670.454	1	-10
671.640	1	13
672.826	1	3
674.011	1	7
675.197	1	1
676.383	1	8
677.569	1	-5
678.754	1	8
679.940	1	7
681.125	1	11
682.311	1	2
683.496	1	3
684.682	1	9
685.867	1	1
687.053	1	-7
688.238	1	-4
688.746	1	-3

File: GaN_sample D_spot 18_UVVIS_170 K_200um_550 ms 2x2mm1_217.txt
340.368	1	-5
341.565	1	5
342.763	1	-2
343.960	1	-5
345.157	1	-3
346.354	1	1
347.552	1	13
348.749	1	8
349.946	1	9
351.143	1	0
352.340	1	3
353.537	1	7
354.734	1	3
355.931	1	3
357.127	1	7
358.324	1	7
359.521	1	8
360.718	1	9
361.914	1	6
363.111	1	29
364.308	1	9
365.504	1	13
366.701	1	9
367.897	1	14
369.093	1	6
370.290	1	6
371.486	1	12
372.682	1	16
373.879	1	18
375.075	1	6
376.271	1	6
377.467	1	12
378.663	1	9
379.859	1	4
381.055	1	3
382.251	1	-1
383.447	1	15
384.643	1	3
385.839	1	-3
387.035	1	4
388.230	1	1
389.426	1	4
390.622	1	9
391.817	1	7
393.013	1	2
394.208	1	14
395.404	1	10
396.599	1	-9
397.795	1	2
398.990	1	-5
400.186	1	-2
401.381	1	11
402.576	1	0
403.771	1	3
404.967	1	2
406.162	1	2
407.357	1	1
408.552	1	-1
409.747	1	-2
410.942	1	11
412.137	1	2
413.332	1	1
414.526	1	4
415.721	1	-2
416.916	1	-4
418.111	1	2
419.305	1	2
420.500	1	4
421.695	1	-3
422.889	1	0
424.084	1	11
425.278	1	2
426.472	1	1
427.667	1	-2
428.861	1	0
430.055	1	1
431.250	1	11
432.444	1	5
433.638	1	10
434.832	1	4
436.026	1	0
437.220	1	9
438.414	1	-5
439.608	1	-7
440.802	1	8
441.996	1	-3
443.190	1	4
444.384	1	-3
445.578	1	12
446.771	1	-14
447.965	1	-4
449.159	1	1
450.352	1	-11
451.546	1	-9
452.739	1	-1
453.933	1	6
455.126	1	13
456.320	1	1
457.513	1	5
458.706	1	6
459.899	1	1
461.093	1	12
462.286	1	-6
463.479	1	0
464.672	1	-10
465.865	1	5
467.058	1	4
468.251	1	5
469.444	1	10
470.637	1	1
471.830	1	4
473.023	1	0
474.215	1	4
475.408	1	-5
476.601	1	6
477.793	1	13
478.986	1	1
480.179	1	-2
481.371	1	-1
482.564	1	-7
483.756	1	0
484.948	1	1
486.141	1	10
487.333	1	-6
488.525	1	5
489.718	1	14
490.910	1	-4
492.102	1	2
493.294	1	2
494.486	1	7
495.678	1	6
496.870	1	2
498.062	1	-9
499.254	1	9
500.446	1	-2
501.638	1	-11
502.829	1	6
504.021	1	10
505.213	1	-4
506.404	1	0
507.596	1	10
508.788	1	-4
509.979	1	7
511.171	1	4
512.362	1	1
513.553	1	-5
514.745	1	-4
515.936	1	2
517.127	1	6
518.319	1	2
519.510	1	9
520.701	1	5
521.892	1	0
523.083	1	3
524.274	1	0
525.465	1	7
526.656	1	11
527.847	1	1
529.038	1	5
530.229	1	8
531.419	1	12
532.610	1	1
533.801	1	6
534.991	1	7
536.182	1	0
537.373	1	0
538.563	1	2
539.754	1	9
540.944	1	4
542.134	1	3
543.325	1	1
544.515	1	1
545.705	1	11
546.896	1	5
548.086	1	3
549.276	1	3
550.466	1	-1
551.656	1	7
552.846	1	6
554.036	1	7
555.226	1	-4
556.416	1	0
557.606	1	10
558.796	1	2
559.986	1	-1
561.175	1	-7
562.365	1	4
563.555	1	-6
564.744	1	-1
565.934	1	5
567.123	1	5
568.313	1	-3
569.502	1	1
570.692	1	12
571.881	1	-10
573.070	1	-2
574.260	1	7
575.449	1	0
576.638	1	10
577.827	1	0
579.016	1	5
580.205	1	-4
581.394	1	6
582.583	1	-1
583.772	1	-3
584.961	1	3
586.150	1	-1
587.339	1	-3
588.528	1	2
589.717	1	9
590.905	1	9
592.094	1	10
593.283	1	2
594.471	1	12
595.660	1	5
596.848	1	2
598.037	1	-7
599.225	1	6
600.413	1	-10
601.602	1	3
602.790	1	13
603.978	1	-2
605.166	1	11
606.355	1	1
607.543	1	7
608.731	1	0
609.919	1	-3
611.107	1	-3
612.295	1	-5
613.483	1	-3
614.671	1	12
615.858	1	-4
617.046	1	0
618.234	1	1
619.422	1	-6
620.609	1	7
621.797	1	-1
622.985	1	12
624.172	1	-1
625.360	1	2
626.547	1	-4
627.735	1	-10
628.922	1	-9
630.109	1	7
631.297	1	4
632.484	1	4
633.671	1	4
634.858	1	-1
636.045	1	1
637.232	1	17
638.419	1	-3
639.606	1	-3
640.793	1	-7
641.980	1	-5
643.167	1	1
644.354	1	-2
645.541	1	3
646.728	1	-1
647.914	1	11
649.101	1	-4
650.288	1	8
651.474	1	3
652.661	1	-1
653.847	1	-5
655.034	1	-8
656.220	1	9
657.406	1	3
658.593	1	0
659.779	1	2
660.965	1	8
662.152	1	8
663.338	1	6
664.524	1	2
665.710	1	3
666.896	1	0
668.082	1	14
669.268	1	-4
670.454	1	-7
671.640	1	7
672.826	1	-5
674.011	1	4
675.197	1	4
676.383	1	8
677.569	1	-6
678.754	1	0
679.940	1	14
681.125	1	9
682.311	1	7
683.496	1	-3
684.682	1	5
685.867	1	6
687.053	1	-10
688.238	1	-8
688.746	1	-3

File: GaN_sample D_spot 18_UVVIS_170 K_200um_550 ms 2x2mm1_220.txt
340.368	1	3
341.565	1	6
342.763	1	-3
343.960	1	-2
345.157	1	-3
346.354	1	-3
347.552	1	13
348.749	1	4
349.946	1	2
351.143	1	4
352.340	1	8
353.537	1	10
354.734	1	2
355.931	1	4
357.127	1	3
358.324	1	14
359.521	1	9
360.718	1	2
361.914	1	0
363.111	1	16
364.308	1	17
365.504	1	12
366.701	1	18
367.897	1	23
369.093	1	13
370.290	1	11
371.486	1	7
372.682	1	11
373.879	1	19
375.075	1	6
376.271	1	11
377.467	1	7
378.663	1	12
379.859	1	4
381.055	1	8
382.251	1	11
383.447	1	11
384.643	1	3
385.839	1	-1
387.035	1	-2
388.230	1	2
389.426	1	7
390.622	1	7
391.817	1	5
393.013	1	1
394.208	1	11
395.404	1	5
396.599	1	7
397.795	1	-7
398.990	1	-8
400.186	1	-11
401.381	1	12
402.576	1	4
403.771	1	-2
404.967	1	4
406.162	1	9
407.357	1	5
408.552	1	-3
409.747	1	-8
410.942	1	6
412.137	1	-7
413.332	1	-4
414.526	1	-4
415.721	1	-8
416.916	1	-5
418.111	1	7
419.305	1	-2
420.500	1	1
421.695	1	-2
422.889	1	-3
424.084	1	14
425.278	1	-1
426.472	1	4
427.667	1	9
428.861	1	0
430.055	1	0
431.250	1	14
432.444	1	1
433.638	1	9
434.832	1	13
436.026	1	-3
437.220	1	-2
438.414	1	-6
439.608	1	-3
440.802	1	9
441.996	1	-3
443.190	1	4
444.384	1	5
445.578	1	4
446.771	1	-11
447.965	1	0
449.159	1	7
450.352	1	5
451.546	1	-9
452.739	1	3
453.933	1	-1
455.126	1	2
456.320	1	-4
457.513	1	12
458.706	1	7
459.899	1	8
461.093	1	7
462.286	1	-5
463.479	1	-5
464.672	1	-2
465.865	1	1
467.058	1	3
468.251	1	-5
469.444	1	-3
470.637	1	1
471.830	1	-4
473.023	1	3
474.215	1	9
475.408	1	-8
476.601	1	8
477.793	1	4
478.986	1	-1
480.179	1	0
481.371	1	3
482.564	1	1
483.756	1	4
484.948	1	-3
486.141	1	11
487.333	1	-18
488.525	1	6
489.718	1	13
490.910	1	0
492.102	1	-4
493.294	1	4
494.486	1	16
495.678	1	0
496.870	1	1
498.062	1	2
499.254	1	4
500.446	1	-1
501.638	1	-2
502.829	1	8
504.021	1	11
505.213	1	2
506.404	1	9
507.596	1	6
508.788	1	-4
509.979	1	2
511.171	1	8
512.362	1	-3
513.553	1	1
514.745	1	3
515.936	1	5
517.127	1	4
518.319	1	3
519.510	1	17
520.701	1	5
521.892	1	6
523.083	1	4
524.274	1	6
525.465	1	2
526.656	1	14
527.847	1	2
529.038	1	-8
530.229	1	16
531.419	1	12
532.610	1	8
533.801	1	9
534.991	1	-2
536.182	1	2
537.373	1	5
538.563	1	2
539.754	1	8
540.944	1	10
542.134	1	4
543.325	1	5
544.515	1	7
545.705	1	7
546.896	1	2
548.086	1	4
549.276	1	4
550.466	1	7
551.656	1	0
552.846	1	-5
554.036	1	5
555.226	1	-7
556.416	1	-5
557.606	1	9
558.796	1	0
559.986	1	6
561.175	1	-7
562.365	1	6
563.555	1	4
564.744	1	8
565.934	1	7
567.123	1	4
568.313	1	-3
569.502	1	4
570.692	1	14
571.881	1	4
573.070	1	-3
574.260	1	-3
575.449	1	7
576.638	1	1
577.827	1	-7
579.016	1	1
580.205	1	-4
581.394	1	7
582.583	1	7
583.772	1	-5
584.961	1	-2
586.150	1	-11
587.339	1	1
588.528	1	0
589.717	1	7
590.905	1	10
592.094	1	-2
593.283	1	3
594.471	1	3
595.660	1	-2
596.848	1	3
598.037	1	-9
599.225	1	7
600.413	1	0
601.602	1	6
602.790	1	11
603.978	1	2
605.166	1	13
606.355	1	10
607.543	1	9
608.731	1	4
609.919	1	-7
611.107	1	-10
612.295	1	-9
613.483	1	-14
614.671	1	7
615.858	1	3
617.046	1	5
618.234	1	8
619.422	1	5
620.609	1	2
621.797	1	2
622.985	1	4
624.172	1	7
625.360	1	4
626.547	1	-3
627.735	1	-2
628.922	1	-6
630.109	1	-8
631.297	1	3
632.484	1	0
633.671	1	10
634.858	1	-3
636.045	1	7
637.232	1	3
638.419	1	-8
639.606	1	-7
640.793	1	-3
641.980	1	-4
643.167	1	2
644.354	1	0
645.541	1	-11
646.728	1	8
647.914	1	2
649.101	1	-4
650.288	1	7
651.474	1	-1
652.661	1	3
653.847	1	0
655.034	1	-4
656.220	1	-3
657.406	1	0
658.593	1	0
659.779	1	2
660.965	1	5
662.152	1	4
663.338	1	9
664.524	1	11
665.710	1	9
666.896	1	2
668.082	1	8
669.268	1	-1
670.454	1	-2
671.640	1	7
672.826	1	3
674.011	1	2
675.197	1	3
676.383	1	4
677.569	1	-3
678.754	1	10
679.940	1	2
681.125	1	4
682.311	1	9
683.496	1	3
684.682	1	2
685.867	1	-3
687.053	1	-10
688.238	1	-6
688.746	1	-10