Folder: cryo-il_analysis/Data/GaN_150K_450ms (part 22)

File: GaN_sample D_spot15_UVVIS_150 K_200um_450 ms 2x2mm1_179.txt
340.368	1	-3
341.565	1	3
342.763	1	5
343.960	1	2
345.157	1	15
346.354	1	4
347.552	1	11
348.749	1	15
349.946	1	8
351.143	1	7
352.340	1	9
353.537	1	-1
354.734	1	8
355.931	1	8
357.127	1	13
358.324	1	14
359.521	1	12
360.718	1	4
361.914	1	12
363.111	1	8
364.308	1	25
365.504	1	15
366.701	1	9
367.897	1	35
369.093	1	26
370.290	1	31
371.486	1	23
372.682	1	17
373.879	1	12
375.075	1	13
376.271	1	6
377.467	1	16
378.663	1	12
379.859	1	7
381.055	1	7
382.251	1	-2
383.447	1	5
384.643	1	8
385.839	1	4
387.035	1	13
388.230	1	4
389.426	1	-6
390.622	1	2
391.817	1	2
393.013	1	8
394.208	1	7
395.404	1	12
396.599	1	8
397.795	1	8
398.990	1	9
400.186	1	8
401.381	1	5
402.576	1	10
403.771	1	-2
404.967	1	5
406.162	1	0
407.357	1	7
408.552	1	-5
409.747	1	4
410.942	1	16
412.137	1	-2
413.332	1	0
414.526	1	1
415.721	1	10
416.916	1	0
418.111	1	10
419.305	1	9
420.500	1	9
421.695	1	14
422.889	1	11
424.084	1	4
425.278	1	9
426.472	1	6
427.667	1	9
428.861	1	13
430.055	1	12
431.250	1	12
432.444	1	12
433.638	1	9
434.832	1	5
436.026	1	3
437.220	1	16
438.414	1	12
439.608	1	10
440.802	1	2
441.996	1	4
443.190	1	10
444.384	1	17
445.578	1	5
446.771	1	10
447.965	1	4
449.159	1	5
450.352	1	-2
451.546	1	-2
452.739	1	6
453.933	1	3
455.126	1	-5
456.320	1	9
457.513	1	9
458.706	1	14
459.899	1	3
461.093	1	12
462.286	1	1
463.479	1	7
464.672	1	5
465.865	1	3
467.058	1	-1
468.251	1	-6
469.444	1	5
470.637	1	1
471.830	1	6
473.023	1	9
474.215	1	8
475.408	1	5
476.601	1	8
477.793	1	-6
478.986	1	7
480.179	1	2
481.371	1	-6
482.564	1	4
483.756	1	7
484.948	1	9
486.141	1	12
487.333	1	-9
488.525	1	-3
489.718	1	-7
490.910	1	5
492.102	1	9
493.294	1	-11
494.486	1	4
495.678	1	5
496.870	1	1
498.062	1	5
499.254	1	3
500.446	1	0
501.638	1	12
502.829	1	12
504.021	1	3
505.213	1	-1
506.404	1	5
507.596	1	19
508.788	1	5
509.979	1	3
511.171	1	16
512.362	1	14
513.553	1	10
514.745	1	-2
515.936	1	-12
517.127	1	12
518.319	1	12
519.510	1	5
520.701	1	10
521.892	1	11
523.083	1	-6
524.274	1	-1
525.465	1	10
526.656	1	11
527.847	1	-2
529.038	1	13
530.229	1	10
531.419	1	13
532.610	1	8
533.801	1	14
534.991	1	6
536.182	1	23
537.373	1	6
538.563	1	2
539.754	1	4
540.944	1	13
542.134	1	5
543.325	1	17
544.515	1	7
545.705	1	9
546.896	1	6
548.086	1	5
549.276	1	16
550.466	1	1
551.656	1	9
552.846	1	16
554.036	1	8
555.226	1	7
556.416	1	17
557.606	1	-1
558.796	1	14
559.986	1	7
561.175	1	4
562.365	1	-1
563.555	1	1
564.744	1	15
565.934	1	12
567.123	1	1
568.313	1	5
569.502	1	6
570.692	1	10
571.881	1	0
573.070	1	4
574.260	1	9
575.449	1	6
576.638	1	0
577.827	1	8
579.016	1	4
580.205	1	1
581.394	1	5
582.583	1	3
583.772	1	11
584.961	1	1
586.150	1	3
587.339	1	7
588.528	1	0
589.717	1	4
590.905	1	-9
592.094	1	2
593.283	1	6
594.471	1	-8
595.660	1	11
596.848	1	7
598.037	1	-1
599.225	1	-1
600.413	1	6
601.602	1	8
602.790	1	5
603.978	1	3
605.166	1	2
606.355	1	-7
607.543	1	1
608.731	1	-10
609.919	1	-7
611.107	1	9
612.295	1	8
613.483	1	3
614.671	1	5
615.858	1	-7
617.046	1	-4
618.234	1	0
619.422	1	17
620.609	1	2
621.797	1	1
622.985	1	4
624.172	1	-1
625.360	1	9
626.547	1	-2
627.735	1	1
628.922	1	8
630.109	1	-2
631.297	1	0
632.484	1	9
633.671	1	3
634.858	1	4
636.045	1	-1
637.232	1	3
638.419	1	5
639.606	1	14
640.793	1	-1
641.980	1	11
643.167	1	1
644.354	1	13
645.541	1	-2
646.728	1	11
647.914	1	-1
649.101	1	6
650.288	1	7
651.474	1	1
652.661	1	8
653.847	1	7
655.034	1	-1
656.220	1	-1
657.406	1	0
658.593	1	1
659.779	1	10
660.965	1	5
662.152	1	3
663.338	1	1
664.524	1	17
665.710	1	6
666.896	1	-1
668.082	1	9
669.268	1	-4
670.454	1	8
671.640	1	4
672.826	1	3
674.011	1	9
675.197	1	9
676.383	1	6
677.569	1	17
678.754	1	1
679.940	1	-1
681.125	1	-3
682.311	1	1
683.496	1	-1
684.682	1	12
685.867	1	-1
687.053	1	14
688.238	1	6
688.746	1	-5

File: GaN_sample D_spot15_UVVIS_150 K_200um_450 ms 2x2mm1_180.txt
340.368	1	6
341.565	1	3
342.763	1	-2
343.960	1	6
345.157	1	10
346.354	1	0
347.552	1	13
348.749	1	15
349.946	1	5
351.143	1	7
352.340	1	15
353.537	1	1
354.734	1	5
355.931	1	0
357.127	1	7
358.324	1	7
359.521	1	14
360.718	1	5
361.914	1	8
363.111	1	12
364.308	1	15
365.504	1	15
366.701	1	21
367.897	1	30
369.093	1	28
370.290	1	32
371.486	1	28
372.682	1	18
373.879	1	11
375.075	1	5
376.271	1	13
377.467	1	22
378.663	1	14
379.859	1	4
381.055	1	-1
382.251	1	1
383.447	1	8
384.643	1	1
385.839	1	4
387.035	1	6
388.230	1	9
389.426	1	2
390.622	1	3
391.817	1	0
393.013	1	6
394.208	1	-1
395.404	1	4
396.599	1	4
397.795	1	1
398.990	1	13
400.186	1	1
401.381	1	-1
402.576	1	0
403.771	1	5
404.967	1	10
406.162	1	1
407.357	1	4
408.552	1	5
409.747	1	3
410.942	1	24
412.137	1	0
413.332	1	3
414.526	1	-10
415.721	1	8
416.916	1	-2
418.111	1	9
419.305	1	11
420.500	1	3
421.695	1	9
422.889	1	4
424.084	1	8
425.278	1	9
426.472	1	14
427.667	1	4
428.861	1	16
430.055	1	10
431.250	1	14
432.444	1	13
433.638	1	17
434.832	1	5
436.026	1	2
437.220	1	10
438.414	1	8
439.608	1	9
440.802	1	10
441.996	1	4
443.190	1	4
444.384	1	11
445.578	1	-2
446.771	1	0
447.965	1	9
449.159	1	2
450.352	1	-6
451.546	1	5
452.739	1	6
453.933	1	0
455.126	1	-2
456.320	1	7
457.513	1	12
458.706	1	12
459.899	1	1
461.093	1	3
462.286	1	-2
463.479	1	3
464.672	1	3
465.865	1	1
467.058	1	4
468.251	1	-4
469.444	1	6
470.637	1	1
471.830	1	2
473.023	1	1
474.215	1	9
475.408	1	8
476.601	1	5
477.793	1	0
478.986	1	9
480.179	1	10
481.371	1	-4
482.564	1	9
483.756	1	17
484.948	1	9
486.141	1	7
487.333	1	0
488.525	1	4
489.718	1	0
490.910	1	8
492.102	1	3
493.294	1	2
494.486	1	0
495.678	1	-1
496.870	1	6
498.062	1	5
499.254	1	6
500.446	1	0
501.638	1	5
502.829	1	3
504.021	1	6
505.213	1	-3
506.404	1	11
507.596	1	9
508.788	1	4
509.979	1	6
511.171	1	10
512.362	1	9
513.553	1	6
514.745	1	6
515.936	1	-3
517.127	1	13
518.319	1	3
519.510	1	7
520.701	1	16
521.892	1	3
523.083	1	3
524.274	1	13
525.465	1	17
526.656	1	13
527.847	1	-1
529.038	1	13
530.229	1	12
531.419	1	1
532.610	1	13
533.801	1	9
534.991	1	2
536.182	1	5
537.373	1	10
538.563	1	6
539.754	1	0
540.944	1	4
542.134	1	7
543.325	1	15
544.515	1	12
545.705	1	6
546.896	1	8
548.086	1	11
549.276	1	15
550.466	1	-1
551.656	1	6
552.846	1	8
554.036	1	6
555.226	1	12
556.416	1	18
557.606	1	-5
558.796	1	17
559.986	1	12
561.175	1	-5
562.365	1	12
563.555	1	8
564.744	1	11
565.934	1	11
567.123	1	11
568.313	1	10
569.502	1	11
570.692	1	11
571.881	1	2
573.070	1	7
574.260	1	8
575.449	1	-2
576.638	1	17
577.827	1	2
579.016	1	3
580.205	1	0
581.394	1	4
582.583	1	7
583.772	1	11
584.961	1	-9
586.150	1	14
587.339	1	2
588.528	1	5
589.717	1	-1
590.905	1	11
592.094	1	9
593.283	1	12
594.471	1	1
595.660	1	5
596.848	1	13
598.037	1	-2
599.225	1	1
600.413	1	8
601.602	1	8
602.790	1	4
603.978	1	-4
605.166	1	10
606.355	1	-8
607.543	1	5
608.731	1	-7
609.919	1	-12
611.107	1	9
612.295	1	15
613.483	1	-2
614.671	1	6
615.858	1	-11
617.046	1	3
618.234	1	1
619.422	1	16
620.609	1	-4
621.797	1	14
622.985	1	-7
624.172	1	3
625.360	1	-6
626.547	1	-3
627.735	1	8
628.922	1	16
630.109	1	0
631.297	1	10
632.484	1	9
633.671	1	15
634.858	1	19
636.045	1	2
637.232	1	-1
638.419	1	-3
639.606	1	14
640.793	1	4
641.980	1	9
643.167	1	5
644.354	1	8
645.541	1	3
646.728	1	4
647.914	1	8
649.101	1	-7
650.288	1	5
651.474	1	3
652.661	1	11
653.847	1	2
655.034	1	3
656.220	1	3
657.406	1	-2
658.593	1	7
659.779	1	2
660.965	1	6
662.152	1	8
663.338	1	-4
664.524	1	6
665.710	1	8
666.896	1	6
668.082	1	5
669.268	1	6
670.454	1	4
671.640	1	6
672.826	1	6
674.011	1	14
675.197	1	15
676.383	1	0
677.569	1	13
678.754	1	7
679.940	1	-7
681.125	1	3
682.311	1	6
683.496	1	2
684.682	1	9
685.867	1	0
687.053	1	20
688.238	1	11
688.746	1	-6

File: GaN_sample D_spot15_UVVIS_150 K_200um_450 ms 2x2mm1_181.txt
340.368	1	-4
341.565	1	8
342.763	1	-2
343.960	1	4
345.157	1	4
346.354	1	4
347.552	1	12
348.749	1	2
349.946	1	4
351.143	1	2
352.340	1	5
353.537	1	-3
354.734	1	3
355.931	1	3
357.127	1	14
358.324	1	13
359.521	1	13
360.718	1	10
361.914	1	14
363.111	1	8
364.308	1	23
365.504	1	12
366.701	1	30
367.897	1	38
369.093	1	43
370.290	1	21
371.486	1	27
372.682	1	18
373.879	1	12
375.075	1	13
376.271	1	14
377.467	1	21
378.663	1	4
379.859	1	9
381.055	1	8
382.251	1	3
383.447	1	-4
384.643	1	9
385.839	1	6
387.035	1	15
388.230	1	11
389.426	1	-3
390.622	1	-3
391.817	1	-6
393.013	1	2
394.208	1	6
395.404	1	7
396.599	1	17
397.795	1	9
398.990	1	14
400.186	1	9
401.381	1	8
402.576	1	4
403.771	1	-6
404.967	1	14
406.162	1	3
407.357	1	8
408.552	1	-1
409.747	1	4
410.942	1	13
412.137	1	5
413.332	1	10
414.526	1	-4
415.721	1	11
416.916	1	-5
418.111	1	8
419.305	1	18
420.500	1	4
421.695	1	1
422.889	1	5
424.084	1	-2
425.278	1	3
426.472	1	19
427.667	1	9
428.861	1	15
430.055	1	15
431.250	1	14
432.444	1	3
433.638	1	9
434.832	1	3
436.026	1	8
437.220	1	9
438.414	1	13
439.608	1	3
440.802	1	10
441.996	1	3
443.190	1	17
444.384	1	17
445.578	1	-1
446.771	1	7
447.965	1	7
449.159	1	2
450.352	1	1
451.546	1	1
452.739	1	6
453.933	1	7
455.126	1	8
456.320	1	8
457.513	1	3
458.706	1	17
459.899	1	5
461.093	1	4
462.286	1	0
463.479	1	4
464.672	1	1
465.865	1	10
467.058	1	0
468.251	1	-4
469.444	1	4
470.637	1	7
471.830	1	6
473.023	1	12
474.215	1	7
475.408	1	9
476.601	1	5
477.793	1	1
478.986	1	8
480.179	1	8
481.371	1	-5
482.564	1	10
483.756	1	8
484.948	1	7
486.141	1	1
487.333	1	-5
488.525	1	-9
489.718	1	-6
490.910	1	7
492.102	1	3
493.294	1	1
494.486	1	-4
495.678	1	5
496.870	1	8
498.062	1	2
499.254	1	5
500.446	1	-5
501.638	1	7
502.829	1	-2
504.021	1	2
505.213	1	3
506.404	1	4
507.596	1	17
508.788	1	7
509.979	1	1
511.171	1	3
512.362	1	21
513.553	1	9
514.745	1	5
515.936	1	10
517.127	1	9
518.319	1	3
519.510	1	-3
520.701	1	12
521.892	1	12
523.083	1	3
524.274	1	-2
525.465	1	11
526.656	1	4
527.847	1	-3
529.038	1	10
530.229	1	8
531.419	1	10
532.610	1	15
533.801	1	16
534.991	1	6
536.182	1	8
537.373	1	5
538.563	1	3
539.754	1	13
540.944	1	3
542.134	1	10
543.325	1	6
544.515	1	5
545.705	1	1
546.896	1	15
548.086	1	14
549.276	1	11
550.466	1	0
551.656	1	7
552.846	1	4
554.036	1	13
555.226	1	4
556.416	1	18
557.606	1	-9
558.796	1	14
559.986	1	5
561.175	1	7
562.365	1	-4
563.555	1	13
564.744	1	11
565.934	1	11
567.123	1	8
568.313	1	5
569.502	1	8
570.692	1	4
571.881	1	-6
573.070	1	7
574.260	1	0
575.449	1	-3
576.638	1	21
577.827	1	7
579.016	1	1
580.205	1	14
581.394	1	2
582.583	1	-1
583.772	1	8
584.961	1	-6
586.150	1	4
587.339	1	2
588.528	1	-3
589.717	1	5
590.905	1	4
592.094	1	5
593.283	1	6
594.471	1	2
595.660	1	8
596.848	1	7
598.037	1	7
599.225	1	0
600.413	1	5
601.602	1	7
602.790	1	3
603.978	1	6
605.166	1	-1
606.355	1	-9
607.543	1	5
608.731	1	-4
609.919	1	-4
611.107	1	12
612.295	1	4
613.483	1	3
614.671	1	0
615.858	1	-4
617.046	1	-1
618.234	1	-7
619.422	1	11
620.609	1	-3
621.797	1	6
622.985	1	2
624.172	1	-1
625.360	1	3
626.547	1	3
627.735	1	-1
628.922	1	13
630.109	1	-4
631.297	1	-2
632.484	1	4
633.671	1	9
634.858	1	10
636.045	1	2
637.232	1	10
638.419	1	2
639.606	1	10
640.793	1	4
641.980	1	12
643.167	1	0
644.354	1	7
645.541	1	5
646.728	1	7
647.914	1	6
649.101	1	-1
650.288	1	5
651.474	1	5
652.661	1	14
653.847	1	7
655.034	1	4
656.220	1	5
657.406	1	5
658.593	1	9
659.779	1	4
660.965	1	-3
662.152	1	12
663.338	1	8
664.524	1	11
665.710	1	0
666.896	1	-1
668.082	1	13
669.268	1	2
670.454	1	12
671.640	1	0
672.826	1	2
674.011	1	8
675.197	1	2
676.383	1	7
677.569	1	12
678.754	1	9
679.940	1	-1
681.125	1	6
682.311	1	6
683.496	1	-1
684.682	1	10
685.867	1	9
687.053	1	16
688.238	1	8
688.746	1	-2

File: GaN_sample D_spot15_UVVIS_150 K_200um_450 ms 2x2mm1_183.txt
340.368	1	-1
341.565	1	10
342.763	1	9
343.960	1	10
345.157	1	12
346.354	1	2
347.552	1	9
348.749	1	9
349.946	1	-2
351.143	1	8
352.340	1	11
353.537	1	2
354.734	1	5
355.931	1	12
357.127	1	18
358.324	1	5
359.521	1	16
360.718	1	11
361.914	1	14
363.111	1	12
364.308	1	11
365.504	1	17
366.701	1	19
367.897	1	31
369.093	1	26
370.290	1	30
371.486	1	27
372.682	1	17
373.879	1	11
375.075	1	6
376.271	1	12
377.467	1	22
378.663	1	11
379.859	1	7
381.055	1	4
382.251	1	5
383.447	1	11
384.643	1	3
385.839	1	10
387.035	1	9
388.230	1	9
389.426	1	-6
390.622	1	0
391.817	1	-5
393.013	1	-1
394.208	1	2
395.404	1	8
396.599	1	10
397.795	1	6
398.990	1	9
400.186	1	6
401.381	1	3
402.576	1	0
403.771	1	-2
404.967	1	10
406.162	1	1
407.357	1	13
408.552	1	5
409.747	1	2
410.942	1	7
412.137	1	15
413.332	1	16
414.526	1	2
415.721	1	7
416.916	1	-2
418.111	1	18
419.305	1	12
420.500	1	8
421.695	1	7
422.889	1	11
424.084	1	12
425.278	1	0
426.472	1	13
427.667	1	0
428.861	1	8
430.055	1	12
431.250	1	7
432.444	1	0
433.638	1	21
434.832	1	2
436.026	1	-1
437.220	1	1
438.414	1	7
439.608	1	6
440.802	1	12
441.996	1	2
443.190	1	8
444.384	1	14
445.578	1	-9
446.771	1	2
447.965	1	0
449.159	1	-1
450.352	1	3
451.546	1	4
452.739	1	3
453.933	1	-3
455.126	1	12
456.320	1	12
457.513	1	0
458.706	1	10
459.899	1	2
461.093	1	5
462.286	1	-3
463.479	1	7
464.672	1	3
465.865	1	8
467.058	1	7
468.251	1	-1
469.444	1	9
470.637	1	5
471.830	1	3
473.023	1	2
474.215	1	6
475.408	1	5
476.601	1	-2
477.793	1	3
478.986	1	10
480.179	1	13
481.371	1	-4
482.564	1	10
483.756	1	9
484.948	1	13
486.141	1	9
487.333	1	-9
488.525	1	-3
489.718	1	-1
490.910	1	4
492.102	1	8
493.294	1	-13
494.486	1	4
495.678	1	1
496.870	1	7
498.062	1	0
499.254	1	-1
500.446	1	3
501.638	1	5
502.829	1	-1
504.021	1	11
505.213	1	3
506.404	1	7
507.596	1	16
508.788	1	5
509.979	1	0
511.171	1	13
512.362	1	4
513.553	1	12
514.745	1	-4
515.936	1	9
517.127	1	13
518.319	1	6
519.510	1	-1
520.701	1	8
521.892	1	8
523.083	1	8
524.274	1	13
525.465	1	20
526.656	1	20
527.847	1	-9
529.038	1	3
530.229	1	22
531.419	1	5
532.610	1	18
533.801	1	12
534.991	1	1
536.182	1	-5
537.373	1	7
538.563	1	8
539.754	1	8
540.944	1	5
542.134	1	4
543.325	1	15
544.515	1	2
545.705	1	4
546.896	1	16
548.086	1	6
549.276	1	7
550.466	1	4
551.656	1	5
552.846	1	3
554.036	1	20
555.226	1	4
556.416	1	11
557.606	1	-9
558.796	1	4
559.986	1	10
561.175	1	2
562.365	1	2
563.555	1	13
564.744	1	18
565.934	1	19
567.123	1	10
568.313	1	11
569.502	1	4
570.692	1	3
571.881	1	2
573.070	1	13
574.260	1	2
575.449	1	0
576.638	1	18
577.827	1	-1
579.016	1	9
580.205	1	5
581.394	1	4
582.583	1	8
583.772	1	3
584.961	1	4
586.150	1	-4
587.339	1	-1
588.528	1	1
589.717	1	2
590.905	1	2
592.094	1	17
593.283	1	3
594.471	1	2
595.660	1	9
596.848	1	13
598.037	1	-1
599.225	1	7
600.413	1	-5
601.602	1	3
602.790	1	7
603.978	1	1
605.166	1	5
606.355	1	-10
607.543	1	10
608.731	1	-6
609.919	1	-10
611.107	1	5
612.295	1	8
613.483	1	4
614.671	1	3
615.858	1	-5
617.046	1	2
618.234	1	-5
619.422	1	18
620.609	1	2
621.797	1	11
622.985	1	-5
624.172	1	6
625.360	1	-2
626.547	1	-4
627.735	1	7
628.922	1	7
630.109	1	-7
631.297	1	7
632.484	1	14
633.671	1	2
634.858	1	8
636.045	1	-4
637.232	1	13
638.419	1	-6
639.606	1	11
640.793	1	0
641.980	1	16
643.167	1	6
644.354	1	0
645.541	1	0
646.728	1	-3
647.914	1	-4
649.101	1	2
650.288	1	0
651.474	1	8
652.661	1	11
653.847	1	7
655.034	1	4
656.220	1	2
657.406	1	1
658.593	1	9
659.779	1	8
660.965	1	3
662.152	1	-2
663.338	1	-3
664.524	1	2
665.710	1	2
666.896	1	4
668.082	1	9
669.268	1	-1
670.454	1	2
671.640	1	7
672.826	1	5
674.011	1	8
675.197	1	2
676.383	1	-1
677.569	1	14
678.754	1	5
679.940	1	1
681.125	1	2
682.311	1	8
683.496	1	10
684.682	1	4
685.867	1	1
687.053	1	11
688.238	1	7
688.746	1	-2

File: GaN_sample D_spot15_UVVIS_150 K_200um_450 ms 2x2mm1_184.txt
340.368	1	-7
341.565	1	11
342.763	1	7
343.960	1	7
345.157	1	15
346.354	1	11
347.552	1	16
348.749	1	12
349.946	1	-2
351.143	1	12
352.340	1	10
353.537	1	-2
354.734	1	10
355.931	1	18
357.127	1	9
358.324	1	7
359.521	1	11
360.718	1	4
361.914	1	14
363.111	1	12
364.308	1	15
365.504	1	7
366.701	1	20
367.897	1	23
369.093	1	24
370.290	1	24
371.486	1	25
372.682	1	21
373.879	1	23
375.075	1	12
376.271	1	13
377.467	1	21
378.663	1	16
379.859	1	12
381.055	1	5
382.251	1	-4
383.447	1	17
384.643	1	5
385.839	1	12
387.035	1	9
388.230	1	1
389.426	1	9
390.622	1	-1
391.817	1	-3
393.013	1	8
394.208	1	3
395.404	1	7
396.599	1	2
397.795	1	6
398.990	1	16
400.186	1	4
401.381	1	-1
402.576	1	1
403.771	1	0
404.967	1	0
406.162	1	-13
407.357	1	11
408.552	1	3
409.747	1	0
410.942	1	12
412.137	1	-7
413.332	1	6
414.526	1	-5
415.721	1	12
416.916	1	5
418.111	1	15
419.305	1	12
420.500	1	-4
421.695	1	11
422.889	1	7
424.084	1	1
425.278	1	-1
426.472	1	15
427.667	1	12
428.861	1	11
430.055	1	5
431.250	1	7
432.444	1	7
433.638	1	7
434.832	1	2
436.026	1	2
437.220	1	13
438.414	1	8
439.608	1	10
440.802	1	3
441.996	1	9
443.190	1	15
444.384	1	6
445.578	1	12
446.771	1	8
447.965	1	7
449.159	1	0
450.352	1	-4
451.546	1	5
452.739	1	7
453.933	1	-3
455.126	1	5
456.320	1	6
457.513	1	3
458.706	1	9
459.899	1	4
461.093	1	11
462.286	1	3
463.479	1	4
464.672	1	3
465.865	1	-5
467.058	1	7
468.251	1	-6
469.444	1	7
470.637	1	7
471.830	1	8
473.023	1	2
474.215	1	4
475.408	1	4
476.601	1	3
477.793	1	4
478.986	1	10
480.179	1	3
481.371	1	1
482.564	1	8
483.756	1	12
484.948	1	12
486.141	1	-1
487.333	1	0
488.525	1	-8
489.718	1	0
490.910	1	15
492.102	1	13
493.294	1	-5
494.486	1	-4
495.678	1	-3
496.870	1	10
498.062	1	10
499.254	1	4
500.446	1	-6
501.638	1	6
502.829	1	6
504.021	1	0
505.213	1	-3
506.404	1	12
507.596	1	12
508.788	1	5
509.979	1	7
511.171	1	9
512.362	1	12
513.553	1	7
514.745	1	6
515.936	1	7
517.127	1	9
518.319	1	8
519.510	1	5
520.701	1	4
521.892	1	3
523.083	1	-3
524.274	1	11
525.465	1	12
526.656	1	7
527.847	1	-8
529.038	1	12
530.229	1	16
531.419	1	12
532.610	1	9
533.801	1	15
534.991	1	1
536.182	1	8
537.373	1	2
538.563	1	8
539.754	1	12
540.944	1	13
542.134	1	3
543.325	1	8
544.515	1	12
545.705	1	7
546.896	1	11
548.086	1	6
549.276	1	10
550.466	1	-1
551.656	1	8
552.846	1	13
554.036	1	21
555.226	1	8
556.416	1	12
557.606	1	-3
558.796	1	12
559.986	1	20
561.175	1	1
562.365	1	1
563.555	1	4
564.744	1	11
565.934	1	10
567.123	1	-3
568.313	1	3
569.502	1	10
570.692	1	12
571.881	1	1
573.070	1	13
574.260	1	6
575.449	1	0
576.638	1	12
577.827	1	0
579.016	1	4
580.205	1	3
581.394	1	9
582.583	1	15
583.772	1	13
584.961	1	-2
586.150	1	14
587.339	1	-1
588.528	1	3
589.717	1	9
590.905	1	-2
592.094	1	4
593.283	1	4
594.471	1	-2
595.660	1	3
596.848	1	4
598.037	1	-6
599.225	1	2
600.413	1	12
601.602	1	3
602.790	1	12
603.978	1	7
605.166	1	2
606.355	1	-3
607.543	1	6
608.731	1	-5
609.919	1	-8
611.107	1	8
612.295	1	8
613.483	1	6
614.671	1	13
615.858	1	-6
617.046	1	0
618.234	1	0
619.422	1	17
620.609	1	-1
621.797	1	0
622.985	1	0
624.172	1	3
625.360	1	2
626.547	1	5
627.735	1	-1
628.922	1	7
630.109	1	-4
631.297	1	1
632.484	1	7
633.671	1	6
634.858	1	10
636.045	1	-4
637.232	1	5
638.419	1	2
639.606	1	4
640.793	1	1
641.980	1	9
643.167	1	8
644.354	1	16
645.541	1	3
646.728	1	3
647.914	1	-2
649.101	1	-4
650.288	1	0
651.474	1	11
652.661	1	3
653.847	1	5
655.034	1	-4
656.220	1	16
657.406	1	10
658.593	1	13
659.779	1	0
660.965	1	5
662.152	1	8
663.338	1	4
664.524	1	4
665.710	1	5
666.896	1	8
668.082	1	8
669.268	1	-1
670.454	1	8
671.640	1	12
672.826	1	3
674.011	1	9
675.197	1	10
676.383	1	-1
677.569	1	5
678.754	1	9
679.940	1	-5
681.125	1	5
682.311	1	11
683.496	1	9
684.682	1	6
685.867	1	-3
687.053	1	14
688.238	1	10
688.746	1	-9

File: GaN_sample D_spot15_UVVIS_150 K_200um_450 ms 2x2mm1_187.txt
340.368	1	-4
341.565	1	3
342.763	1	9
343.960	1	1
345.157	1	9
346.354	1	7
347.552	1	19
348.749	1	11
349.946	1	-1
351.143	1	7
352.340	1	11
353.537	1	0
354.734	1	5
355.931	1	4
357.127	1	13
358.324	1	13
359.521	1	9
360.718	1	8
361.914	1	7
363.111	1	6
364.308	1	25
365.504	1	5
366.701	1	18
367.897	1	29
369.093	1	18
370.290	1	29
371.486	1	34
372.682	1	25
373.879	1	12
375.075	1	12
376.271	1	11
377.467	1	24
378.663	1	8
379.859	1	9
381.055	1	5
382.251	1	-4
383.447	1	7
384.643	1	0
385.839	1	1
387.035	1	15
388.230	1	8
389.426	1	4
390.622	1	0
391.817	1	1
393.013	1	11
394.208	1	10
395.404	1	12
396.599	1	4
397.795	1	2
398.990	1	5
400.186	1	4
401.381	1	5
402.576	1	8
403.771	1	2
404.967	1	13
406.162	1	1
407.357	1	15
408.552	1	-3
409.747	1	-2
410.942	1	16
412.137	1	16
413.332	1	17
414.526	1	-1
415.721	1	11
416.916	1	6
418.111	1	11
419.305	1	14
420.500	1	3
421.695	1	7
422.889	1	11
424.084	1	4
425.278	1	1
426.472	1	18
427.667	1	2
428.861	1	6
430.055	1	11
431.250	1	19
432.444	1	12
433.638	1	10
434.832	1	2
436.026	1	11
437.220	1	5
438.414	1	-2
439.608	1	1
440.802	1	7
441.996	1	2
443.190	1	10
444.384	1	12
445.578	1	5
446.771	1	4
447.965	1	-4
449.159	1	-1
450.352	1	1
451.546	1	8
452.739	1	-1
453.933	1	-9
455.126	1	2
456.320	1	12
457.513	1	3
458.706	1	14
459.899	1	-2
461.093	1	3
462.286	1	1
463.479	1	7
464.672	1	9
465.865	1	4
467.058	1	6
468.251	1	-2
469.444	1	6
470.637	1	5
471.830	1	2
473.023	1	0
474.215	1	5
475.408	1	0
476.601	1	-3
477.793	1	6
478.986	1	9
480.179	1	6
481.371	1	-3
482.564	1	2
483.756	1	5
484.948	1	5
486.141	1	-4
487.333	1	-3
488.525	1	-8
489.718	1	3
490.910	1	6
492.102	1	4
493.294	1	2
494.486	1	1
495.678	1	4
496.870	1	4
498.062	1	-1
499.254	1	5
500.446	1	10
501.638	1	7
502.829	1	0
504.021	1	2
505.213	1	-4
506.404	1	0
507.596	1	14
508.788	1	7
509.979	1	2
511.171	1	4
512.362	1	9
513.553	1	15
514.745	1	5
515.936	1	-1
517.127	1	13
518.319	1	-1
519.510	1	5
520.701	1	7
521.892	1	9
523.083	1	8
524.274	1	12
525.465	1	14
526.656	1	10
527.847	1	-4
529.038	1	6
530.229	1	12
531.419	1	9
532.610	1	0
533.801	1	7
534.991	1	-1
536.182	1	3
537.373	1	0
538.563	1	-1
539.754	1	-2
540.944	1	-1
542.134	1	3
543.325	1	19
544.515	1	3
545.705	1	5
546.896	1	3
548.086	1	2
549.276	1	-3
550.466	1	0
551.656	1	8
552.846	1	5
554.036	1	13
555.226	1	8
556.416	1	9
557.606	1	2
558.796	1	6
559.986	1	10
561.175	1	7
562.365	1	4
563.555	1	7
564.744	1	13
565.934	1	14
567.123	1	-1
568.313	1	-4
569.502	1	2
570.692	1	9
571.881	1	3
573.070	1	2
574.260	1	13
575.449	1	-3
576.638	1	16
577.827	1	-2
579.016	1	4
580.205	1	7
581.394	1	9
582.583	1	7
583.772	1	8
584.961	1	-6
586.150	1	3
587.339	1	1
588.528	1	6
589.717	1	8
590.905	1	-1
592.094	1	8
593.283	1	1
594.471	1	1
595.660	1	9
596.848	1	-4
598.037	1	0
599.225	1	-9
600.413	1	4
601.602	1	12
602.790	1	6
603.978	1	1
605.166	1	11
606.355	1	-10
607.543	1	8
608.731	1	-1
609.919	1	-8
611.107	1	3
612.295	1	8
613.483	1	-4
614.671	1	6
615.858	1	-6
617.046	1	-3
618.234	1	6
619.422	1	8
620.609	1	3
621.797	1	6
622.985	1	-1
624.172	1	6
625.360	1	3
626.547	1	-7
627.735	1	7
628.922	1	6
630.109	1	3
631.297	1	7
632.484	1	10
633.671	1	10
634.858	1	12
636.045	1	-5
637.232	1	6
638.419	1	3
639.606	1	11
640.793	1	12
641.980	1	12
643.167	1	9
644.354	1	4
645.541	1	5
646.728	1	5
647.914	1	6
649.101	1	-1
650.288	1	10
651.474	1	5
652.661	1	6
653.847	1	12
655.034	1	-3
656.220	1	-3
657.406	1	-3
658.593	1	4
659.779	1	5
660.965	1	8
662.152	1	9
663.338	1	8
664.524	1	7
665.710	1	0
666.896	1	-3
668.082	1	4
669.268	1	6
670.454	1	6
671.640	1	3
672.826	1	-5
674.011	1	12
675.197	1	8
676.383	1	-4
677.569	1	15
678.754	1	6
679.940	1	-10
681.125	1	3
682.311	1	13
683.496	1	-2
684.682	1	7
685.867	1	10
687.053	1	16
688.238	1	5
688.746	1	-1