Folder: cryo-il_analysis/Data/GaN_130K_350ms (part 4)

File: GaN_sample F_spot6_UVVIS_130 K_200um_350 ms 2x2mm1_111.txt
340.368	1	11
341.565	1	0
342.763	1	2
343.960	1	-17
345.157	1	-12
346.354	1	-6
347.552	1	3
348.749	1	7
349.946	1	22
351.143	1	5
352.340	1	6
353.537	1	6
354.734	1	7
355.931	1	15
357.127	1	20
358.324	1	19
359.521	1	7
360.718	1	33
361.914	1	32
363.111	1	46
364.308	1	70
365.504	1	65
366.701	1	84
367.897	1	88
369.093	1	86
370.290	1	74
371.486	1	75
372.682	1	62
373.879	1	54
375.075	1	56
376.271	1	37
377.467	1	38
378.663	1	25
379.859	1	30
381.055	1	28
382.251	1	24
383.447	1	21
384.643	1	22
385.839	1	25
387.035	1	30
388.230	1	18
389.426	1	19
390.622	1	18
391.817	1	26
393.013	1	21
394.208	1	3
395.404	1	0
396.599	1	17
397.795	1	10
398.990	1	13
400.186	1	4
401.381	1	5
402.576	1	17
403.771	1	14
404.967	1	7
406.162	1	7
407.357	1	10
408.552	1	-2
409.747	1	10
410.942	1	14
412.137	1	6
413.332	1	5
414.526	1	7
415.721	1	7
416.916	1	14
418.111	1	24
419.305	1	9
420.500	1	7
421.695	1	2
422.889	1	-1
424.084	1	17
425.278	1	5
426.472	1	4
427.667	1	9
428.861	1	6
430.055	1	-1
431.250	1	11
432.444	1	11
433.638	1	12
434.832	1	3
436.026	1	8
437.220	1	9
438.414	1	3
439.608	1	18
440.802	1	0
441.996	1	0
443.190	1	7
444.384	1	0
445.578	1	10
446.771	1	6
447.965	1	9
449.159	1	11
450.352	1	8
451.546	1	13
452.739	1	13
453.933	1	3
455.126	1	-3
456.320	1	8
457.513	1	0
458.706	1	8
459.899	1	-5
461.093	1	12
462.286	1	10
463.479	1	16
464.672	1	10
465.865	1	8
467.058	1	10
468.251	1	2
469.444	1	6
470.637	1	10
471.830	1	9
473.023	1	7
474.215	1	6
475.408	1	9
476.601	1	-2
477.793	1	3
478.986	1	11
480.179	1	3
481.371	1	17
482.564	1	2
483.756	1	14
484.948	1	9
486.141	1	4
487.333	1	10
488.525	1	10
489.718	1	16
490.910	1	14
492.102	1	14
493.294	1	18
494.486	1	25
495.678	1	0
496.870	1	13
498.062	1	0
499.254	1	23
500.446	1	24
501.638	1	15
502.829	1	17
504.021	1	15
505.213	1	19
506.404	1	22
507.596	1	22
508.788	1	20
509.979	1	15
511.171	1	27
512.362	1	18
513.553	1	29
514.745	1	30
515.936	1	26
517.127	1	36
518.319	1	20
519.510	1	27
520.701	1	27
521.892	1	25
523.083	1	33
524.274	1	26
525.465	1	36
526.656	1	43
527.847	1	34
529.038	1	23
530.229	1	31
531.419	1	32
532.610	1	32
533.801	1	38
534.991	1	38
536.182	1	31
537.373	1	29
538.563	1	41
539.754	1	21
540.944	1	30
542.134	1	26
543.325	1	31
544.515	1	16
545.705	1	34
546.896	1	24
548.086	1	28
549.276	1	25
550.466	1	39
551.656	1	26
552.846	1	11
554.036	1	26
555.226	1	28
556.416	1	25
557.606	1	14
558.796	1	23
559.986	1	22
561.175	1	16
562.365	1	21
563.555	1	23
564.744	1	20
565.934	1	20
567.123	1	15
568.313	1	9
569.502	1	15
570.692	1	22
571.881	1	15
573.070	1	10
574.260	1	20
575.449	1	13
576.638	1	4
577.827	1	11
579.016	1	14
580.205	1	8
581.394	1	3
582.583	1	9
583.772	1	12
584.961	1	15
586.150	1	12
587.339	1	8
588.528	1	17
589.717	1	5
590.905	1	7
592.094	1	13
593.283	1	2
594.471	1	6
595.660	1	9
596.848	1	8
598.037	1	15
599.225	1	10
600.413	1	26
601.602	1	1
602.790	1	4
603.978	1	4
605.166	1	17
606.355	1	14
607.543	1	8
608.731	1	5
609.919	1	15
611.107	1	5
612.295	1	20
613.483	1	5
614.671	1	11
615.858	1	-2
617.046	1	14
618.234	1	5
619.422	1	4
620.609	1	1
621.797	1	-2
622.985	1	13
624.172	1	4
625.360	1	-8
626.547	1	1
627.735	1	9
628.922	1	1
630.109	1	12
631.297	1	-3
632.484	1	-6
633.671	1	-9
634.858	1	4
636.045	1	18
637.232	1	-8
638.419	1	13
639.606	1	9
640.793	1	-16
641.980	1	-3
643.167	1	12
644.354	1	0
645.541	1	-6
646.728	1	7
647.914	1	8
649.101	1	4
650.288	1	7
651.474	1	6
652.661	1	-6
653.847	1	-1
655.034	1	0
656.220	1	10
657.406	1	-2
658.593	1	6
659.779	1	1
660.965	1	8
662.152	1	8
663.338	1	6
664.524	1	1
665.710	1	4
666.896	1	7
668.082	1	8
669.268	1	6
670.454	1	-8
671.640	1	1
672.826	1	-7
674.011	1	-3
675.197	1	11
676.383	1	7
677.569	1	-1
678.754	1	5
679.940	1	-7
681.125	1	15
682.311	1	-6
683.496	1	1
684.682	1	5
685.867	1	6
687.053	1	5
688.238	1	16
688.746	1	11

File: GaN_sample F_spot6_UVVIS_130 K_200um_350 ms 2x2mm1_112.txt
340.368	1	6
341.565	1	8
342.763	1	14
343.960	1	4
345.157	1	-11
346.354	1	4
347.552	1	8
348.749	1	5
349.946	1	10
351.143	1	4
352.340	1	20
353.537	1	10
354.734	1	6
355.931	1	9
357.127	1	18
358.324	1	13
359.521	1	9
360.718	1	23
361.914	1	21
363.111	1	46
364.308	1	58
365.504	1	75
366.701	1	77
367.897	1	68
369.093	1	81
370.290	1	76
371.486	1	66
372.682	1	46
373.879	1	51
375.075	1	50
376.271	1	43
377.467	1	40
378.663	1	38
379.859	1	30
381.055	1	19
382.251	1	21
383.447	1	24
384.643	1	39
385.839	1	30
387.035	1	35
388.230	1	13
389.426	1	16
390.622	1	15
391.817	1	24
393.013	1	20
394.208	1	10
395.404	1	1
396.599	1	23
397.795	1	6
398.990	1	12
400.186	1	7
401.381	1	15
402.576	1	4
403.771	1	17
404.967	1	12
406.162	1	9
407.357	1	19
408.552	1	12
409.747	1	9
410.942	1	11
412.137	1	-3
413.332	1	11
414.526	1	7
415.721	1	3
416.916	1	1
418.111	1	4
419.305	1	4
420.500	1	12
421.695	1	4
422.889	1	7
424.084	1	8
425.278	1	4
426.472	1	2
427.667	1	12
428.861	1	12
430.055	1	6
431.250	1	8
432.444	1	7
433.638	1	6
434.832	1	0
436.026	1	5
437.220	1	2
438.414	1	7
439.608	1	17
440.802	1	4
441.996	1	11
443.190	1	2
444.384	1	11
445.578	1	4
446.771	1	5
447.965	1	10
449.159	1	8
450.352	1	9
451.546	1	9
452.739	1	-1
453.933	1	8
455.126	1	2
456.320	1	1
457.513	1	0
458.706	1	8
459.899	1	4
461.093	1	8
462.286	1	5
463.479	1	10
464.672	1	11
465.865	1	8
467.058	1	22
468.251	1	5
469.444	1	4
470.637	1	13
471.830	1	6
473.023	1	8
474.215	1	10
475.408	1	11
476.601	1	0
477.793	1	6
478.986	1	0
480.179	1	4
481.371	1	6
482.564	1	-1
483.756	1	7
484.948	1	2
486.141	1	2
487.333	1	5
488.525	1	14
489.718	1	10
490.910	1	-2
492.102	1	15
493.294	1	22
494.486	1	21
495.678	1	4
496.870	1	21
498.062	1	14
499.254	1	13
500.446	1	18
501.638	1	14
502.829	1	22
504.021	1	15
505.213	1	27
506.404	1	24
507.596	1	24
508.788	1	20
509.979	1	29
511.171	1	22
512.362	1	33
513.553	1	27
514.745	1	15
515.936	1	22
517.127	1	23
518.319	1	36
519.510	1	17
520.701	1	27
521.892	1	36
523.083	1	33
524.274	1	26
525.465	1	22
526.656	1	44
527.847	1	29
529.038	1	26
530.229	1	42
531.419	1	32
532.610	1	35
533.801	1	46
534.991	1	34
536.182	1	42
537.373	1	32
538.563	1	34
539.754	1	35
540.944	1	37
542.134	1	21
543.325	1	34
544.515	1	33
545.705	1	30
546.896	1	18
548.086	1	28
549.276	1	32
550.466	1	21
551.656	1	18
552.846	1	24
554.036	1	18
555.226	1	34
556.416	1	30
557.606	1	28
558.796	1	22
559.986	1	13
561.175	1	23
562.365	1	15
563.555	1	18
564.744	1	22
565.934	1	8
567.123	1	8
568.313	1	17
569.502	1	5
570.692	1	24
571.881	1	2
573.070	1	9
574.260	1	22
575.449	1	16
576.638	1	6
577.827	1	6
579.016	1	18
580.205	1	1
581.394	1	3
582.583	1	15
583.772	1	22
584.961	1	2
586.150	1	18
587.339	1	17
588.528	1	8
589.717	1	12
590.905	1	14
592.094	1	7
593.283	1	-2
594.471	1	13
595.660	1	7
596.848	1	11
598.037	1	19
599.225	1	12
600.413	1	9
601.602	1	11
602.790	1	1
603.978	1	3
605.166	1	10
606.355	1	10
607.543	1	11
608.731	1	2
609.919	1	19
611.107	1	8
612.295	1	19
613.483	1	5
614.671	1	10
615.858	1	-4
617.046	1	13
618.234	1	9
619.422	1	6
620.609	1	-2
621.797	1	0
622.985	1	7
624.172	1	1
625.360	1	9
626.547	1	8
627.735	1	4
628.922	1	-5
630.109	1	10
631.297	1	0
632.484	1	-5
633.671	1	-6
634.858	1	7
636.045	1	13
637.232	1	1
638.419	1	8
639.606	1	8
640.793	1	-1
641.980	1	6
643.167	1	9
644.354	1	-1
645.541	1	0
646.728	1	15
647.914	1	-1
649.101	1	-6
650.288	1	11
651.474	1	3
652.661	1	3
653.847	1	2
655.034	1	2
656.220	1	8
657.406	1	2
658.593	1	9
659.779	1	3
660.965	1	1
662.152	1	10
663.338	1	7
664.524	1	0
665.710	1	4
666.896	1	11
668.082	1	3
669.268	1	6
670.454	1	7
671.640	1	-5
672.826	1	3
674.011	1	3
675.197	1	-5
676.383	1	1
677.569	1	1
678.754	1	10
679.940	1	-3
681.125	1	16
682.311	1	-4
683.496	1	0
684.682	1	-2
685.867	1	8
687.053	1	13
688.238	1	15
688.746	1	8

File: GaN_sample F_spot6_UVVIS_130 K_200um_350 ms 2x2mm1_113.txt
340.368	1	0
341.565	1	0
342.763	1	6
343.960	1	-5
345.157	1	-13
346.354	1	8
347.552	1	4
348.749	1	5
349.946	1	11
351.143	1	-1
352.340	1	11
353.537	1	5
354.734	1	4
355.931	1	10
357.127	1	12
358.324	1	17
359.521	1	19
360.718	1	26
361.914	1	25
363.111	1	47
364.308	1	61
365.504	1	54
366.701	1	73
367.897	1	81
369.093	1	70
370.290	1	72
371.486	1	65
372.682	1	60
373.879	1	46
375.075	1	49
376.271	1	29
377.467	1	37
378.663	1	32
379.859	1	22
381.055	1	13
382.251	1	23
383.447	1	20
384.643	1	23
385.839	1	25
387.035	1	33
388.230	1	12
389.426	1	24
390.622	1	19
391.817	1	22
393.013	1	13
394.208	1	17
395.404	1	-4
396.599	1	15
397.795	1	8
398.990	1	13
400.186	1	12
401.381	1	17
402.576	1	19
403.771	1	16
404.967	1	3
406.162	1	9
407.357	1	4
408.552	1	4
409.747	1	7
410.942	1	1
412.137	1	-3
413.332	1	0
414.526	1	2
415.721	1	7
416.916	1	3
418.111	1	8
419.305	1	-1
420.500	1	12
421.695	1	8
422.889	1	4
424.084	1	13
425.278	1	-9
426.472	1	4
427.667	1	3
428.861	1	-2
430.055	1	10
431.250	1	20
432.444	1	17
433.638	1	4
434.832	1	11
436.026	1	1
437.220	1	-1
438.414	1	5
439.608	1	24
440.802	1	-4
441.996	1	11
443.190	1	12
444.384	1	10
445.578	1	-9
446.771	1	12
447.965	1	6
449.159	1	6
450.352	1	5
451.546	1	10
452.739	1	17
453.933	1	11
455.126	1	-6
456.320	1	-5
457.513	1	0
458.706	1	8
459.899	1	4
461.093	1	15
462.286	1	13
463.479	1	9
464.672	1	12
465.865	1	-2
467.058	1	4
468.251	1	0
469.444	1	10
470.637	1	2
471.830	1	7
473.023	1	13
474.215	1	6
475.408	1	5
476.601	1	3
477.793	1	4
478.986	1	2
480.179	1	4
481.371	1	11
482.564	1	8
483.756	1	9
484.948	1	-3
486.141	1	5
487.333	1	11
488.525	1	5
489.718	1	7
490.910	1	8
492.102	1	15
493.294	1	19
494.486	1	24
495.678	1	8
496.870	1	17
498.062	1	6
499.254	1	23
500.446	1	20
501.638	1	15
502.829	1	15
504.021	1	10
505.213	1	22
506.404	1	26
507.596	1	17
508.788	1	22
509.979	1	10
511.171	1	35
512.362	1	9
513.553	1	30
514.745	1	29
515.936	1	34
517.127	1	24
518.319	1	21
519.510	1	32
520.701	1	20
521.892	1	32
523.083	1	34
524.274	1	19
525.465	1	31
526.656	1	38
527.847	1	37
529.038	1	26
530.229	1	42
531.419	1	42
532.610	1	25
533.801	1	52
534.991	1	33
536.182	1	35
537.373	1	37
538.563	1	43
539.754	1	15
540.944	1	38
542.134	1	25
543.325	1	35
544.515	1	20
545.705	1	17
546.896	1	21
548.086	1	17
549.276	1	17
550.466	1	38
551.656	1	17
552.846	1	21
554.036	1	21
555.226	1	17
556.416	1	23
557.606	1	20
558.796	1	31
559.986	1	20
561.175	1	21
562.365	1	20
563.555	1	26
564.744	1	24
565.934	1	20
567.123	1	16
568.313	1	7
569.502	1	13
570.692	1	17
571.881	1	12
573.070	1	15
574.260	1	22
575.449	1	11
576.638	1	-1
577.827	1	4
579.016	1	2
580.205	1	4
581.394	1	10
582.583	1	24
583.772	1	16
584.961	1	10
586.150	1	13
587.339	1	8
588.528	1	12
589.717	1	-4
590.905	1	16
592.094	1	1
593.283	1	-2
594.471	1	4
595.660	1	5
596.848	1	11
598.037	1	7
599.225	1	16
600.413	1	13
601.602	1	6
602.790	1	7
603.978	1	13
605.166	1	10
606.355	1	12
607.543	1	-2
608.731	1	11
609.919	1	14
611.107	1	9
612.295	1	10
613.483	1	8
614.671	1	1
615.858	1	-12
617.046	1	8
618.234	1	5
619.422	1	8
620.609	1	-6
621.797	1	5
622.985	1	18
624.172	1	-1
625.360	1	1
626.547	1	7
627.735	1	6
628.922	1	-2
630.109	1	10
631.297	1	1
632.484	1	-4
633.671	1	7
634.858	1	4
636.045	1	10
637.232	1	1
638.419	1	8
639.606	1	7
640.793	1	-5
641.980	1	0
643.167	1	4
644.354	1	4
645.541	1	9
646.728	1	10
647.914	1	1
649.101	1	-2
650.288	1	12
651.474	1	-5
652.661	1	6
653.847	1	6
655.034	1	3
656.220	1	-5
657.406	1	2
658.593	1	5
659.779	1	9
660.965	1	1
662.152	1	-4
663.338	1	7
664.524	1	0
665.710	1	15
666.896	1	4
668.082	1	0
669.268	1	0
670.454	1	5
671.640	1	-3
672.826	1	2
674.011	1	3
675.197	1	5
676.383	1	7
677.569	1	0
678.754	1	9
679.940	1	-3
681.125	1	11
682.311	1	-7
683.496	1	1
684.682	1	0
685.867	1	4
687.053	1	0
688.238	1	8
688.746	1	6

File: GaN_sample F_spot6_UVVIS_130 K_200um_350 ms 2x2mm1_114.txt
340.368	1	2
341.565	1	7
342.763	1	13
343.960	1	-14
345.157	1	3
346.354	1	-1
347.552	1	0
348.749	1	10
349.946	1	4
351.143	1	9
352.340	1	18
353.537	1	3
354.734	1	7
355.931	1	8
357.127	1	14
358.324	1	14
359.521	1	7
360.718	1	20
361.914	1	25
363.111	1	51
364.308	1	56
365.504	1	64
366.701	1	69
367.897	1	82
369.093	1	77
370.290	1	74
371.486	1	70
372.682	1	44
373.879	1	54
375.075	1	38
376.271	1	43
377.467	1	46
378.663	1	32
379.859	1	19
381.055	1	6
382.251	1	17
383.447	1	22
384.643	1	20
385.839	1	34
387.035	1	32
388.230	1	16
389.426	1	18
390.622	1	20
391.817	1	9
393.013	1	23
394.208	1	10
395.404	1	-1
396.599	1	15
397.795	1	14
398.990	1	7
400.186	1	10
401.381	1	13
402.576	1	10
403.771	1	13
404.967	1	14
406.162	1	4
407.357	1	3
408.552	1	3
409.747	1	1
410.942	1	14
412.137	1	7
413.332	1	-1
414.526	1	6
415.721	1	1
416.916	1	5
418.111	1	14
419.305	1	9
420.500	1	13
421.695	1	4
422.889	1	2
424.084	1	7
425.278	1	-4
426.472	1	6
427.667	1	15
428.861	1	9
430.055	1	4
431.250	1	16
432.444	1	22
433.638	1	12
434.832	1	8
436.026	1	12
437.220	1	8
438.414	1	9
439.608	1	10
440.802	1	-1
441.996	1	13
443.190	1	0
444.384	1	2
445.578	1	5
446.771	1	13
447.965	1	1
449.159	1	16
450.352	1	11
451.546	1	19
452.739	1	3
453.933	1	2
455.126	1	-1
456.320	1	6
457.513	1	-4
458.706	1	5
459.899	1	-1
461.093	1	6
462.286	1	11
463.479	1	16
464.672	1	7
465.865	1	-8
467.058	1	8
468.251	1	4
469.444	1	6
470.637	1	2
471.830	1	-3
473.023	1	2
474.215	1	0
475.408	1	14
476.601	1	9
477.793	1	-1
478.986	1	2
480.179	1	1
481.371	1	11
482.564	1	4
483.756	1	-1
484.948	1	5
486.141	1	18
487.333	1	0
488.525	1	8
489.718	1	13
490.910	1	3
492.102	1	23
493.294	1	10
494.486	1	27
495.678	1	6
496.870	1	20
498.062	1	5
499.254	1	23
500.446	1	16
501.638	1	12
502.829	1	12
504.021	1	18
505.213	1	33
506.404	1	13
507.596	1	8
508.788	1	9
509.979	1	20
511.171	1	31
512.362	1	28
513.553	1	34
514.745	1	6
515.936	1	36
517.127	1	32
518.319	1	24
519.510	1	16
520.701	1	33
521.892	1	25
523.083	1	21
524.274	1	12
525.465	1	34
526.656	1	33
527.847	1	20
529.038	1	26
530.229	1	35
531.419	1	30
532.610	1	26
533.801	1	40
534.991	1	21
536.182	1	26
537.373	1	42
538.563	1	33
539.754	1	19
540.944	1	26
542.134	1	23
543.325	1	14
544.515	1	29
545.705	1	27
546.896	1	29
548.086	1	18
549.276	1	21
550.466	1	32
551.656	1	26
552.846	1	23
554.036	1	17
555.226	1	29
556.416	1	20
557.606	1	25
558.796	1	26
559.986	1	16
561.175	1	24
562.365	1	20
563.555	1	16
564.744	1	25
565.934	1	14
567.123	1	13
568.313	1	14
569.502	1	13
570.692	1	23
571.881	1	8
573.070	1	14
574.260	1	15
575.449	1	16
576.638	1	9
577.827	1	-1
579.016	1	15
580.205	1	6
581.394	1	9
582.583	1	14
583.772	1	17
584.961	1	7
586.150	1	22
587.339	1	8
588.528	1	15
589.717	1	4
590.905	1	14
592.094	1	11
593.283	1	6
594.471	1	9
595.660	1	1
596.848	1	17
598.037	1	1
599.225	1	2
600.413	1	7
601.602	1	-2
602.790	1	2
603.978	1	3
605.166	1	16
606.355	1	11
607.543	1	6
608.731	1	2
609.919	1	7
611.107	1	3
612.295	1	8
613.483	1	2
614.671	1	10
615.858	1	2
617.046	1	8
618.234	1	6
619.422	1	1
620.609	1	-12
621.797	1	7
622.985	1	3
624.172	1	-3
625.360	1	4
626.547	1	-1
627.735	1	11
628.922	1	0
630.109	1	15
631.297	1	1
632.484	1	-16
633.671	1	3
634.858	1	18
636.045	1	15
637.232	1	2
638.419	1	20
639.606	1	11
640.793	1	-2
641.980	1	-6
643.167	1	6
644.354	1	-8
645.541	1	12
646.728	1	14
647.914	1	-4
649.101	1	7
650.288	1	13
651.474	1	-4
652.661	1	0
653.847	1	7
655.034	1	4
656.220	1	3
657.406	1	9
658.593	1	0
659.779	1	15
660.965	1	13
662.152	1	0
663.338	1	5
664.524	1	-3
665.710	1	2
666.896	1	14
668.082	1	7
669.268	1	4
670.454	1	-4
671.640	1	-1
672.826	1	4
674.011	1	1
675.197	1	3
676.383	1	-10
677.569	1	4
678.754	1	12
679.940	1	-11
681.125	1	11
682.311	1	-5
683.496	1	5
684.682	1	-2
685.867	1	13
687.053	1	9
688.238	1	9
688.746	1	6

File: GaN_sample F_spot6_UVVIS_130 K_200um_350 ms 2x2mm1_115.txt
340.368	1	1
341.565	1	6
342.763	1	7
343.960	1	-13
345.157	1	-7
346.354	1	1
347.552	1	0
348.749	1	7
349.946	1	11
351.143	1	3
352.340	1	15
353.537	1	3
354.734	1	7
355.931	1	5
357.127	1	12
358.324	1	14
359.521	1	13
360.718	1	30
361.914	1	26
363.111	1	48
364.308	1	52
365.504	1	61
366.701	1	74
367.897	1	71
369.093	1	74
370.290	1	71
371.486	1	53
372.682	1	45
373.879	1	51
375.075	1	45
376.271	1	34
377.467	1	36
378.663	1	43
379.859	1	25
381.055	1	19
382.251	1	15
383.447	1	14
384.643	1	24
385.839	1	20
387.035	1	16
388.230	1	5
389.426	1	21
390.622	1	16
391.817	1	12
393.013	1	14
394.208	1	5
395.404	1	-4
396.599	1	15
397.795	1	3
398.990	1	11
400.186	1	-1
401.381	1	16
402.576	1	16
403.771	1	12
404.967	1	15
406.162	1	-1
407.357	1	9
408.552	1	12
409.747	1	10
410.942	1	12
412.137	1	0
413.332	1	5
414.526	1	10
415.721	1	4
416.916	1	3
418.111	1	12
419.305	1	2
420.500	1	7
421.695	1	4
422.889	1	12
424.084	1	2
425.278	1	10
426.472	1	6
427.667	1	21
428.861	1	5
430.055	1	9
431.250	1	9
432.444	1	11
433.638	1	14
434.832	1	7
436.026	1	3
437.220	1	1
438.414	1	-1
439.608	1	14
440.802	1	3
441.996	1	12
443.190	1	14
444.384	1	3
445.578	1	3
446.771	1	5
447.965	1	2
449.159	1	-3
450.352	1	5
451.546	1	8
452.739	1	12
453.933	1	8
455.126	1	-4
456.320	1	0
457.513	1	0
458.706	1	9
459.899	1	8
461.093	1	14
462.286	1	-1
463.479	1	10
464.672	1	2
465.865	1	0
467.058	1	11
468.251	1	3
469.444	1	5
470.637	1	7
471.830	1	6
473.023	1	11
474.215	1	5
475.408	1	8
476.601	1	2
477.793	1	14
478.986	1	4
480.179	1	8
481.371	1	3
482.564	1	3
483.756	1	11
484.948	1	18
486.141	1	0
487.333	1	1
488.525	1	16
489.718	1	12
490.910	1	-2
492.102	1	18
493.294	1	18
494.486	1	19
495.678	1	6
496.870	1	13
498.062	1	11
499.254	1	18
500.446	1	15
501.638	1	11
502.829	1	17
504.021	1	20
505.213	1	18
506.404	1	20
507.596	1	23
508.788	1	11
509.979	1	19
511.171	1	24
512.362	1	22
513.553	1	26
514.745	1	13
515.936	1	31
517.127	1	30
518.319	1	20
519.510	1	18
520.701	1	22
521.892	1	35
523.083	1	28
524.274	1	36
525.465	1	27
526.656	1	35
527.847	1	24
529.038	1	24
530.229	1	34
531.419	1	23
532.610	1	36
533.801	1	47
534.991	1	31
536.182	1	36
537.373	1	33
538.563	1	35
539.754	1	16
540.944	1	39
542.134	1	23
543.325	1	22
544.515	1	23
545.705	1	18
546.896	1	28
548.086	1	18
549.276	1	15
550.466	1	24
551.656	1	22
552.846	1	24
554.036	1	17
555.226	1	24
556.416	1	25
557.606	1	12
558.796	1	20
559.986	1	18
561.175	1	29
562.365	1	17
563.555	1	22
564.744	1	28
565.934	1	19
567.123	1	13
568.313	1	11
569.502	1	14
570.692	1	10
571.881	1	7
573.070	1	9
574.260	1	11
575.449	1	22
576.638	1	11
577.827	1	8
579.016	1	13
580.205	1	0
581.394	1	9
582.583	1	14
583.772	1	3
584.961	1	11
586.150	1	9
587.339	1	6
588.528	1	19
589.717	1	7
590.905	1	10
592.094	1	4
593.283	1	0
594.471	1	5
595.660	1	14
596.848	1	14
598.037	1	4
599.225	1	8
600.413	1	12
601.602	1	5
602.790	1	8
603.978	1	9
605.166	1	11
606.355	1	9
607.543	1	7
608.731	1	10
609.919	1	9
611.107	1	6
612.295	1	7
613.483	1	6
614.671	1	9
615.858	1	-6
617.046	1	14
618.234	1	2
619.422	1	1
620.609	1	-6
621.797	1	1
622.985	1	0
624.172	1	4
625.360	1	3
626.547	1	-1
627.735	1	11
628.922	1	-1
630.109	1	12
631.297	1	8
632.484	1	-9
633.671	1	-7
634.858	1	8
636.045	1	11
637.232	1	-3
638.419	1	4
639.606	1	15
640.793	1	-4
641.980	1	-1
643.167	1	-4
644.354	1	2
645.541	1	2
646.728	1	4
647.914	1	1
649.101	1	-1
650.288	1	10
651.474	1	4
652.661	1	0
653.847	1	0
655.034	1	-5
656.220	1	-2
657.406	1	5
658.593	1	6
659.779	1	6
660.965	1	0
662.152	1	-6
663.338	1	-6
664.524	1	3
665.710	1	7
666.896	1	4
668.082	1	0
669.268	1	-7
670.454	1	6
671.640	1	-6
672.826	1	-2
674.011	1	11
675.197	1	3
676.383	1	5
677.569	1	4
678.754	1	0
679.940	1	-8
681.125	1	10
682.311	1	-8
683.496	1	6
684.682	1	13
685.867	1	4
687.053	1	10
688.238	1	14
688.746	1	10

File: GaN_sample F_spot6_UVVIS_130 K_200um_350 ms 2x2mm1_117.txt
340.368	1	0
341.565	1	-4
342.763	1	-3
343.960	1	-9
345.157	1	-6
346.354	1	4
347.552	1	-2
348.749	1	4
349.946	1	13
351.143	1	-2
352.340	1	17
353.537	1	-1
354.734	1	-3
355.931	1	14
357.127	1	14
358.324	1	21
359.521	1	9
360.718	1	24
361.914	1	29
363.111	1	49
364.308	1	45
365.504	1	64
366.701	1	74
367.897	1	75
369.093	1	72
370.290	1	67
371.486	1	53
372.682	1	45
373.879	1	49
375.075	1	56
376.271	1	36
377.467	1	36
378.663	1	36
379.859	1	20
381.055	1	25
382.251	1	22
383.447	1	19
384.643	1	24
385.839	1	26
387.035	1	32
388.230	1	8
389.426	1	18
390.622	1	21
391.817	1	18
393.013	1	19
394.208	1	8
395.404	1	8
396.599	1	15
397.795	1	12
398.990	1	15
400.186	1	7
401.381	1	12
402.576	1	11
403.771	1	13
404.967	1	6
406.162	1	10
407.357	1	5
408.552	1	1
409.747	1	4
410.942	1	13
412.137	1	8
413.332	1	6
414.526	1	12
415.721	1	10
416.916	1	-6
418.111	1	8
419.305	1	7
420.500	1	10
421.695	1	10
422.889	1	5
424.084	1	11
425.278	1	0
426.472	1	5
427.667	1	7
428.861	1	4
430.055	1	10
431.250	1	19
432.444	1	8
433.638	1	8
434.832	1	12
436.026	1	10
437.220	1	9
438.414	1	-1
439.608	1	10
440.802	1	-2
441.996	1	12
443.190	1	7
444.384	1	6
445.578	1	-7
446.771	1	13
447.965	1	6
449.159	1	-5
450.352	1	14
451.546	1	10
452.739	1	8
453.933	1	1
455.126	1	-6
456.320	1	7
457.513	1	-3
458.706	1	0
459.899	1	12
461.093	1	5
462.286	1	13
463.479	1	18
464.672	1	8
465.865	1	-1
467.058	1	14
468.251	1	14
469.444	1	11
470.637	1	3
471.830	1	6
473.023	1	-2
474.215	1	8
475.408	1	14
476.601	1	7
477.793	1	-3
478.986	1	6
480.179	1	9
481.371	1	16
482.564	1	2
483.756	1	0
484.948	1	13
486.141	1	10
487.333	1	9
488.525	1	7
489.718	1	13
490.910	1	-1
492.102	1	18
493.294	1	13
494.486	1	22
495.678	1	8
496.870	1	9
498.062	1	0
499.254	1	14
500.446	1	8
501.638	1	12
502.829	1	19
504.021	1	9
505.213	1	16
506.404	1	21
507.596	1	17
508.788	1	16
509.979	1	16
511.171	1	30
512.362	1	18
513.553	1	28
514.745	1	28
515.936	1	30
517.127	1	34
518.319	1	20
519.510	1	32
520.701	1	25
521.892	1	40
523.083	1	36
524.274	1	24
525.465	1	41
526.656	1	28
527.847	1	29
529.038	1	26
530.229	1	31
531.419	1	44
532.610	1	28
533.801	1	45
534.991	1	28
536.182	1	33
537.373	1	32
538.563	1	35
539.754	1	29
540.944	1	32
542.134	1	20
543.325	1	24
544.515	1	17
545.705	1	16
546.896	1	22
548.086	1	17
549.276	1	30
550.466	1	26
551.656	1	25
552.846	1	13
554.036	1	28
555.226	1	26
556.416	1	34
557.606	1	16
558.796	1	31
559.986	1	11
561.175	1	24
562.365	1	11
563.555	1	26
564.744	1	11
565.934	1	10
567.123	1	7
568.313	1	14
569.502	1	17
570.692	1	20
571.881	1	7
573.070	1	20
574.260	1	14
575.449	1	20
576.638	1	4
577.827	1	7
579.016	1	15
580.205	1	1
581.394	1	14
582.583	1	8
583.772	1	14
584.961	1	4
586.150	1	15
587.339	1	5
588.528	1	10
589.717	1	5
590.905	1	14
592.094	1	10
593.283	1	3
594.471	1	7
595.660	1	6
596.848	1	11
598.037	1	7
599.225	1	14
600.413	1	5
601.602	1	3
602.790	1	5
603.978	1	4
605.166	1	20
606.355	1	18
607.543	1	7
608.731	1	7
609.919	1	8
611.107	1	11
612.295	1	13
613.483	1	-1
614.671	1	9
615.858	1	2
617.046	1	16
618.234	1	11
619.422	1	7
620.609	1	1
621.797	1	8
622.985	1	10
624.172	1	4
625.360	1	6
626.547	1	6
627.735	1	10
628.922	1	-11
630.109	1	14
631.297	1	-1
632.484	1	-7
633.671	1	2
634.858	1	6
636.045	1	19
637.232	1	6
638.419	1	8
639.606	1	4
640.793	1	-7
641.980	1	5
643.167	1	-1
644.354	1	-7
645.541	1	4
646.728	1	5
647.914	1	-3
649.101	1	-6
650.288	1	13
651.474	1	-3
652.661	1	6
653.847	1	-4
655.034	1	8
656.220	1	2
657.406	1	8
658.593	1	-1
659.779	1	-3
660.965	1	3
662.152	1	5
663.338	1	-1
664.524	1	8
665.710	1	2
666.896	1	9
668.082	1	6
669.268	1	6
670.454	1	7
671.640	1	0
672.826	1	4
674.011	1	10
675.197	1	-1
676.383	1	2
677.569	1	6
678.754	1	12
679.940	1	2
681.125	1	11
682.311	1	-1
683.496	1	-6
684.682	1	4
685.867	1	10
687.053	1	6
688.238	1	13
688.746	1	9