Folder: cryo-il_analysis/Data/GaN_150K_450ms (part 27)

File: GaN_sample D_spot15_UVVIS_150 K_200um_450 ms 2x2mm1_244.txt
340.368	1	1
341.565	1	11
342.763	1	5
343.960	1	1
345.157	1	6
346.354	1	6
347.552	1	9
348.749	1	9
349.946	1	1
351.143	1	5
352.340	1	9
353.537	1	-1
354.734	1	1
355.931	1	0
357.127	1	4
358.324	1	14
359.521	1	3
360.718	1	3
361.914	1	8
363.111	1	3
364.308	1	2
365.504	1	7
366.701	1	2
367.897	1	16
369.093	1	15
370.290	1	11
371.486	1	17
372.682	1	11
373.879	1	4
375.075	1	-2
376.271	1	-2
377.467	1	16
378.663	1	9
379.859	1	6
381.055	1	4
382.251	1	1
383.447	1	4
384.643	1	5
385.839	1	14
387.035	1	5
388.230	1	7
389.426	1	2
390.622	1	-2
391.817	1	-6
393.013	1	3
394.208	1	-5
395.404	1	5
396.599	1	7
397.795	1	-8
398.990	1	7
400.186	1	3
401.381	1	0
402.576	1	0
403.771	1	-7
404.967	1	0
406.162	1	-3
407.357	1	8
408.552	1	-1
409.747	1	3
410.942	1	16
412.137	1	4
413.332	1	2
414.526	1	-4
415.721	1	11
416.916	1	-3
418.111	1	10
419.305	1	3
420.500	1	4
421.695	1	10
422.889	1	0
424.084	1	-1
425.278	1	4
426.472	1	8
427.667	1	2
428.861	1	4
430.055	1	1
431.250	1	12
432.444	1	0
433.638	1	10
434.832	1	2
436.026	1	-1
437.220	1	4
438.414	1	8
439.608	1	-2
440.802	1	-2
441.996	1	8
443.190	1	6
444.384	1	12
445.578	1	2
446.771	1	10
447.965	1	9
449.159	1	2
450.352	1	-8
451.546	1	-5
452.739	1	3
453.933	1	-8
455.126	1	6
456.320	1	10
457.513	1	7
458.706	1	11
459.899	1	-1
461.093	1	-2
462.286	1	-3
463.479	1	0
464.672	1	10
465.865	1	-5
467.058	1	-2
468.251	1	-7
469.444	1	6
470.637	1	5
471.830	1	-1
473.023	1	2
474.215	1	-3
475.408	1	3
476.601	1	0
477.793	1	-9
478.986	1	1
480.179	1	-3
481.371	1	-6
482.564	1	9
483.756	1	6
484.948	1	7
486.141	1	2
487.333	1	-1
488.525	1	-3
489.718	1	-7
490.910	1	5
492.102	1	-4
493.294	1	-10
494.486	1	7
495.678	1	0
496.870	1	5
498.062	1	-3
499.254	1	-11
500.446	1	-10
501.638	1	-1
502.829	1	-3
504.021	1	6
505.213	1	-2
506.404	1	2
507.596	1	6
508.788	1	3
509.979	1	-2
511.171	1	5
512.362	1	8
513.553	1	2
514.745	1	9
515.936	1	0
517.127	1	5
518.319	1	-2
519.510	1	-6
520.701	1	13
521.892	1	5
523.083	1	-6
524.274	1	1
525.465	1	10
526.656	1	9
527.847	1	-10
529.038	1	5
530.229	1	19
531.419	1	3
532.610	1	17
533.801	1	10
534.991	1	3
536.182	1	2
537.373	1	2
538.563	1	-7
539.754	1	7
540.944	1	5
542.134	1	6
543.325	1	11
544.515	1	6
545.705	1	3
546.896	1	8
548.086	1	-1
549.276	1	8
550.466	1	6
551.656	1	7
552.846	1	5
554.036	1	10
555.226	1	9
556.416	1	10
557.606	1	-3
558.796	1	8
559.986	1	11
561.175	1	-4
562.365	1	-6
563.555	1	0
564.744	1	2
565.934	1	10
567.123	1	-1
568.313	1	6
569.502	1	7
570.692	1	2
571.881	1	-4
573.070	1	3
574.260	1	5
575.449	1	-2
576.638	1	1
577.827	1	-5
579.016	1	1
580.205	1	-5
581.394	1	-1
582.583	1	7
583.772	1	8
584.961	1	-4
586.150	1	-4
587.339	1	6
588.528	1	-4
589.717	1	7
590.905	1	8
592.094	1	4
593.283	1	2
594.471	1	-5
595.660	1	8
596.848	1	10
598.037	1	2
599.225	1	4
600.413	1	1
601.602	1	9
602.790	1	-4
603.978	1	-2
605.166	1	9
606.355	1	-8
607.543	1	-2
608.731	1	-7
609.919	1	-1
611.107	1	4
612.295	1	6
613.483	1	7
614.671	1	3
615.858	1	-15
617.046	1	-1
618.234	1	-6
619.422	1	14
620.609	1	2
621.797	1	1
622.985	1	1
624.172	1	4
625.360	1	-7
626.547	1	-6
627.735	1	3
628.922	1	4
630.109	1	5
631.297	1	7
632.484	1	7
633.671	1	6
634.858	1	-5
636.045	1	-5
637.232	1	8
638.419	1	-8
639.606	1	7
640.793	1	1
641.980	1	6
643.167	1	5
644.354	1	4
645.541	1	0
646.728	1	7
647.914	1	2
649.101	1	-6
650.288	1	-3
651.474	1	4
652.661	1	2
653.847	1	11
655.034	1	-1
656.220	1	-1
657.406	1	3
658.593	1	11
659.779	1	-1
660.965	1	4
662.152	1	0
663.338	1	7
664.524	1	7
665.710	1	3
666.896	1	6
668.082	1	8
669.268	1	-1
670.454	1	10
671.640	1	4
672.826	1	-2
674.011	1	8
675.197	1	6
676.383	1	-2
677.569	1	14
678.754	1	5
679.940	1	-5
681.125	1	-12
682.311	1	2
683.496	1	3
684.682	1	3
685.867	1	7
687.053	1	16
688.238	1	12
688.746	1	1

File: GaN_sample D_spot15_UVVIS_150 K_200um_450 ms 2x2mm1_246.txt
340.368	1	17
341.565	1	-3
342.763	1	-5
343.960	1	9
345.157	1	11
346.354	1	7
347.552	1	19
348.749	1	13
349.946	1	-1
351.143	1	1
352.340	1	5
353.537	1	8
354.734	1	1
355.931	1	5
357.127	1	10
358.324	1	12
359.521	1	9
360.718	1	9
361.914	1	11
363.111	1	-2
364.308	1	16
365.504	1	9
366.701	1	8
367.897	1	20
369.093	1	21
370.290	1	18
371.486	1	22
372.682	1	10
373.879	1	6
375.075	1	-1
376.271	1	1
377.467	1	11
378.663	1	3
379.859	1	3
381.055	1	3
382.251	1	-6
383.447	1	2
384.643	1	-4
385.839	1	3
387.035	1	12
388.230	1	6
389.426	1	3
390.622	1	-7
391.817	1	-5
393.013	1	0
394.208	1	2
395.404	1	8
396.599	1	-1
397.795	1	5
398.990	1	15
400.186	1	-2
401.381	1	4
402.576	1	7
403.771	1	-14
404.967	1	10
406.162	1	-4
407.357	1	12
408.552	1	-3
409.747	1	6
410.942	1	10
412.137	1	3
413.332	1	10
414.526	1	-6
415.721	1	1
416.916	1	-1
418.111	1	3
419.305	1	-3
420.500	1	-3
421.695	1	9
422.889	1	4
424.084	1	2
425.278	1	4
426.472	1	11
427.667	1	8
428.861	1	5
430.055	1	11
431.250	1	8
432.444	1	1
433.638	1	4
434.832	1	3
436.026	1	-4
437.220	1	6
438.414	1	3
439.608	1	4
440.802	1	1
441.996	1	-2
443.190	1	5
444.384	1	3
445.578	1	-8
446.771	1	-3
447.965	1	7
449.159	1	-6
450.352	1	-6
451.546	1	3
452.739	1	4
453.933	1	-5
455.126	1	1
456.320	1	5
457.513	1	-4
458.706	1	9
459.899	1	7
461.093	1	-1
462.286	1	4
463.479	1	1
464.672	1	0
465.865	1	9
467.058	1	-3
468.251	1	-2
469.444	1	5
470.637	1	-3
471.830	1	10
473.023	1	6
474.215	1	-8
475.408	1	3
476.601	1	-3
477.793	1	2
478.986	1	4
480.179	1	3
481.371	1	-10
482.564	1	12
483.756	1	-4
484.948	1	10
486.141	1	6
487.333	1	-6
488.525	1	-7
489.718	1	-4
490.910	1	12
492.102	1	5
493.294	1	-7
494.486	1	-2
495.678	1	2
496.870	1	-4
498.062	1	3
499.254	1	0
500.446	1	-6
501.638	1	8
502.829	1	-4
504.021	1	5
505.213	1	6
506.404	1	-2
507.596	1	-1
508.788	1	-1
509.979	1	-4
511.171	1	2
512.362	1	2
513.553	1	-1
514.745	1	-3
515.936	1	-5
517.127	1	9
518.319	1	12
519.510	1	-4
520.701	1	9
521.892	1	2
523.083	1	-3
524.274	1	7
525.465	1	8
526.656	1	6
527.847	1	-3
529.038	1	9
530.229	1	6
531.419	1	4
532.610	1	4
533.801	1	-2
534.991	1	3
536.182	1	-4
537.373	1	10
538.563	1	1
539.754	1	-7
540.944	1	-2
542.134	1	8
543.325	1	13
544.515	1	0
545.705	1	2
546.896	1	5
548.086	1	0
549.276	1	11
550.466	1	8
551.656	1	8
552.846	1	9
554.036	1	15
555.226	1	2
556.416	1	12
557.606	1	-6
558.796	1	0
559.986	1	5
561.175	1	-1
562.365	1	5
563.555	1	1
564.744	1	9
565.934	1	13
567.123	1	-8
568.313	1	4
569.502	1	6
570.692	1	9
571.881	1	2
573.070	1	-1
574.260	1	1
575.449	1	-3
576.638	1	9
577.827	1	0
579.016	1	5
580.205	1	5
581.394	1	2
582.583	1	5
583.772	1	10
584.961	1	2
586.150	1	9
587.339	1	-4
588.528	1	-3
589.717	1	3
590.905	1	-2
592.094	1	8
593.283	1	6
594.471	1	-4
595.660	1	4
596.848	1	10
598.037	1	-3
599.225	1	-4
600.413	1	1
601.602	1	1
602.790	1	12
603.978	1	-3
605.166	1	7
606.355	1	-3
607.543	1	4
608.731	1	-8
609.919	1	-15
611.107	1	-2
612.295	1	6
613.483	1	3
614.671	1	6
615.858	1	-7
617.046	1	-3
618.234	1	-1
619.422	1	16
620.609	1	-3
621.797	1	2
622.985	1	1
624.172	1	9
625.360	1	-8
626.547	1	-9
627.735	1	1
628.922	1	5
630.109	1	-8
631.297	1	6
632.484	1	5
633.671	1	4
634.858	1	5
636.045	1	4
637.232	1	4
638.419	1	0
639.606	1	11
640.793	1	6
641.980	1	5
643.167	1	5
644.354	1	8
645.541	1	11
646.728	1	-4
647.914	1	-8
649.101	1	-2
650.288	1	0
651.474	1	9
652.661	1	0
653.847	1	-6
655.034	1	-3
656.220	1	11
657.406	1	-3
658.593	1	-1
659.779	1	-2
660.965	1	3
662.152	1	-2
663.338	1	-4
664.524	1	8
665.710	1	4
666.896	1	0
668.082	1	9
669.268	1	2
670.454	1	5
671.640	1	3
672.826	1	5
674.011	1	5
675.197	1	1
676.383	1	1
677.569	1	10
678.754	1	1
679.940	1	-1
681.125	1	-8
682.311	1	13
683.496	1	-5
684.682	1	4
685.867	1	7
687.053	1	17
688.238	1	6
688.746	1	6

File: GaN_sample D_spot15_UVVIS_150 K_200um_450 ms 2x2mm1_248.txt
340.368	1	-14
341.565	1	5
342.763	1	5
343.960	1	6
345.157	1	11
346.354	1	11
347.552	1	5
348.749	1	17
349.946	1	-2
351.143	1	-2
352.340	1	6
353.537	1	-7
354.734	1	5
355.931	1	12
357.127	1	12
358.324	1	6
359.521	1	10
360.718	1	5
361.914	1	10
363.111	1	5
364.308	1	11
365.504	1	5
366.701	1	9
367.897	1	28
369.093	1	21
370.290	1	15
371.486	1	26
372.682	1	4
373.879	1	-1
375.075	1	6
376.271	1	-1
377.467	1	14
378.663	1	9
379.859	1	0
381.055	1	-4
382.251	1	5
383.447	1	-4
384.643	1	1
385.839	1	2
387.035	1	8
388.230	1	-1
389.426	1	-7
390.622	1	-3
391.817	1	-3
393.013	1	7
394.208	1	3
395.404	1	8
396.599	1	7
397.795	1	6
398.990	1	15
400.186	1	2
401.381	1	-7
402.576	1	6
403.771	1	-5
404.967	1	9
406.162	1	3
407.357	1	-1
408.552	1	1
409.747	1	-8
410.942	1	9
412.137	1	-3
413.332	1	0
414.526	1	-6
415.721	1	7
416.916	1	3
418.111	1	12
419.305	1	4
420.500	1	4
421.695	1	1
422.889	1	-3
424.084	1	6
425.278	1	7
426.472	1	11
427.667	1	-5
428.861	1	4
430.055	1	11
431.250	1	8
432.444	1	9
433.638	1	4
434.832	1	-1
436.026	1	1
437.220	1	12
438.414	1	11
439.608	1	2
440.802	1	0
441.996	1	6
443.190	1	13
444.384	1	7
445.578	1	-10
446.771	1	2
447.965	1	12
449.159	1	-2
450.352	1	-1
451.546	1	-6
452.739	1	6
453.933	1	-10
455.126	1	5
456.320	1	7
457.513	1	-4
458.706	1	4
459.899	1	2
461.093	1	3
462.286	1	1
463.479	1	0
464.672	1	0
465.865	1	6
467.058	1	4
468.251	1	-7
469.444	1	4
470.637	1	-2
471.830	1	3
473.023	1	1
474.215	1	3
475.408	1	2
476.601	1	-3
477.793	1	0
478.986	1	6
480.179	1	5
481.371	1	-5
482.564	1	0
483.756	1	-2
484.948	1	5
486.141	1	6
487.333	1	-6
488.525	1	-1
489.718	1	-12
490.910	1	12
492.102	1	2
493.294	1	-6
494.486	1	6
495.678	1	-12
496.870	1	-6
498.062	1	3
499.254	1	-12
500.446	1	4
501.638	1	-2
502.829	1	-6
504.021	1	4
505.213	1	-2
506.404	1	0
507.596	1	11
508.788	1	2
509.979	1	5
511.171	1	10
512.362	1	3
513.553	1	6
514.745	1	0
515.936	1	4
517.127	1	13
518.319	1	5
519.510	1	-8
520.701	1	-1
521.892	1	3
523.083	1	1
524.274	1	10
525.465	1	13
526.656	1	2
527.847	1	-8
529.038	1	1
530.229	1	11
531.419	1	5
532.610	1	4
533.801	1	1
534.991	1	4
536.182	1	0
537.373	1	-7
538.563	1	7
539.754	1	-2
540.944	1	6
542.134	1	6
543.325	1	12
544.515	1	8
545.705	1	0
546.896	1	0
548.086	1	1
549.276	1	6
550.466	1	3
551.656	1	6
552.846	1	13
554.036	1	9
555.226	1	6
556.416	1	12
557.606	1	-4
558.796	1	4
559.986	1	2
561.175	1	-2
562.365	1	8
563.555	1	3
564.744	1	15
565.934	1	11
567.123	1	1
568.313	1	4
569.502	1	13
570.692	1	3
571.881	1	-3
573.070	1	2
574.260	1	6
575.449	1	-2
576.638	1	12
577.827	1	-6
579.016	1	5
580.205	1	0
581.394	1	3
582.583	1	12
583.772	1	10
584.961	1	-6
586.150	1	-2
587.339	1	-1
588.528	1	-3
589.717	1	4
590.905	1	-1
592.094	1	7
593.283	1	3
594.471	1	-10
595.660	1	9
596.848	1	1
598.037	1	7
599.225	1	1
600.413	1	0
601.602	1	9
602.790	1	12
603.978	1	7
605.166	1	-6
606.355	1	-15
607.543	1	-2
608.731	1	-11
609.919	1	-3
611.107	1	11
612.295	1	11
613.483	1	0
614.671	1	2
615.858	1	-13
617.046	1	0
618.234	1	-10
619.422	1	13
620.609	1	4
621.797	1	5
622.985	1	-2
624.172	1	7
625.360	1	4
626.547	1	-1
627.735	1	3
628.922	1	9
630.109	1	8
631.297	1	-2
632.484	1	10
633.671	1	-4
634.858	1	-3
636.045	1	-7
637.232	1	4
638.419	1	0
639.606	1	15
640.793	1	-2
641.980	1	8
643.167	1	0
644.354	1	6
645.541	1	2
646.728	1	3
647.914	1	9
649.101	1	-3
650.288	1	0
651.474	1	9
652.661	1	8
653.847	1	6
655.034	1	2
656.220	1	4
657.406	1	-1
658.593	1	7
659.779	1	-6
660.965	1	2
662.152	1	-4
663.338	1	-1
664.524	1	1
665.710	1	2
666.896	1	6
668.082	1	4
669.268	1	-3
670.454	1	4
671.640	1	13
672.826	1	2
674.011	1	13
675.197	1	3
676.383	1	-1
677.569	1	12
678.754	1	-6
679.940	1	-9
681.125	1	0
682.311	1	6
683.496	1	3
684.682	1	-1
685.867	1	-2
687.053	1	15
688.238	1	5
688.746	1	-9

File: GaN_sample D_spot15_UVVIS_150 K_200um_450 ms 2x2mm1_249.txt
340.368	1	5
341.565	1	8
342.763	1	5
343.960	1	6
345.157	1	9
346.354	1	7
347.552	1	15
348.749	1	5
349.946	1	-1
351.143	1	15
352.340	1	3
353.537	1	-5
354.734	1	-1
355.931	1	9
357.127	1	2
358.324	1	8
359.521	1	16
360.718	1	8
361.914	1	3
363.111	1	-2
364.308	1	9
365.504	1	4
366.701	1	16
367.897	1	18
369.093	1	13
370.290	1	16
371.486	1	14
372.682	1	13
373.879	1	-2
375.075	1	10
376.271	1	4
377.467	1	11
378.663	1	11
379.859	1	5
381.055	1	5
382.251	1	-12
383.447	1	8
384.643	1	1
385.839	1	3
387.035	1	11
388.230	1	2
389.426	1	0
390.622	1	-2
391.817	1	-4
393.013	1	6
394.208	1	4
395.404	1	6
396.599	1	6
397.795	1	4
398.990	1	8
400.186	1	4
401.381	1	6
402.576	1	9
403.771	1	-7
404.967	1	3
406.162	1	2
407.357	1	6
408.552	1	-7
409.747	1	-5
410.942	1	10
412.137	1	-4
413.332	1	0
414.526	1	1
415.721	1	4
416.916	1	0
418.111	1	9
419.305	1	8
420.500	1	6
421.695	1	6
422.889	1	4
424.084	1	1
425.278	1	8
426.472	1	13
427.667	1	-1
428.861	1	7
430.055	1	11
431.250	1	8
432.444	1	-5
433.638	1	9
434.832	1	7
436.026	1	-5
437.220	1	11
438.414	1	8
439.608	1	-8
440.802	1	-2
441.996	1	0
443.190	1	6
444.384	1	1
445.578	1	4
446.771	1	4
447.965	1	-3
449.159	1	5
450.352	1	5
451.546	1	5
452.739	1	6
453.933	1	-5
455.126	1	-4
456.320	1	8
457.513	1	5
458.706	1	16
459.899	1	4
461.093	1	1
462.286	1	5
463.479	1	-3
464.672	1	6
465.865	1	1
467.058	1	10
468.251	1	0
469.444	1	-6
470.637	1	-3
471.830	1	5
473.023	1	12
474.215	1	3
475.408	1	1
476.601	1	3
477.793	1	2
478.986	1	-2
480.179	1	1
481.371	1	-1
482.564	1	-1
483.756	1	12
484.948	1	5
486.141	1	-1
487.333	1	-5
488.525	1	-9
489.718	1	0
490.910	1	-1
492.102	1	7
493.294	1	-3
494.486	1	-3
495.678	1	0
496.870	1	2
498.062	1	-1
499.254	1	0
500.446	1	-2
501.638	1	6
502.829	1	-4
504.021	1	-3
505.213	1	-4
506.404	1	9
507.596	1	10
508.788	1	12
509.979	1	2
511.171	1	3
512.362	1	14
513.553	1	2
514.745	1	6
515.936	1	5
517.127	1	14
518.319	1	-3
519.510	1	-6
520.701	1	13
521.892	1	7
523.083	1	-4
524.274	1	10
525.465	1	5
526.656	1	7
527.847	1	0
529.038	1	5
530.229	1	5
531.419	1	-3
532.610	1	6
533.801	1	7
534.991	1	-2
536.182	1	-1
537.373	1	1
538.563	1	-2
539.754	1	11
540.944	1	7
542.134	1	-1
543.325	1	13
544.515	1	2
545.705	1	-2
546.896	1	3
548.086	1	7
549.276	1	4
550.466	1	4
551.656	1	8
552.846	1	8
554.036	1	6
555.226	1	6
556.416	1	1
557.606	1	-2
558.796	1	2
559.986	1	10
561.175	1	6
562.365	1	0
563.555	1	5
564.744	1	8
565.934	1	12
567.123	1	9
568.313	1	2
569.502	1	5
570.692	1	12
571.881	1	5
573.070	1	10
574.260	1	6
575.449	1	0
576.638	1	15
577.827	1	-3
579.016	1	3
580.205	1	4
581.394	1	0
582.583	1	2
583.772	1	13
584.961	1	-6
586.150	1	2
587.339	1	1
588.528	1	-4
589.717	1	7
590.905	1	0
592.094	1	11
593.283	1	11
594.471	1	-4
595.660	1	7
596.848	1	5
598.037	1	2
599.225	1	-2
600.413	1	-2
601.602	1	7
602.790	1	4
603.978	1	-5
605.166	1	-2
606.355	1	-14
607.543	1	13
608.731	1	-10
609.919	1	-7
611.107	1	9
612.295	1	9
613.483	1	-4
614.671	1	3
615.858	1	-6
617.046	1	3
618.234	1	-5
619.422	1	11
620.609	1	-1
621.797	1	8
622.985	1	0
624.172	1	2
625.360	1	2
626.547	1	2
627.735	1	6
628.922	1	2
630.109	1	1
631.297	1	14
632.484	1	8
633.671	1	13
634.858	1	5
636.045	1	-2
637.232	1	-3
638.419	1	-3
639.606	1	5
640.793	1	3
641.980	1	4
643.167	1	3
644.354	1	6
645.541	1	0
646.728	1	8
647.914	1	-2
649.101	1	-6
650.288	1	3
651.474	1	5
652.661	1	10
653.847	1	1
655.034	1	1
656.220	1	-2
657.406	1	6
658.593	1	11
659.779	1	9
660.965	1	1
662.152	1	-2
663.338	1	0
664.524	1	8
665.710	1	1
666.896	1	2
668.082	1	0
669.268	1	-1
670.454	1	5
671.640	1	6
672.826	1	5
674.011	1	11
675.197	1	15
676.383	1	-1
677.569	1	10
678.754	1	3
679.940	1	-3
681.125	1	-1
682.311	1	8
683.496	1	-13
684.682	1	8
685.867	1	-2
687.053	1	12
688.238	1	9
688.746	1	0

File: GaN_sample D_spot15_UVVIS_150 K_200um_450 ms 2x2mm1_252.txt
340.368	1	5
341.565	1	5
342.763	1	-2
343.960	1	14
345.157	1	3
346.354	1	-6
347.552	1	9
348.749	1	13
349.946	1	-1
351.143	1	9
352.340	1	8
353.537	1	-3
354.734	1	4
355.931	1	2
357.127	1	14
358.324	1	4
359.521	1	9
360.718	1	8
361.914	1	9
363.111	1	11
364.308	1	5
365.504	1	11
366.701	1	3
367.897	1	14
369.093	1	21
370.290	1	17
371.486	1	17
372.682	1	9
373.879	1	1
375.075	1	6
376.271	1	10
377.467	1	15
378.663	1	13
379.859	1	10
381.055	1	1
382.251	1	-3
383.447	1	0
384.643	1	3
385.839	1	-1
387.035	1	5
388.230	1	3
389.426	1	3
390.622	1	-5
391.817	1	-11
393.013	1	7
394.208	1	5
395.404	1	4
396.599	1	9
397.795	1	2
398.990	1	10
400.186	1	3
401.381	1	0
402.576	1	4
403.771	1	0
404.967	1	9
406.162	1	-2
407.357	1	-1
408.552	1	-4
409.747	1	4
410.942	1	9
412.137	1	2
413.332	1	5
414.526	1	-10
415.721	1	4
416.916	1	2
418.111	1	6
419.305	1	9
420.500	1	5
421.695	1	13
422.889	1	8
424.084	1	0
425.278	1	5
426.472	1	11
427.667	1	3
428.861	1	18
430.055	1	11
431.250	1	4
432.444	1	-1
433.638	1	13
434.832	1	-3
436.026	1	4
437.220	1	7
438.414	1	1
439.608	1	5
440.802	1	2
441.996	1	1
443.190	1	5
444.384	1	8
445.578	1	4
446.771	1	8
447.965	1	5
449.159	1	-8
450.352	1	-3
451.546	1	-2
452.739	1	3
453.933	1	4
455.126	1	1
456.320	1	7
457.513	1	5
458.706	1	17
459.899	1	-10
461.093	1	6
462.286	1	2
463.479	1	-3
464.672	1	7
465.865	1	0
467.058	1	0
468.251	1	-4
469.444	1	-2
470.637	1	1
471.830	1	11
473.023	1	1
474.215	1	6
475.408	1	2
476.601	1	0
477.793	1	5
478.986	1	3
480.179	1	6
481.371	1	-5
482.564	1	9
483.756	1	4
484.948	1	3
486.141	1	-6
487.333	1	-3
488.525	1	-1
489.718	1	-5
490.910	1	8
492.102	1	1
493.294	1	-4
494.486	1	9
495.678	1	-5
496.870	1	-6
498.062	1	2
499.254	1	-8
500.446	1	-11
501.638	1	4
502.829	1	-1
504.021	1	7
505.213	1	-1
506.404	1	-1
507.596	1	11
508.788	1	2
509.979	1	0
511.171	1	2
512.362	1	17
513.553	1	5
514.745	1	2
515.936	1	-2
517.127	1	19
518.319	1	10
519.510	1	-5
520.701	1	1
521.892	1	11
523.083	1	-1
524.274	1	-4
525.465	1	12
526.656	1	5
527.847	1	-11
529.038	1	-1
530.229	1	8
531.419	1	8
532.610	1	9
533.801	1	0
534.991	1	1
536.182	1	-5
537.373	1	-7
538.563	1	-6
539.754	1	-6
540.944	1	12
542.134	1	-4
543.325	1	7
544.515	1	7
545.705	1	-6
546.896	1	8
548.086	1	3
549.276	1	7
550.466	1	8
551.656	1	-1
552.846	1	4
554.036	1	8
555.226	1	5
556.416	1	5
557.606	1	-7
558.796	1	3
559.986	1	3
561.175	1	6
562.365	1	6
563.555	1	8
564.744	1	14
565.934	1	15
567.123	1	-1
568.313	1	-3
569.502	1	9
570.692	1	6
571.881	1	4
573.070	1	9
574.260	1	-2
575.449	1	-1
576.638	1	13
577.827	1	3
579.016	1	-4
580.205	1	1
581.394	1	2
582.583	1	2
583.772	1	10
584.961	1	2
586.150	1	9
587.339	1	3
588.528	1	-2
589.717	1	-5
590.905	1	2
592.094	1	6
593.283	1	-1
594.471	1	-14
595.660	1	3
596.848	1	6
598.037	1	-3
599.225	1	-2
600.413	1	1
601.602	1	7
602.790	1	1
603.978	1	5
605.166	1	8
606.355	1	-10
607.543	1	7
608.731	1	-1
609.919	1	-8
611.107	1	15
612.295	1	4
613.483	1	-4
614.671	1	2
615.858	1	-7
617.046	1	8
618.234	1	-3
619.422	1	13
620.609	1	1
621.797	1	0
622.985	1	-4
624.172	1	6
625.360	1	8
626.547	1	-2
627.735	1	-3
628.922	1	10
630.109	1	2
631.297	1	-1
632.484	1	8
633.671	1	5
634.858	1	-3
636.045	1	-3
637.232	1	0
638.419	1	6
639.606	1	8
640.793	1	3
641.980	1	9
643.167	1	-4
644.354	1	1
645.541	1	6
646.728	1	1
647.914	1	-1
649.101	1	-4
650.288	1	0
651.474	1	1
652.661	1	3
653.847	1	1
655.034	1	1
656.220	1	11
657.406	1	-1
658.593	1	18
659.779	1	5
660.965	1	-4
662.152	1	6
663.338	1	-2
664.524	1	11
665.710	1	-2
666.896	1	5
668.082	1	3
669.268	1	-5
670.454	1	1
671.640	1	7
672.826	1	1
674.011	1	2
675.197	1	2
676.383	1	-2
677.569	1	14
678.754	1	-7
679.940	1	-5
681.125	1	3
682.311	1	9
683.496	1	-2
684.682	1	1
685.867	1	3
687.053	1	20
688.238	1	9
688.746	1	-1

File: GaN_sample D_spot15_UVVIS_150 K_200um_450 ms 2x2mm1_256.txt
340.368	1	7
341.565	1	7
342.763	1	8
343.960	1	-1
345.157	1	5
346.354	1	-4
347.552	1	12
348.749	1	10
349.946	1	1
351.143	1	6
352.340	1	3
353.537	1	7
354.734	1	0
355.931	1	5
357.127	1	12
358.324	1	-6
359.521	1	10
360.718	1	-1
361.914	1	16
363.111	1	1
364.308	1	18
365.504	1	3
366.701	1	14
367.897	1	14
369.093	1	17
370.290	1	12
371.486	1	14
372.682	1	17
373.879	1	5
375.075	1	4
376.271	1	7
377.467	1	6
378.663	1	-2
379.859	1	-1
381.055	1	-4
382.251	1	-3
383.447	1	2
384.643	1	4
385.839	1	4
387.035	1	11
388.230	1	7
389.426	1	-2
390.622	1	-9
391.817	1	-6
393.013	1	8
394.208	1	-1
395.404	1	2
396.599	1	5
397.795	1	-9
398.990	1	11
400.186	1	3
401.381	1	5
402.576	1	8
403.771	1	-7
404.967	1	8
406.162	1	3
407.357	1	9
408.552	1	-12
409.747	1	1
410.942	1	12
412.137	1	0
413.332	1	7
414.526	1	3
415.721	1	1
416.916	1	3
418.111	1	-4
419.305	1	2
420.500	1	13
421.695	1	10
422.889	1	7
424.084	1	3
425.278	1	0
426.472	1	12
427.667	1	1
428.861	1	-1
430.055	1	3
431.250	1	9
432.444	1	0
433.638	1	12
434.832	1	-4
436.026	1	0
437.220	1	8
438.414	1	1
439.608	1	-8
440.802	1	1
441.996	1	-2
443.190	1	8
444.384	1	5
445.578	1	-10
446.771	1	-1
447.965	1	-1
449.159	1	-2
450.352	1	4
451.546	1	6
452.739	1	3
453.933	1	-2
455.126	1	6
456.320	1	7
457.513	1	8
458.706	1	10
459.899	1	1
461.093	1	6
462.286	1	-2
463.479	1	-10
464.672	1	3
465.865	1	-5
467.058	1	6
468.251	1	-5
469.444	1	8
470.637	1	17
471.830	1	1
473.023	1	6
474.215	1	9
475.408	1	5
476.601	1	2
477.793	1	-5
478.986	1	9
480.179	1	10
481.371	1	-10
482.564	1	3
483.756	1	5
484.948	1	2
486.141	1	3
487.333	1	-2
488.525	1	-7
489.718	1	-8
490.910	1	-5
492.102	1	-1
493.294	1	-4
494.486	1	-2
495.678	1	8
496.870	1	7
498.062	1	2
499.254	1	-9
500.446	1	1
501.638	1	-2
502.829	1	-4
504.021	1	8
505.213	1	1
506.404	1	2
507.596	1	4
508.788	1	-2
509.979	1	-1
511.171	1	4
512.362	1	3
513.553	1	2
514.745	1	1
515.936	1	2
517.127	1	12
518.319	1	6
519.510	1	0
520.701	1	-2
521.892	1	7
523.083	1	5
524.274	1	2
525.465	1	10
526.656	1	3
527.847	1	-6
529.038	1	3
530.229	1	8
531.419	1	11
532.610	1	7
533.801	1	-8
534.991	1	5
536.182	1	-3
537.373	1	10
538.563	1	2
539.754	1	5
540.944	1	5
542.134	1	2
543.325	1	3
544.515	1	4
545.705	1	-2
546.896	1	-6
548.086	1	5
549.276	1	-3
550.466	1	1
551.656	1	-3
552.846	1	10
554.036	1	6
555.226	1	-3
556.416	1	5
557.606	1	-4
558.796	1	5
559.986	1	8
561.175	1	-8
562.365	1	4
563.555	1	7
564.744	1	6
565.934	1	10
567.123	1	-4
568.313	1	3
569.502	1	6
570.692	1	10
571.881	1	2
573.070	1	2
574.260	1	4
575.449	1	2
576.638	1	6
577.827	1	-5
579.016	1	8
580.205	1	0
581.394	1	13
582.583	1	1
583.772	1	9
584.961	1	-4
586.150	1	-4
587.339	1	3
588.528	1	0
589.717	1	8
590.905	1	0
592.094	1	4
593.283	1	6
594.471	1	-12
595.660	1	5
596.848	1	-3
598.037	1	0
599.225	1	0
600.413	1	2
601.602	1	8
602.790	1	5
603.978	1	1
605.166	1	14
606.355	1	-18
607.543	1	-5
608.731	1	-15
609.919	1	-5
611.107	1	14
612.295	1	2
613.483	1	-9
614.671	1	12
615.858	1	-14
617.046	1	6
618.234	1	-2
619.422	1	16
620.609	1	-8
621.797	1	0
622.985	1	-4
624.172	1	5
625.360	1	11
626.547	1	1
627.735	1	5
628.922	1	3
630.109	1	-5
631.297	1	10
632.484	1	7
633.671	1	7
634.858	1	1
636.045	1	-2
637.232	1	4
638.419	1	-3
639.606	1	5
640.793	1	0
641.980	1	12
643.167	1	-4
644.354	1	10
645.541	1	6
646.728	1	-4
647.914	1	-4
649.101	1	-2
650.288	1	6
651.474	1	2
652.661	1	3
653.847	1	2
655.034	1	-2
656.220	1	4
657.406	1	-5
658.593	1	2
659.779	1	2
660.965	1	2
662.152	1	7
663.338	1	-7
664.524	1	11
665.710	1	13
666.896	1	12
668.082	1	3
669.268	1	0
670.454	1	5
671.640	1	13
672.826	1	6
674.011	1	4
675.197	1	7
676.383	1	0
677.569	1	11
678.754	1	-1
679.940	1	0
681.125	1	-10
682.311	1	12
683.496	1	-5
684.682	1	21
685.867	1	16
687.053	1	21
688.238	1	14
688.746	1	-2