Folder: cryo-il_analysis/Data/GaN_200K_800ms (part 21)

File: GaN_sample F_spot 12_UVVIS_200 K_200um_800 ms 2x2mm1_177.txt
340.368	1	3
341.565	1	-12
342.763	1	-3
343.960	1	3
345.157	1	-8
346.354	1	6
347.552	1	1
348.749	1	-5
349.946	1	-5
351.143	1	1
352.340	1	6
353.537	1	1
354.734	1	11
355.931	1	4
357.127	1	2
358.324	1	10
359.521	1	9
360.718	1	13
361.914	1	10
363.111	1	8
364.308	1	6
365.504	1	22
366.701	1	30
367.897	1	38
369.093	1	36
370.290	1	28
371.486	1	50
372.682	1	33
373.879	1	32
375.075	1	29
376.271	1	34
377.467	1	21
378.663	1	12
379.859	1	13
381.055	1	10
382.251	1	5
383.447	1	10
384.643	1	13
385.839	1	7
387.035	1	6
388.230	1	13
389.426	1	2
390.622	1	3
391.817	1	6
393.013	1	-5
394.208	1	-2
395.404	1	2
396.599	1	5
397.795	1	4
398.990	1	0
400.186	1	-3
401.381	1	1
402.576	1	7
403.771	1	3
404.967	1	10
406.162	1	3
407.357	1	-3
408.552	1	-4
409.747	1	-2
410.942	1	6
412.137	1	0
413.332	1	8
414.526	1	-1
415.721	1	4
416.916	1	-5
418.111	1	8
419.305	1	8
420.500	1	-2
421.695	1	-4
422.889	1	-10
424.084	1	0
425.278	1	15
426.472	1	-11
427.667	1	-6
428.861	1	-4
430.055	1	7
431.250	1	3
432.444	1	12
433.638	1	-3
434.832	1	7
436.026	1	2
437.220	1	6
438.414	1	-7
439.608	1	-4
440.802	1	2
441.996	1	12
443.190	1	8
444.384	1	-9
445.578	1	-7
446.771	1	1
447.965	1	0
449.159	1	4
450.352	1	1
451.546	1	6
452.739	1	-2
453.933	1	3
455.126	1	-5
456.320	1	9
457.513	1	6
458.706	1	3
459.899	1	-1
461.093	1	-4
462.286	1	9
463.479	1	4
464.672	1	-3
465.865	1	4
467.058	1	-5
468.251	1	7
469.444	1	-8
470.637	1	-2
471.830	1	1
473.023	1	8
474.215	1	10
475.408	1	3
476.601	1	-1
477.793	1	-10
478.986	1	5
480.179	1	3
481.371	1	4
482.564	1	10
483.756	1	9
484.948	1	-5
486.141	1	-3
487.333	1	-2
488.525	1	-1
489.718	1	-5
490.910	1	-2
492.102	1	-1
493.294	1	-11
494.486	1	9
495.678	1	2
496.870	1	11
498.062	1	-1
499.254	1	0
500.446	1	-6
501.638	1	-3
502.829	1	4
504.021	1	3
505.213	1	8
506.404	1	4
507.596	1	-1
508.788	1	17
509.979	1	-1
511.171	1	-8
512.362	1	-7
513.553	1	1
514.745	1	-7
515.936	1	7
517.127	1	-1
518.319	1	2
519.510	1	1
520.701	1	9
521.892	1	6
523.083	1	4
524.274	1	5
525.465	1	4
526.656	1	6
527.847	1	-1
529.038	1	3
530.229	1	8
531.419	1	4
532.610	1	-4
533.801	1	16
534.991	1	-2
536.182	1	4
537.373	1	1
538.563	1	6
539.754	1	4
540.944	1	5
542.134	1	5
543.325	1	-2
544.515	1	-3
545.705	1	4
546.896	1	4
548.086	1	0
549.276	1	3
550.466	1	3
551.656	1	8
552.846	1	1
554.036	1	3
555.226	1	-5
556.416	1	4
557.606	1	8
558.796	1	3
559.986	1	-2
561.175	1	5
562.365	1	1
563.555	1	-6
564.744	1	12
565.934	1	18
567.123	1	3
568.313	1	14
569.502	1	-2
570.692	1	11
571.881	1	13
573.070	1	2
574.260	1	16
575.449	1	-7
576.638	1	3
577.827	1	-5
579.016	1	7
580.205	1	8
581.394	1	0
582.583	1	5
583.772	1	-1
584.961	1	6
586.150	1	-4
587.339	1	9
588.528	1	4
589.717	1	11
590.905	1	-1
592.094	1	2
593.283	1	8
594.471	1	7
595.660	1	-1
596.848	1	5
598.037	1	-8
599.225	1	-6
600.413	1	14
601.602	1	12
602.790	1	5
603.978	1	5
605.166	1	5
606.355	1	2
607.543	1	-2
608.731	1	4
609.919	1	14
611.107	1	-4
612.295	1	-1
613.483	1	7
614.671	1	8
615.858	1	5
617.046	1	-1
618.234	1	-5
619.422	1	-7
620.609	1	2
621.797	1	-4
622.985	1	-4
624.172	1	8
625.360	1	-2
626.547	1	2
627.735	1	4
628.922	1	-3
630.109	1	-13
631.297	1	-2
632.484	1	-2
633.671	1	-6
634.858	1	0
636.045	1	9
637.232	1	-5
638.419	1	-1
639.606	1	-1
640.793	1	20
641.980	1	7
643.167	1	-1
644.354	1	2
645.541	1	-7
646.728	1	0
647.914	1	-4
649.101	1	3
650.288	1	-1
651.474	1	-9
652.661	1	-8
653.847	1	11
655.034	1	3
656.220	1	-12
657.406	1	11
658.593	1	2
659.779	1	-1
660.965	1	5
662.152	1	6
663.338	1	15
664.524	1	5
665.710	1	-1
666.896	1	2
668.082	1	11
669.268	1	-2
670.454	1	8
671.640	1	5
672.826	1	0
674.011	1	-1
675.197	1	-4
676.383	1	6
677.569	1	1
678.754	1	3
679.940	1	-1
681.125	1	4
682.311	1	6
683.496	1	8
684.682	1	-6
685.867	1	-1
687.053	1	8
688.238	1	1
688.746	1	0

File: GaN_sample F_spot 12_UVVIS_200 K_200um_800 ms 2x2mm1_181.txt
340.368	1	3
341.565	1	-8
342.763	1	6
343.960	1	5
345.157	1	4
346.354	1	2
347.552	1	0
348.749	1	-2
349.946	1	-7
351.143	1	-2
352.340	1	7
353.537	1	1
354.734	1	6
355.931	1	5
357.127	1	5
358.324	1	7
359.521	1	6
360.718	1	16
361.914	1	12
363.111	1	9
364.308	1	19
365.504	1	29
366.701	1	20
367.897	1	39
369.093	1	29
370.290	1	31
371.486	1	46
372.682	1	37
373.879	1	27
375.075	1	28
376.271	1	34
377.467	1	22
378.663	1	4
379.859	1	13
381.055	1	8
382.251	1	5
383.447	1	-1
384.643	1	13
385.839	1	7
387.035	1	9
388.230	1	15
389.426	1	1
390.622	1	6
391.817	1	7
393.013	1	-9
394.208	1	6
395.404	1	6
396.599	1	-5
397.795	1	9
398.990	1	11
400.186	1	-3
401.381	1	-4
402.576	1	-6
403.771	1	7
404.967	1	0
406.162	1	8
407.357	1	4
408.552	1	-7
409.747	1	2
410.942	1	8
412.137	1	8
413.332	1	5
414.526	1	2
415.721	1	-4
416.916	1	-6
418.111	1	-3
419.305	1	9
420.500	1	2
421.695	1	-2
422.889	1	-6
424.084	1	6
425.278	1	12
426.472	1	2
427.667	1	-1
428.861	1	-2
430.055	1	1
431.250	1	-2
432.444	1	11
433.638	1	-7
434.832	1	-3
436.026	1	12
437.220	1	8
438.414	1	-4
439.608	1	-11
440.802	1	-3
441.996	1	-5
443.190	1	5
444.384	1	-9
445.578	1	0
446.771	1	20
447.965	1	3
449.159	1	1
450.352	1	-8
451.546	1	-5
452.739	1	9
453.933	1	-5
455.126	1	0
456.320	1	-6
457.513	1	-2
458.706	1	3
459.899	1	-6
461.093	1	7
462.286	1	3
463.479	1	-2
464.672	1	5
465.865	1	6
467.058	1	10
468.251	1	-2
469.444	1	-4
470.637	1	2
471.830	1	-2
473.023	1	6
474.215	1	6
475.408	1	1
476.601	1	3
477.793	1	6
478.986	1	-2
480.179	1	2
481.371	1	11
482.564	1	0
483.756	1	12
484.948	1	-6
486.141	1	-3
487.333	1	9
488.525	1	11
489.718	1	-4
490.910	1	4
492.102	1	-8
493.294	1	0
494.486	1	5
495.678	1	-7
496.870	1	2
498.062	1	-3
499.254	1	4
500.446	1	-15
501.638	1	-4
502.829	1	0
504.021	1	-9
505.213	1	4
506.404	1	1
507.596	1	4
508.788	1	10
509.979	1	0
511.171	1	-2
512.362	1	6
513.553	1	-10
514.745	1	-9
515.936	1	-1
517.127	1	5
518.319	1	-5
519.510	1	1
520.701	1	10
521.892	1	0
523.083	1	7
524.274	1	0
525.465	1	1
526.656	1	11
527.847	1	2
529.038	1	3
530.229	1	7
531.419	1	5
532.610	1	2
533.801	1	7
534.991	1	1
536.182	1	-6
537.373	1	4
538.563	1	18
539.754	1	14
540.944	1	5
542.134	1	11
543.325	1	2
544.515	1	0
545.705	1	4
546.896	1	4
548.086	1	-4
549.276	1	4
550.466	1	5
551.656	1	12
552.846	1	-1
554.036	1	5
555.226	1	-1
556.416	1	7
557.606	1	9
558.796	1	1
559.986	1	0
561.175	1	3
562.365	1	9
563.555	1	5
564.744	1	5
565.934	1	9
567.123	1	3
568.313	1	8
569.502	1	-1
570.692	1	6
571.881	1	10
573.070	1	-1
574.260	1	15
575.449	1	-2
576.638	1	-4
577.827	1	2
579.016	1	9
580.205	1	0
581.394	1	-4
582.583	1	11
583.772	1	14
584.961	1	0
586.150	1	-1
587.339	1	8
588.528	1	6
589.717	1	2
590.905	1	8
592.094	1	2
593.283	1	-2
594.471	1	11
595.660	1	-6
596.848	1	6
598.037	1	9
599.225	1	-1
600.413	1	2
601.602	1	12
602.790	1	2
603.978	1	1
605.166	1	5
606.355	1	5
607.543	1	-3
608.731	1	-1
609.919	1	9
611.107	1	-1
612.295	1	-5
613.483	1	6
614.671	1	9
615.858	1	2
617.046	1	-2
618.234	1	8
619.422	1	-5
620.609	1	2
621.797	1	-8
622.985	1	10
624.172	1	8
625.360	1	-5
626.547	1	-1
627.735	1	0
628.922	1	3
630.109	1	-7
631.297	1	6
632.484	1	-4
633.671	1	6
634.858	1	0
636.045	1	11
637.232	1	-1
638.419	1	3
639.606	1	2
640.793	1	5
641.980	1	7
643.167	1	-11
644.354	1	3
645.541	1	3
646.728	1	1
647.914	1	2
649.101	1	0
650.288	1	12
651.474	1	-4
652.661	1	4
653.847	1	14
655.034	1	0
656.220	1	-19
657.406	1	1
658.593	1	10
659.779	1	-1
660.965	1	10
662.152	1	-3
663.338	1	8
664.524	1	8
665.710	1	-4
666.896	1	-5
668.082	1	-2
669.268	1	0
670.454	1	8
671.640	1	-4
672.826	1	3
674.011	1	4
675.197	1	-8
676.383	1	-2
677.569	1	-3
678.754	1	7
679.940	1	-3
681.125	1	3
682.311	1	7
683.496	1	3
684.682	1	-2
685.867	1	0
687.053	1	-4
688.238	1	3
688.746	1	2

File: GaN_sample F_spot 12_UVVIS_200 K_200um_800 ms 2x2mm1_182.txt
340.368	1	6
341.565	1	-13
342.763	1	5
343.960	1	-2
345.157	1	0
346.354	1	2
347.552	1	-3
348.749	1	-11
349.946	1	-3
351.143	1	-6
352.340	1	7
353.537	1	6
354.734	1	2
355.931	1	-1
357.127	1	7
358.324	1	4
359.521	1	10
360.718	1	8
361.914	1	10
363.111	1	11
364.308	1	18
365.504	1	34
366.701	1	23
367.897	1	39
369.093	1	35
370.290	1	36
371.486	1	43
372.682	1	45
373.879	1	21
375.075	1	21
376.271	1	24
377.467	1	10
378.663	1	12
379.859	1	12
381.055	1	20
382.251	1	13
383.447	1	5
384.643	1	22
385.839	1	6
387.035	1	11
388.230	1	15
389.426	1	3
390.622	1	0
391.817	1	-4
393.013	1	2
394.208	1	3
395.404	1	0
396.599	1	7
397.795	1	1
398.990	1	1
400.186	1	-1
401.381	1	-1
402.576	1	-5
403.771	1	12
404.967	1	5
406.162	1	4
407.357	1	-2
408.552	1	-6
409.747	1	-1
410.942	1	8
412.137	1	7
413.332	1	9
414.526	1	-5
415.721	1	5
416.916	1	-3
418.111	1	1
419.305	1	6
420.500	1	3
421.695	1	-5
422.889	1	-2
424.084	1	-1
425.278	1	12
426.472	1	4
427.667	1	9
428.861	1	-4
430.055	1	0
431.250	1	-9
432.444	1	11
433.638	1	-1
434.832	1	1
436.026	1	8
437.220	1	2
438.414	1	-6
439.608	1	-5
440.802	1	-8
441.996	1	1
443.190	1	1
444.384	1	-7
445.578	1	-10
446.771	1	10
447.965	1	-4
449.159	1	-8
450.352	1	-1
451.546	1	-4
452.739	1	2
453.933	1	0
455.126	1	-2
456.320	1	-3
457.513	1	10
458.706	1	1
459.899	1	-5
461.093	1	2
462.286	1	-1
463.479	1	-2
464.672	1	-2
465.865	1	-4
467.058	1	-2
468.251	1	-4
469.444	1	7
470.637	1	0
471.830	1	-5
473.023	1	13
474.215	1	8
475.408	1	3
476.601	1	4
477.793	1	-12
478.986	1	2
480.179	1	4
481.371	1	-3
482.564	1	9
483.756	1	6
484.948	1	-7
486.141	1	2
487.333	1	3
488.525	1	-3
489.718	1	13
490.910	1	1
492.102	1	-4
493.294	1	-3
494.486	1	6
495.678	1	6
496.870	1	8
498.062	1	8
499.254	1	1
500.446	1	-9
501.638	1	2
502.829	1	-1
504.021	1	4
505.213	1	6
506.404	1	10
507.596	1	1
508.788	1	21
509.979	1	3
511.171	1	1
512.362	1	1
513.553	1	-6
514.745	1	-5
515.936	1	-6
517.127	1	-4
518.319	1	-2
519.510	1	1
520.701	1	2
521.892	1	1
523.083	1	3
524.274	1	4
525.465	1	11
526.656	1	-1
527.847	1	11
529.038	1	-3
530.229	1	14
531.419	1	3
532.610	1	-2
533.801	1	20
534.991	1	6
536.182	1	8
537.373	1	7
538.563	1	2
539.754	1	5
540.944	1	1
542.134	1	15
543.325	1	4
544.515	1	2
545.705	1	0
546.896	1	1
548.086	1	3
549.276	1	-1
550.466	1	1
551.656	1	3
552.846	1	-1
554.036	1	-1
555.226	1	-8
556.416	1	-6
557.606	1	1
558.796	1	-5
559.986	1	-3
561.175	1	0
562.365	1	7
563.555	1	3
564.744	1	6
565.934	1	13
567.123	1	3
568.313	1	4
569.502	1	5
570.692	1	12
571.881	1	14
573.070	1	3
574.260	1	13
575.449	1	-10
576.638	1	3
577.827	1	-11
579.016	1	5
580.205	1	14
581.394	1	4
582.583	1	13
583.772	1	2
584.961	1	12
586.150	1	-2
587.339	1	-2
588.528	1	1
589.717	1	15
590.905	1	0
592.094	1	-4
593.283	1	7
594.471	1	7
595.660	1	3
596.848	1	-1
598.037	1	5
599.225	1	-11
600.413	1	13
601.602	1	20
602.790	1	-6
603.978	1	6
605.166	1	10
606.355	1	1
607.543	1	-5
608.731	1	-3
609.919	1	10
611.107	1	-7
612.295	1	-6
613.483	1	3
614.671	1	-1
615.858	1	1
617.046	1	2
618.234	1	6
619.422	1	-8
620.609	1	9
621.797	1	-13
622.985	1	1
624.172	1	8
625.360	1	-5
626.547	1	2
627.735	1	9
628.922	1	9
630.109	1	-10
631.297	1	-5
632.484	1	-1
633.671	1	-6
634.858	1	-6
636.045	1	24
637.232	1	-9
638.419	1	-6
639.606	1	2
640.793	1	8
641.980	1	0
643.167	1	-5
644.354	1	7
645.541	1	4
646.728	1	-3
647.914	1	2
649.101	1	-4
650.288	1	4
651.474	1	-4
652.661	1	-6
653.847	1	11
655.034	1	-2
656.220	1	-1
657.406	1	1
658.593	1	6
659.779	1	3
660.965	1	9
662.152	1	7
663.338	1	16
664.524	1	11
665.710	1	9
666.896	1	-11
668.082	1	4
669.268	1	-4
670.454	1	3
671.640	1	1
672.826	1	-2
674.011	1	-2
675.197	1	-9
676.383	1	2
677.569	1	0
678.754	1	-5
679.940	1	-8
681.125	1	2
682.311	1	12
683.496	1	3
684.682	1	-6
685.867	1	6
687.053	1	-6
688.238	1	11
688.746	1	0

File: GaN_sample F_spot 12_UVVIS_200 K_200um_800 ms 2x2mm1_184.txt
340.368	1	1
341.565	1	-7
342.763	1	3
343.960	1	7
345.157	1	-2
346.354	1	1
347.552	1	-9
348.749	1	5
349.946	1	-6
351.143	1	1
352.340	1	7
353.537	1	0
354.734	1	3
355.931	1	3
357.127	1	4
358.324	1	3
359.521	1	6
360.718	1	6
361.914	1	7
363.111	1	10
364.308	1	15
365.504	1	28
366.701	1	22
367.897	1	44
369.093	1	33
370.290	1	38
371.486	1	40
372.682	1	28
373.879	1	29
375.075	1	25
376.271	1	20
377.467	1	16
378.663	1	11
379.859	1	12
381.055	1	16
382.251	1	4
383.447	1	5
384.643	1	10
385.839	1	3
387.035	1	7
388.230	1	15
389.426	1	3
390.622	1	9
391.817	1	7
393.013	1	1
394.208	1	-1
395.404	1	-1
396.599	1	-2
397.795	1	9
398.990	1	-7
400.186	1	6
401.381	1	-1
402.576	1	3
403.771	1	3
404.967	1	-1
406.162	1	6
407.357	1	0
408.552	1	-10
409.747	1	1
410.942	1	3
412.137	1	7
413.332	1	-3
414.526	1	-1
415.721	1	6
416.916	1	-11
418.111	1	-1
419.305	1	0
420.500	1	-6
421.695	1	-6
422.889	1	-12
424.084	1	3
425.278	1	9
426.472	1	-1
427.667	1	-3
428.861	1	3
430.055	1	2
431.250	1	-4
432.444	1	11
433.638	1	2
434.832	1	1
436.026	1	13
437.220	1	7
438.414	1	-4
439.608	1	-7
440.802	1	-2
441.996	1	17
443.190	1	-7
444.384	1	-3
445.578	1	-10
446.771	1	-1
447.965	1	-3
449.159	1	-6
450.352	1	-5
451.546	1	9
452.739	1	-2
453.933	1	0
455.126	1	-10
456.320	1	5
457.513	1	4
458.706	1	6
459.899	1	2
461.093	1	0
462.286	1	2
463.479	1	-4
464.672	1	1
465.865	1	-8
467.058	1	-2
468.251	1	-1
469.444	1	-11
470.637	1	5
471.830	1	0
473.023	1	4
474.215	1	10
475.408	1	5
476.601	1	5
477.793	1	0
478.986	1	-5
480.179	1	6
481.371	1	3
482.564	1	4
483.756	1	4
484.948	1	-7
486.141	1	-6
487.333	1	1
488.525	1	-6
489.718	1	-1
490.910	1	-6
492.102	1	-7
493.294	1	-7
494.486	1	3
495.678	1	3
496.870	1	12
498.062	1	2
499.254	1	5
500.446	1	-11
501.638	1	-2
502.829	1	1
504.021	1	-1
505.213	1	4
506.404	1	-2
507.596	1	13
508.788	1	10
509.979	1	3
511.171	1	0
512.362	1	-1
513.553	1	2
514.745	1	-9
515.936	1	2
517.127	1	-3
518.319	1	-1
519.510	1	3
520.701	1	8
521.892	1	5
523.083	1	2
524.274	1	8
525.465	1	7
526.656	1	2
527.847	1	9
529.038	1	-2
530.229	1	4
531.419	1	4
532.610	1	0
533.801	1	16
534.991	1	4
536.182	1	4
537.373	1	4
538.563	1	3
539.754	1	7
540.944	1	4
542.134	1	9
543.325	1	9
544.515	1	3
545.705	1	4
546.896	1	4
548.086	1	7
549.276	1	-2
550.466	1	7
551.656	1	12
552.846	1	-2
554.036	1	-2
555.226	1	-9
556.416	1	4
557.606	1	1
558.796	1	-1
559.986	1	0
561.175	1	12
562.365	1	6
563.555	1	7
564.744	1	0
565.934	1	9
567.123	1	6
568.313	1	-1
569.502	1	3
570.692	1	6
571.881	1	6
573.070	1	5
574.260	1	5
575.449	1	-10
576.638	1	-4
577.827	1	-5
579.016	1	8
580.205	1	4
581.394	1	-3
582.583	1	8
583.772	1	7
584.961	1	3
586.150	1	8
587.339	1	10
588.528	1	7
589.717	1	7
590.905	1	-8
592.094	1	0
593.283	1	3
594.471	1	14
595.660	1	8
596.848	1	3
598.037	1	-4
599.225	1	-3
600.413	1	9
601.602	1	4
602.790	1	3
603.978	1	2
605.166	1	7
606.355	1	0
607.543	1	-1
608.731	1	11
609.919	1	9
611.107	1	-2
612.295	1	-5
613.483	1	4
614.671	1	1
615.858	1	9
617.046	1	4
618.234	1	-2
619.422	1	2
620.609	1	4
621.797	1	8
622.985	1	-1
624.172	1	2
625.360	1	-2
626.547	1	4
627.735	1	5
628.922	1	5
630.109	1	-7
631.297	1	-3
632.484	1	3
633.671	1	-5
634.858	1	-11
636.045	1	5
637.232	1	-5
638.419	1	1
639.606	1	2
640.793	1	7
641.980	1	9
643.167	1	-8
644.354	1	2
645.541	1	0
646.728	1	2
647.914	1	0
649.101	1	-8
650.288	1	-1
651.474	1	-7
652.661	1	-4
653.847	1	5
655.034	1	8
656.220	1	-1
657.406	1	8
658.593	1	7
659.779	1	8
660.965	1	10
662.152	1	13
663.338	1	9
664.524	1	2
665.710	1	-3
666.896	1	-5
668.082	1	0
669.268	1	-7
670.454	1	0
671.640	1	3
672.826	1	2
674.011	1	1
675.197	1	-5
676.383	1	3
677.569	1	3
678.754	1	1
679.940	1	4
681.125	1	2
682.311	1	9
683.496	1	3
684.682	1	-9
685.867	1	-1
687.053	1	3
688.238	1	8
688.746	1	-5

File: GaN_sample F_spot 12_UVVIS_200 K_200um_800 ms 2x2mm1_185.txt
340.368	1	8
341.565	1	-8
342.763	1	10
343.960	1	2
345.157	1	-3
346.354	1	1
347.552	1	-9
348.749	1	0
349.946	1	0
351.143	1	-6
352.340	1	6
353.537	1	7
354.734	1	14
355.931	1	1
357.127	1	2
358.324	1	6
359.521	1	14
360.718	1	6
361.914	1	10
363.111	1	12
364.308	1	17
365.504	1	24
366.701	1	26
367.897	1	32
369.093	1	38
370.290	1	37
371.486	1	35
372.682	1	36
373.879	1	34
375.075	1	24
376.271	1	23
377.467	1	11
378.663	1	11
379.859	1	23
381.055	1	13
382.251	1	1
383.447	1	6
384.643	1	21
385.839	1	-3
387.035	1	7
388.230	1	22
389.426	1	9
390.622	1	-3
391.817	1	6
393.013	1	-15
394.208	1	2
395.404	1	5
396.599	1	0
397.795	1	3
398.990	1	7
400.186	1	-2
401.381	1	-3
402.576	1	0
403.771	1	0
404.967	1	-1
406.162	1	9
407.357	1	-12
408.552	1	-1
409.747	1	10
410.942	1	11
412.137	1	5
413.332	1	9
414.526	1	0
415.721	1	-1
416.916	1	-10
418.111	1	-1
419.305	1	-6
420.500	1	-1
421.695	1	-8
422.889	1	-9
424.084	1	-4
425.278	1	11
426.472	1	5
427.667	1	0
428.861	1	-1
430.055	1	3
431.250	1	10
432.444	1	2
433.638	1	-2
434.832	1	4
436.026	1	3
437.220	1	12
438.414	1	-2
439.608	1	-13
440.802	1	-3
441.996	1	2
443.190	1	1
444.384	1	-9
445.578	1	-8
446.771	1	2
447.965	1	-6
449.159	1	-1
450.352	1	-2
451.546	1	-1
452.739	1	3
453.933	1	0
455.126	1	-6
456.320	1	-7
457.513	1	-2
458.706	1	-1
459.899	1	2
461.093	1	-3
462.286	1	-6
463.479	1	1
464.672	1	-3
465.865	1	-3
467.058	1	-1
468.251	1	9
469.444	1	-6
470.637	1	4
471.830	1	6
473.023	1	5
474.215	1	11
475.408	1	7
476.601	1	-1
477.793	1	1
478.986	1	3
480.179	1	-2
481.371	1	2
482.564	1	6
483.756	1	5
484.948	1	-11
486.141	1	3
487.333	1	3
488.525	1	-4
489.718	1	3
490.910	1	-5
492.102	1	-4
493.294	1	-5
494.486	1	-2
495.678	1	-2
496.870	1	-2
498.062	1	0
499.254	1	-1
500.446	1	-8
501.638	1	-3
502.829	1	3
504.021	1	8
505.213	1	-6
506.404	1	-1
507.596	1	5
508.788	1	8
509.979	1	-5
511.171	1	0
512.362	1	-1
513.553	1	-12
514.745	1	5
515.936	1	-5
517.127	1	9
518.319	1	2
519.510	1	2
520.701	1	-7
521.892	1	10
523.083	1	-4
524.274	1	7
525.465	1	11
526.656	1	-4
527.847	1	9
529.038	1	3
530.229	1	5
531.419	1	0
532.610	1	0
533.801	1	8
534.991	1	3
536.182	1	5
537.373	1	4
538.563	1	4
539.754	1	11
540.944	1	0
542.134	1	14
543.325	1	-3
544.515	1	-2
545.705	1	7
546.896	1	5
548.086	1	-1
549.276	1	-4
550.466	1	4
551.656	1	8
552.846	1	7
554.036	1	3
555.226	1	2
556.416	1	-3
557.606	1	4
558.796	1	7
559.986	1	-4
561.175	1	1
562.365	1	5
563.555	1	3
564.744	1	2
565.934	1	3
567.123	1	-5
568.313	1	10
569.502	1	-5
570.692	1	10
571.881	1	11
573.070	1	9
574.260	1	14
575.449	1	1
576.638	1	-4
577.827	1	-3
579.016	1	16
580.205	1	3
581.394	1	2
582.583	1	9
583.772	1	10
584.961	1	-1
586.150	1	-1
587.339	1	0
588.528	1	6
589.717	1	2
590.905	1	8
592.094	1	-3
593.283	1	9
594.471	1	14
595.660	1	-8
596.848	1	0
598.037	1	-1
599.225	1	-5
600.413	1	8
601.602	1	13
602.790	1	0
603.978	1	-6
605.166	1	4
606.355	1	8
607.543	1	3
608.731	1	4
609.919	1	10
611.107	1	-1
612.295	1	-5
613.483	1	16
614.671	1	1
615.858	1	8
617.046	1	3
618.234	1	4
619.422	1	-4
620.609	1	6
621.797	1	1
622.985	1	5
624.172	1	1
625.360	1	6
626.547	1	-7
627.735	1	4
628.922	1	1
630.109	1	-4
631.297	1	-7
632.484	1	1
633.671	1	2
634.858	1	-5
636.045	1	4
637.232	1	-7
638.419	1	-2
639.606	1	10
640.793	1	6
641.980	1	4
643.167	1	3
644.354	1	3
645.541	1	-1
646.728	1	-5
647.914	1	-5
649.101	1	-2
650.288	1	4
651.474	1	2
652.661	1	-6
653.847	1	11
655.034	1	8
656.220	1	2
657.406	1	2
658.593	1	4
659.779	1	7
660.965	1	14
662.152	1	-5
663.338	1	13
664.524	1	7
665.710	1	-5
666.896	1	-1
668.082	1	9
669.268	1	-1
670.454	1	2
671.640	1	-2
672.826	1	6
674.011	1	-3
675.197	1	-12
676.383	1	6
677.569	1	0
678.754	1	-4
679.940	1	0
681.125	1	5
682.311	1	11
683.496	1	-3
684.682	1	-4
685.867	1	-1
687.053	1	3
688.238	1	3
688.746	1	3

File: GaN_sample F_spot 12_UVVIS_200 K_200um_800 ms 2x2mm1_186.txt
340.368	1	4
341.565	1	-6
342.763	1	9
343.960	1	-4
345.157	1	-10
346.354	1	-3
347.552	1	-7
348.749	1	-10
349.946	1	3
351.143	1	-3
352.340	1	8
353.537	1	4
354.734	1	-5
355.931	1	0
357.127	1	2
358.324	1	11
359.521	1	12
360.718	1	11
361.914	1	11
363.111	1	12
364.308	1	13
365.504	1	23
366.701	1	32
367.897	1	29
369.093	1	35
370.290	1	30
371.486	1	40
372.682	1	28
373.879	1	19
375.075	1	16
376.271	1	26
377.467	1	18
378.663	1	14
379.859	1	4
381.055	1	15
382.251	1	4
383.447	1	7
384.643	1	13
385.839	1	8
387.035	1	0
388.230	1	12
389.426	1	1
390.622	1	-1
391.817	1	0
393.013	1	-2
394.208	1	-4
395.404	1	-3
396.599	1	2
397.795	1	5
398.990	1	6
400.186	1	2
401.381	1	-2
402.576	1	1
403.771	1	0
404.967	1	10
406.162	1	4
407.357	1	-2
408.552	1	-5
409.747	1	-4
410.942	1	11
412.137	1	5
413.332	1	2
414.526	1	-1
415.721	1	3
416.916	1	-2
418.111	1	7
419.305	1	9
420.500	1	-2
421.695	1	-1
422.889	1	-8
424.084	1	2
425.278	1	16
426.472	1	2
427.667	1	-3
428.861	1	1
430.055	1	4
431.250	1	1
432.444	1	10
433.638	1	-13
434.832	1	9
436.026	1	15
437.220	1	8
438.414	1	-5
439.608	1	-7
440.802	1	-4
441.996	1	3
443.190	1	-5
444.384	1	-7
445.578	1	-7
446.771	1	5
447.965	1	-7
449.159	1	-2
450.352	1	-2
451.546	1	2
452.739	1	2
453.933	1	-5
455.126	1	-6
456.320	1	0
457.513	1	4
458.706	1	4
459.899	1	3
461.093	1	6
462.286	1	0
463.479	1	-1
464.672	1	8
465.865	1	-7
467.058	1	-3
468.251	1	4
469.444	1	-11
470.637	1	-2
471.830	1	9
473.023	1	5
474.215	1	9
475.408	1	6
476.601	1	2
477.793	1	2
478.986	1	-2
480.179	1	8
481.371	1	1
482.564	1	8
483.756	1	8
484.948	1	-6
486.141	1	-8
487.333	1	7
488.525	1	4
489.718	1	-9
490.910	1	0
492.102	1	2
493.294	1	3
494.486	1	7
495.678	1	7
496.870	1	9
498.062	1	-1
499.254	1	6
500.446	1	-6
501.638	1	-3
502.829	1	7
504.021	1	6
505.213	1	9
506.404	1	4
507.596	1	7
508.788	1	16
509.979	1	-4
511.171	1	6
512.362	1	-5
513.553	1	-1
514.745	1	-1
515.936	1	2
517.127	1	-3
518.319	1	4
519.510	1	7
520.701	1	8
521.892	1	3
523.083	1	-4
524.274	1	-6
525.465	1	5
526.656	1	-5
527.847	1	-3
529.038	1	15
530.229	1	5
531.419	1	14
532.610	1	-6
533.801	1	12
534.991	1	1
536.182	1	-1
537.373	1	2
538.563	1	5
539.754	1	8
540.944	1	-2
542.134	1	7
543.325	1	5
544.515	1	0
545.705	1	1
546.896	1	-1
548.086	1	6
549.276	1	-2
550.466	1	2
551.656	1	5
552.846	1	2
554.036	1	4
555.226	1	-9
556.416	1	-9
557.606	1	6
558.796	1	-7
559.986	1	1
561.175	1	8
562.365	1	1
563.555	1	3
564.744	1	6
565.934	1	5
567.123	1	5
568.313	1	3
569.502	1	-4
570.692	1	9
571.881	1	24
573.070	1	0
574.260	1	7
575.449	1	9
576.638	1	-3
577.827	1	3
579.016	1	4
580.205	1	2
581.394	1	2
582.583	1	11
583.772	1	13
584.961	1	6
586.150	1	-2
587.339	1	-2
588.528	1	6
589.717	1	-1
590.905	1	3
592.094	1	-3
593.283	1	3
594.471	1	12
595.660	1	5
596.848	1	4
598.037	1	5
599.225	1	-7
600.413	1	8
601.602	1	19
602.790	1	-1
603.978	1	-6
605.166	1	8
606.355	1	6
607.543	1	-6
608.731	1	8
609.919	1	12
611.107	1	-3
612.295	1	3
613.483	1	4
614.671	1	1
615.858	1	0
617.046	1	13
618.234	1	2
619.422	1	2
620.609	1	6
621.797	1	4
622.985	1	6
624.172	1	-2
625.360	1	-1
626.547	1	12
627.735	1	2
628.922	1	5
630.109	1	-6
631.297	1	-4
632.484	1	2
633.671	1	-3
634.858	1	0
636.045	1	13
637.232	1	2
638.419	1	5
639.606	1	6
640.793	1	8
641.980	1	-2
643.167	1	-3
644.354	1	-2
645.541	1	8
646.728	1	2
647.914	1	3
649.101	1	0
650.288	1	6
651.474	1	-6
652.661	1	5
653.847	1	1
655.034	1	1
656.220	1	-9
657.406	1	3
658.593	1	11
659.779	1	1
660.965	1	9
662.152	1	6
663.338	1	12
664.524	1	4
665.710	1	4
666.896	1	-5
668.082	1	8
669.268	1	4
670.454	1	4
671.640	1	2
672.826	1	3
674.011	1	10
675.197	1	-4
676.383	1	9
677.569	1	-1
678.754	1	-2
679.940	1	-1
681.125	1	13
682.311	1	7
683.496	1	4
684.682	1	-4
685.867	1	-5
687.053	1	0
688.238	1	3
688.746	1	6