Folder: cryo-il_analysis/Data/GaN_200K_800ms (part 2)

File: GaN_sample F_spot 12_UVVIS_200 K_200um_800 ms 2x2mm1_14.txt
340.368	1	3
341.565	1	0
342.763	1	8
343.960	1	-2
345.157	1	-5
346.354	1	5
347.552	1	-7
348.749	1	-10
349.946	1	-10
351.143	1	-6
352.340	1	-2
353.537	1	5
354.734	1	5
355.931	1	0
357.127	1	2
358.324	1	4
359.521	1	8
360.718	1	2
361.914	1	7
363.111	1	-4
364.308	1	0
365.504	1	10
366.701	1	-3
367.897	1	-3
369.093	1	-7
370.290	1	-6
371.486	1	-7
372.682	1	-4
373.879	1	3
375.075	1	-2
376.271	1	3
377.467	1	3
378.663	1	-2
379.859	1	3
381.055	1	14
382.251	1	2
383.447	1	1
384.643	1	10
385.839	1	0
387.035	1	-2
388.230	1	0
389.426	1	-6
390.622	1	3
391.817	1	3
393.013	1	1
394.208	1	4
395.404	1	0
396.599	1	-2
397.795	1	-2
398.990	1	-1
400.186	1	2
401.381	1	-1
402.576	1	0
403.771	1	6
404.967	1	-2
406.162	1	8
407.357	1	-8
408.552	1	-4
409.747	1	-3
410.942	1	12
412.137	1	5
413.332	1	3
414.526	1	-1
415.721	1	2
416.916	1	1
418.111	1	4
419.305	1	0
420.500	1	2
421.695	1	-3
422.889	1	-8
424.084	1	-2
425.278	1	5
426.472	1	0
427.667	1	7
428.861	1	1
430.055	1	1
431.250	1	-5
432.444	1	-3
433.638	1	-2
434.832	1	11
436.026	1	2
437.220	1	-3
438.414	1	-6
439.608	1	-6
440.802	1	-5
441.996	1	6
443.190	1	5
444.384	1	-11
445.578	1	-10
446.771	1	16
447.965	1	-1
449.159	1	2
450.352	1	5
451.546	1	4
452.739	1	3
453.933	1	-6
455.126	1	-5
456.320	1	6
457.513	1	6
458.706	1	1
459.899	1	-6
461.093	1	4
462.286	1	5
463.479	1	0
464.672	1	-2
465.865	1	-1
467.058	1	8
468.251	1	9
469.444	1	1
470.637	1	1
471.830	1	-5
473.023	1	-2
474.215	1	5
475.408	1	8
476.601	1	2
477.793	1	3
478.986	1	-9
480.179	1	1
481.371	1	4
482.564	1	2
483.756	1	6
484.948	1	-7
486.141	1	0
487.333	1	7
488.525	1	2
489.718	1	0
490.910	1	-1
492.102	1	-7
493.294	1	0
494.486	1	5
495.678	1	1
496.870	1	3
498.062	1	-2
499.254	1	-1
500.446	1	-6
501.638	1	-5
502.829	1	7
504.021	1	-1
505.213	1	-3
506.404	1	2
507.596	1	3
508.788	1	5
509.979	1	-1
511.171	1	-2
512.362	1	-12
513.553	1	-10
514.745	1	1
515.936	1	-2
517.127	1	-4
518.319	1	-2
519.510	1	-6
520.701	1	5
521.892	1	7
523.083	1	-5
524.274	1	8
525.465	1	7
526.656	1	5
527.847	1	8
529.038	1	3
530.229	1	0
531.419	1	7
532.610	1	-10
533.801	1	6
534.991	1	4
536.182	1	3
537.373	1	-6
538.563	1	7
539.754	1	5
540.944	1	-4
542.134	1	8
543.325	1	1
544.515	1	6
545.705	1	-2
546.896	1	-1
548.086	1	4
549.276	1	-3
550.466	1	1
551.656	1	6
552.846	1	7
554.036	1	-1
555.226	1	-5
556.416	1	-2
557.606	1	3
558.796	1	-3
559.986	1	-7
561.175	1	13
562.365	1	7
563.555	1	-4
564.744	1	4
565.934	1	8
567.123	1	8
568.313	1	3
569.502	1	4
570.692	1	-3
571.881	1	7
573.070	1	-1
574.260	1	2
575.449	1	0
576.638	1	-5
577.827	1	-3
579.016	1	0
580.205	1	0
581.394	1	1
582.583	1	12
583.772	1	4
584.961	1	4
586.150	1	1
587.339	1	3
588.528	1	3
589.717	1	-3
590.905	1	4
592.094	1	-1
593.283	1	-3
594.471	1	8
595.660	1	-3
596.848	1	5
598.037	1	1
599.225	1	-1
600.413	1	2
601.602	1	6
602.790	1	-11
603.978	1	2
605.166	1	-2
606.355	1	1
607.543	1	-9
608.731	1	2
609.919	1	4
611.107	1	7
612.295	1	-9
613.483	1	6
614.671	1	9
615.858	1	-1
617.046	1	-1
618.234	1	-1
619.422	1	-11
620.609	1	-2
621.797	1	-5
622.985	1	2
624.172	1	-3
625.360	1	6
626.547	1	-2
627.735	1	2
628.922	1	7
630.109	1	-3
631.297	1	-1
632.484	1	-8
633.671	1	6
634.858	1	-10
636.045	1	17
637.232	1	2
638.419	1	-3
639.606	1	2
640.793	1	2
641.980	1	12
643.167	1	-5
644.354	1	3
645.541	1	6
646.728	1	-7
647.914	1	-5
649.101	1	-1
650.288	1	8
651.474	1	-1
652.661	1	-2
653.847	1	8
655.034	1	0
656.220	1	-1
657.406	1	2
658.593	1	4
659.779	1	4
660.965	1	-3
662.152	1	2
663.338	1	7
664.524	1	3
665.710	1	1
666.896	1	-7
668.082	1	8
669.268	1	-5
670.454	1	3
671.640	1	3
672.826	1	-4
674.011	1	3
675.197	1	5
676.383	1	-6
677.569	1	-4
678.754	1	-4
679.940	1	3
681.125	1	10
682.311	1	14
683.496	1	-3
684.682	1	-7
685.867	1	1
687.053	1	8
688.238	1	10
688.746	1	-7

File: GaN_sample F_spot 12_UVVIS_200 K_200um_800 ms 2x2mm1_15.txt
340.368	1	0
341.565	1	-13
342.763	1	4
343.960	1	5
345.157	1	-7
346.354	1	1
347.552	1	-5
348.749	1	-7
349.946	1	-5
351.143	1	0
352.340	1	5
353.537	1	-3
354.734	1	3
355.931	1	1
357.127	1	-2
358.324	1	-2
359.521	1	1
360.718	1	-3
361.914	1	9
363.111	1	-1
364.308	1	-13
365.504	1	2
366.701	1	0
367.897	1	-2
369.093	1	-3
370.290	1	1
371.486	1	6
372.682	1	1
373.879	1	-4
375.075	1	-1
376.271	1	6
377.467	1	-1
378.663	1	0
379.859	1	-4
381.055	1	-2
382.251	1	-8
383.447	1	-4
384.643	1	8
385.839	1	-4
387.035	1	3
388.230	1	10
389.426	1	-6
390.622	1	2
391.817	1	2
393.013	1	4
394.208	1	1
395.404	1	-3
396.599	1	-14
397.795	1	2
398.990	1	-11
400.186	1	-6
401.381	1	0
402.576	1	5
403.771	1	5
404.967	1	6
406.162	1	11
407.357	1	-3
408.552	1	-3
409.747	1	-2
410.942	1	8
412.137	1	5
413.332	1	2
414.526	1	-3
415.721	1	10
416.916	1	-8
418.111	1	-2
419.305	1	-5
420.500	1	-5
421.695	1	-3
422.889	1	-9
424.084	1	0
425.278	1	7
426.472	1	4
427.667	1	0
428.861	1	-6
430.055	1	10
431.250	1	3
432.444	1	7
433.638	1	-5
434.832	1	3
436.026	1	9
437.220	1	0
438.414	1	-4
439.608	1	-15
440.802	1	-1
441.996	1	2
443.190	1	9
444.384	1	-14
445.578	1	-11
446.771	1	4
447.965	1	5
449.159	1	-4
450.352	1	-1
451.546	1	0
452.739	1	0
453.933	1	3
455.126	1	1
456.320	1	1
457.513	1	7
458.706	1	3
459.899	1	5
461.093	1	0
462.286	1	-1
463.479	1	-3
464.672	1	4
465.865	1	-4
467.058	1	-2
468.251	1	1
469.444	1	1
470.637	1	7
471.830	1	1
473.023	1	9
474.215	1	5
475.408	1	9
476.601	1	2
477.793	1	5
478.986	1	-4
480.179	1	-7
481.371	1	10
482.564	1	5
483.756	1	5
484.948	1	-6
486.141	1	3
487.333	1	3
488.525	1	-4
489.718	1	-2
490.910	1	10
492.102	1	-10
493.294	1	-11
494.486	1	3
495.678	1	1
496.870	1	10
498.062	1	-4
499.254	1	-3
500.446	1	-9
501.638	1	-4
502.829	1	2
504.021	1	-11
505.213	1	9
506.404	1	4
507.596	1	3
508.788	1	12
509.979	1	-1
511.171	1	-4
512.362	1	-5
513.553	1	-6
514.745	1	0
515.936	1	1
517.127	1	1
518.319	1	-5
519.510	1	7
520.701	1	1
521.892	1	-8
523.083	1	-4
524.274	1	3
525.465	1	5
526.656	1	1
527.847	1	-5
529.038	1	4
530.229	1	7
531.419	1	10
532.610	1	0
533.801	1	13
534.991	1	1
536.182	1	0
537.373	1	-1
538.563	1	8
539.754	1	11
540.944	1	-3
542.134	1	6
543.325	1	2
544.515	1	-4
545.705	1	-4
546.896	1	6
548.086	1	-3
549.276	1	-2
550.466	1	2
551.656	1	5
552.846	1	6
554.036	1	0
555.226	1	-8
556.416	1	-4
557.606	1	7
558.796	1	7
559.986	1	-3
561.175	1	0
562.365	1	6
563.555	1	-9
564.744	1	0
565.934	1	4
567.123	1	1
568.313	1	4
569.502	1	-3
570.692	1	4
571.881	1	11
573.070	1	-4
574.260	1	5
575.449	1	-7
576.638	1	2
577.827	1	3
579.016	1	8
580.205	1	5
581.394	1	0
582.583	1	7
583.772	1	5
584.961	1	8
586.150	1	1
587.339	1	3
588.528	1	2
589.717	1	5
590.905	1	-2
592.094	1	-3
593.283	1	4
594.471	1	9
595.660	1	3
596.848	1	3
598.037	1	3
599.225	1	-3
600.413	1	8
601.602	1	9
602.790	1	0
603.978	1	1
605.166	1	0
606.355	1	6
607.543	1	-3
608.731	1	-7
609.919	1	5
611.107	1	4
612.295	1	-8
613.483	1	5
614.671	1	0
615.858	1	6
617.046	1	-1
618.234	1	-5
619.422	1	-3
620.609	1	7
621.797	1	-1
622.985	1	-2
624.172	1	1
625.360	1	8
626.547	1	6
627.735	1	6
628.922	1	10
630.109	1	-6
631.297	1	-9
632.484	1	0
633.671	1	0
634.858	1	-1
636.045	1	9
637.232	1	-2
638.419	1	0
639.606	1	10
640.793	1	12
641.980	1	11
643.167	1	1
644.354	1	5
645.541	1	5
646.728	1	2
647.914	1	-2
649.101	1	-9
650.288	1	11
651.474	1	-2
652.661	1	-5
653.847	1	4
655.034	1	1
656.220	1	-2
657.406	1	2
658.593	1	11
659.779	1	-2
660.965	1	12
662.152	1	4
663.338	1	8
664.524	1	-1
665.710	1	0
666.896	1	-5
668.082	1	6
669.268	1	-1
670.454	1	2
671.640	1	-3
672.826	1	-9
674.011	1	4
675.197	1	-8
676.383	1	9
677.569	1	1
678.754	1	-5
679.940	1	1
681.125	1	0
682.311	1	5
683.496	1	0
684.682	1	-3
685.867	1	3
687.053	1	-1
688.238	1	4
688.746	1	1

File: GaN_sample F_spot 12_UVVIS_200 K_200um_800 ms 2x2mm1_17.txt
340.368	1	3
341.565	1	-8
342.763	1	7
343.960	1	-1
345.157	1	-1
346.354	1	0
347.552	1	-2
348.749	1	-4
349.946	1	-6
351.143	1	-3
352.340	1	8
353.537	1	-1
354.734	1	7
355.931	1	-4
357.127	1	0
358.324	1	-5
359.521	1	-2
360.718	1	0
361.914	1	3
363.111	1	0
364.308	1	1
365.504	1	10
366.701	1	1
367.897	1	3
369.093	1	1
370.290	1	0
371.486	1	7
372.682	1	2
373.879	1	-3
375.075	1	-2
376.271	1	7
377.467	1	10
378.663	1	-4
379.859	1	-5
381.055	1	11
382.251	1	-3
383.447	1	-4
384.643	1	5
385.839	1	2
387.035	1	2
388.230	1	7
389.426	1	5
390.622	1	5
391.817	1	6
393.013	1	0
394.208	1	-7
395.404	1	-8
396.599	1	-3
397.795	1	-1
398.990	1	2
400.186	1	8
401.381	1	-2
402.576	1	2
403.771	1	5
404.967	1	4
406.162	1	12
407.357	1	2
408.552	1	-1
409.747	1	-5
410.942	1	11
412.137	1	8
413.332	1	-5
414.526	1	-6
415.721	1	1
416.916	1	-6
418.111	1	-4
419.305	1	9
420.500	1	3
421.695	1	-5
422.889	1	-5
424.084	1	3
425.278	1	7
426.472	1	-1
427.667	1	7
428.861	1	-11
430.055	1	13
431.250	1	6
432.444	1	9
433.638	1	-3
434.832	1	1
436.026	1	6
437.220	1	3
438.414	1	-2
439.608	1	3
440.802	1	-2
441.996	1	-2
443.190	1	4
444.384	1	-8
445.578	1	-4
446.771	1	10
447.965	1	-3
449.159	1	-6
450.352	1	4
451.546	1	-5
452.739	1	4
453.933	1	4
455.126	1	-4
456.320	1	-6
457.513	1	1
458.706	1	-2
459.899	1	-3
461.093	1	1
462.286	1	8
463.479	1	-1
464.672	1	2
465.865	1	4
467.058	1	-2
468.251	1	8
469.444	1	-2
470.637	1	5
471.830	1	4
473.023	1	7
474.215	1	10
475.408	1	9
476.601	1	5
477.793	1	5
478.986	1	-2
480.179	1	10
481.371	1	9
482.564	1	3
483.756	1	9
484.948	1	-1
486.141	1	1
487.333	1	0
488.525	1	-8
489.718	1	3
490.910	1	6
492.102	1	3
493.294	1	-3
494.486	1	2
495.678	1	-4
496.870	1	6
498.062	1	2
499.254	1	4
500.446	1	-1
501.638	1	-3
502.829	1	4
504.021	1	-2
505.213	1	6
506.404	1	3
507.596	1	2
508.788	1	7
509.979	1	4
511.171	1	-1
512.362	1	-6
513.553	1	-3
514.745	1	-2
515.936	1	-5
517.127	1	2
518.319	1	6
519.510	1	1
520.701	1	-4
521.892	1	1
523.083	1	1
524.274	1	3
525.465	1	7
526.656	1	-2
527.847	1	6
529.038	1	7
530.229	1	-4
531.419	1	4
532.610	1	-5
533.801	1	18
534.991	1	-1
536.182	1	1
537.373	1	9
538.563	1	2
539.754	1	8
540.944	1	0
542.134	1	7
543.325	1	3
544.515	1	-2
545.705	1	7
546.896	1	-4
548.086	1	2
549.276	1	-6
550.466	1	-3
551.656	1	0
552.846	1	-2
554.036	1	-5
555.226	1	-2
556.416	1	1
557.606	1	9
558.796	1	1
559.986	1	2
561.175	1	-3
562.365	1	11
563.555	1	-7
564.744	1	6
565.934	1	3
567.123	1	6
568.313	1	-4
569.502	1	4
570.692	1	-2
571.881	1	7
573.070	1	5
574.260	1	6
575.449	1	-5
576.638	1	-6
577.827	1	-4
579.016	1	12
580.205	1	-5
581.394	1	-8
582.583	1	8
583.772	1	0
584.961	1	5
586.150	1	-2
587.339	1	8
588.528	1	7
589.717	1	2
590.905	1	3
592.094	1	-8
593.283	1	1
594.471	1	8
595.660	1	-7
596.848	1	0
598.037	1	0
599.225	1	-6
600.413	1	4
601.602	1	5
602.790	1	3
603.978	1	6
605.166	1	4
606.355	1	4
607.543	1	-4
608.731	1	0
609.919	1	9
611.107	1	-6
612.295	1	-13
613.483	1	7
614.671	1	2
615.858	1	3
617.046	1	2
618.234	1	0
619.422	1	-6
620.609	1	6
621.797	1	-1
622.985	1	8
624.172	1	-4
625.360	1	4
626.547	1	8
627.735	1	1
628.922	1	-2
630.109	1	-13
631.297	1	-2
632.484	1	1
633.671	1	1
634.858	1	-5
636.045	1	13
637.232	1	-1
638.419	1	2
639.606	1	7
640.793	1	13
641.980	1	12
643.167	1	3
644.354	1	12
645.541	1	5
646.728	1	0
647.914	1	-8
649.101	1	5
650.288	1	12
651.474	1	-6
652.661	1	-7
653.847	1	15
655.034	1	1
656.220	1	-12
657.406	1	0
658.593	1	9
659.779	1	7
660.965	1	8
662.152	1	-4
663.338	1	4
664.524	1	6
665.710	1	3
666.896	1	-3
668.082	1	5
669.268	1	0
670.454	1	6
671.640	1	8
672.826	1	-1
674.011	1	4
675.197	1	-7
676.383	1	0
677.569	1	2
678.754	1	-3
679.940	1	-2
681.125	1	10
682.311	1	10
683.496	1	1
684.682	1	-8
685.867	1	-4
687.053	1	9
688.238	1	2
688.746	1	-6

File: GaN_sample F_spot 12_UVVIS_200 K_200um_800 ms 2x2mm1_21.txt
340.368	1	3
341.565	1	1
342.763	1	5
343.960	1	2
345.157	1	-5
346.354	1	6
347.552	1	-5
348.749	1	-15
349.946	1	1
351.143	1	4
352.340	1	-1
353.537	1	4
354.734	1	5
355.931	1	-4
357.127	1	3
358.324	1	5
359.521	1	4
360.718	1	-1
361.914	1	-3
363.111	1	-7
364.308	1	-5
365.504	1	3
366.701	1	-8
367.897	1	3
369.093	1	-7
370.290	1	-6
371.486	1	4
372.682	1	2
373.879	1	0
375.075	1	-10
376.271	1	8
377.467	1	-3
378.663	1	-14
379.859	1	5
381.055	1	8
382.251	1	-9
383.447	1	0
384.643	1	3
385.839	1	0
387.035	1	3
388.230	1	10
389.426	1	5
390.622	1	-6
391.817	1	8
393.013	1	9
394.208	1	0
395.404	1	-3
396.599	1	11
397.795	1	-2
398.990	1	1
400.186	1	-3
401.381	1	-2
402.576	1	2
403.771	1	3
404.967	1	-3
406.162	1	4
407.357	1	-2
408.552	1	-1
409.747	1	-1
410.942	1	4
412.137	1	6
413.332	1	9
414.526	1	-5
415.721	1	-1
416.916	1	-3
418.111	1	5
419.305	1	3
420.500	1	-2
421.695	1	-8
422.889	1	-10
424.084	1	-5
425.278	1	15
426.472	1	-2
427.667	1	5
428.861	1	4
430.055	1	0
431.250	1	0
432.444	1	11
433.638	1	-1
434.832	1	2
436.026	1	18
437.220	1	6
438.414	1	-1
439.608	1	-15
440.802	1	-4
441.996	1	6
443.190	1	-2
444.384	1	-11
445.578	1	0
446.771	1	4
447.965	1	0
449.159	1	-9
450.352	1	6
451.546	1	1
452.739	1	6
453.933	1	1
455.126	1	-3
456.320	1	-2
457.513	1	0
458.706	1	0
459.899	1	0
461.093	1	-5
462.286	1	0
463.479	1	6
464.672	1	0
465.865	1	-1
467.058	1	-1
468.251	1	9
469.444	1	-6
470.637	1	0
471.830	1	6
473.023	1	8
474.215	1	9
475.408	1	-5
476.601	1	-1
477.793	1	-4
478.986	1	2
480.179	1	0
481.371	1	7
482.564	1	-4
483.756	1	1
484.948	1	-9
486.141	1	4
487.333	1	-7
488.525	1	-5
489.718	1	1
490.910	1	2
492.102	1	-2
493.294	1	-4
494.486	1	10
495.678	1	6
496.870	1	1
498.062	1	0
499.254	1	3
500.446	1	-12
501.638	1	-7
502.829	1	6
504.021	1	-2
505.213	1	11
506.404	1	6
507.596	1	8
508.788	1	15
509.979	1	-7
511.171	1	-7
512.362	1	-6
513.553	1	-5
514.745	1	-7
515.936	1	0
517.127	1	1
518.319	1	-8
519.510	1	3
520.701	1	4
521.892	1	11
523.083	1	-3
524.274	1	-2
525.465	1	11
526.656	1	1
527.847	1	6
529.038	1	7
530.229	1	-8
531.419	1	11
532.610	1	-3
533.801	1	10
534.991	1	-8
536.182	1	3
537.373	1	1
538.563	1	8
539.754	1	5
540.944	1	-4
542.134	1	10
543.325	1	6
544.515	1	-7
545.705	1	-1
546.896	1	-4
548.086	1	2
549.276	1	1
550.466	1	-5
551.656	1	0
552.846	1	0
554.036	1	3
555.226	1	-2
556.416	1	-2
557.606	1	4
558.796	1	-4
559.986	1	-5
561.175	1	1
562.365	1	9
563.555	1	-6
564.744	1	6
565.934	1	7
567.123	1	1
568.313	1	8
569.502	1	-6
570.692	1	3
571.881	1	13
573.070	1	3
574.260	1	6
575.449	1	-7
576.638	1	-3
577.827	1	-8
579.016	1	13
580.205	1	1
581.394	1	1
582.583	1	19
583.772	1	5
584.961	1	3
586.150	1	-5
587.339	1	-1
588.528	1	3
589.717	1	-2
590.905	1	0
592.094	1	4
593.283	1	-2
594.471	1	9
595.660	1	-3
596.848	1	-2
598.037	1	-6
599.225	1	-8
600.413	1	4
601.602	1	7
602.790	1	-4
603.978	1	2
605.166	1	-2
606.355	1	3
607.543	1	4
608.731	1	2
609.919	1	16
611.107	1	-6
612.295	1	-2
613.483	1	1
614.671	1	7
615.858	1	5
617.046	1	3
618.234	1	-5
619.422	1	-11
620.609	1	6
621.797	1	3
622.985	1	-5
624.172	1	2
625.360	1	-3
626.547	1	2
627.735	1	6
628.922	1	4
630.109	1	-7
631.297	1	0
632.484	1	-1
633.671	1	-5
634.858	1	-3
636.045	1	3
637.232	1	-1
638.419	1	-5
639.606	1	3
640.793	1	10
641.980	1	-1
643.167	1	-7
644.354	1	4
645.541	1	3
646.728	1	5
647.914	1	4
649.101	1	1
650.288	1	2
651.474	1	0
652.661	1	-3
653.847	1	11
655.034	1	9
656.220	1	1
657.406	1	7
658.593	1	4
659.779	1	4
660.965	1	11
662.152	1	1
663.338	1	7
664.524	1	4
665.710	1	6
666.896	1	-4
668.082	1	-2
669.268	1	2
670.454	1	11
671.640	1	4
672.826	1	-3
674.011	1	1
675.197	1	-7
676.383	1	-2
677.569	1	-2
678.754	1	-4
679.940	1	4
681.125	1	1
682.311	1	8
683.496	1	3
684.682	1	-7
685.867	1	3
687.053	1	6
688.238	1	1
688.746	1	-1

File: GaN_sample F_spot 12_UVVIS_200 K_200um_800 ms 2x2mm1_22.txt
340.368	1	2
341.565	1	-8
342.763	1	1
343.960	1	9
345.157	1	-2
346.354	1	0
347.552	1	-3
348.749	1	3
349.946	1	4
351.143	1	-1
352.340	1	4
353.537	1	0
354.734	1	9
355.931	1	-3
357.127	1	-1
358.324	1	-6
359.521	1	1
360.718	1	-4
361.914	1	4
363.111	1	3
364.308	1	-5
365.504	1	10
366.701	1	4
367.897	1	7
369.093	1	-9
370.290	1	2
371.486	1	3
372.682	1	0
373.879	1	0
375.075	1	-8
376.271	1	8
377.467	1	8
378.663	1	0
379.859	1	4
381.055	1	1
382.251	1	-2
383.447	1	-6
384.643	1	8
385.839	1	-2
387.035	1	0
388.230	1	6
389.426	1	1
390.622	1	-1
391.817	1	10
393.013	1	4
394.208	1	8
395.404	1	2
396.599	1	1
397.795	1	8
398.990	1	5
400.186	1	4
401.381	1	-3
402.576	1	-3
403.771	1	3
404.967	1	3
406.162	1	9
407.357	1	-11
408.552	1	4
409.747	1	7
410.942	1	7
412.137	1	9
413.332	1	5
414.526	1	-2
415.721	1	5
416.916	1	-1
418.111	1	-6
419.305	1	5
420.500	1	-3
421.695	1	-5
422.889	1	-10
424.084	1	3
425.278	1	11
426.472	1	0
427.667	1	9
428.861	1	-6
430.055	1	5
431.250	1	-2
432.444	1	9
433.638	1	-10
434.832	1	-1
436.026	1	7
437.220	1	2
438.414	1	-2
439.608	1	-2
440.802	1	-4
441.996	1	6
443.190	1	-6
444.384	1	-5
445.578	1	-7
446.771	1	7
447.965	1	-2
449.159	1	-7
450.352	1	3
451.546	1	-5
452.739	1	0
453.933	1	5
455.126	1	2
456.320	1	6
457.513	1	14
458.706	1	11
459.899	1	4
461.093	1	1
462.286	1	6
463.479	1	3
464.672	1	3
465.865	1	-9
467.058	1	-1
468.251	1	-3
469.444	1	-4
470.637	1	3
471.830	1	-1
473.023	1	10
474.215	1	9
475.408	1	1
476.601	1	-6
477.793	1	0
478.986	1	-5
480.179	1	-3
481.371	1	-1
482.564	1	4
483.756	1	5
484.948	1	1
486.141	1	-5
487.333	1	2
488.525	1	9
489.718	1	0
490.910	1	3
492.102	1	3
493.294	1	-1
494.486	1	0
495.678	1	2
496.870	1	6
498.062	1	6
499.254	1	3
500.446	1	-11
501.638	1	2
502.829	1	-2
504.021	1	3
505.213	1	8
506.404	1	-2
507.596	1	-2
508.788	1	11
509.979	1	-1
511.171	1	-11
512.362	1	5
513.553	1	-15
514.745	1	-5
515.936	1	1
517.127	1	2
518.319	1	-5
519.510	1	13
520.701	1	8
521.892	1	8
523.083	1	0
524.274	1	8
525.465	1	5
526.656	1	3
527.847	1	10
529.038	1	6
530.229	1	-2
531.419	1	8
532.610	1	-5
533.801	1	17
534.991	1	-6
536.182	1	-8
537.373	1	1
538.563	1	5
539.754	1	-7
540.944	1	1
542.134	1	8
543.325	1	-4
544.515	1	-1
545.705	1	-9
546.896	1	1
548.086	1	1
549.276	1	13
550.466	1	5
551.656	1	3
552.846	1	3
554.036	1	4
555.226	1	-5
556.416	1	2
557.606	1	11
558.796	1	5
559.986	1	-10
561.175	1	-10
562.365	1	5
563.555	1	-4
564.744	1	1
565.934	1	7
567.123	1	2
568.313	1	3
569.502	1	-1
570.692	1	6
571.881	1	10
573.070	1	5
574.260	1	10
575.449	1	2
576.638	1	0
577.827	1	1
579.016	1	3
580.205	1	-4
581.394	1	-10
582.583	1	12
583.772	1	4
584.961	1	3
586.150	1	6
587.339	1	-1
588.528	1	3
589.717	1	-1
590.905	1	6
592.094	1	-2
593.283	1	4
594.471	1	8
595.660	1	1
596.848	1	5
598.037	1	4
599.225	1	-9
600.413	1	15
601.602	1	8
602.790	1	9
603.978	1	-6
605.166	1	10
606.355	1	0
607.543	1	-6
608.731	1	12
609.919	1	5
611.107	1	8
612.295	1	3
613.483	1	2
614.671	1	-3
615.858	1	7
617.046	1	-7
618.234	1	0
619.422	1	-7
620.609	1	6
621.797	1	-9
622.985	1	-6
624.172	1	7
625.360	1	3
626.547	1	2
627.735	1	3
628.922	1	7
630.109	1	-3
631.297	1	1
632.484	1	-3
633.671	1	-3
634.858	1	-2
636.045	1	8
637.232	1	-6
638.419	1	3
639.606	1	3
640.793	1	9
641.980	1	5
643.167	1	5
644.354	1	1
645.541	1	-5
646.728	1	9
647.914	1	-3
649.101	1	3
650.288	1	5
651.474	1	3
652.661	1	-6
653.847	1	0
655.034	1	8
656.220	1	-4
657.406	1	1
658.593	1	6
659.779	1	6
660.965	1	5
662.152	1	9
663.338	1	8
664.524	1	4
665.710	1	4
666.896	1	1
668.082	1	10
669.268	1	8
670.454	1	5
671.640	1	8
672.826	1	4
674.011	1	2
675.197	1	-2
676.383	1	-1
677.569	1	-5
678.754	1	-7
679.940	1	11
681.125	1	4
682.311	1	0
683.496	1	14
684.682	1	-1
685.867	1	3
687.053	1	-1
688.238	1	3
688.746	1	4

File: GaN_sample F_spot 12_UVVIS_200 K_200um_800 ms 2x2mm1_25.txt
340.368	1	1
341.565	1	-11
342.763	1	4
343.960	1	4
345.157	1	-1
346.354	1	3
347.552	1	-5
348.749	1	4
349.946	1	-2
351.143	1	5
352.340	1	3
353.537	1	5
354.734	1	7
355.931	1	-6
357.127	1	-3
358.324	1	1
359.521	1	9
360.718	1	2
361.914	1	11
363.111	1	5
364.308	1	0
365.504	1	19
366.701	1	-6
367.897	1	3
369.093	1	0
370.290	1	-5
371.486	1	7
372.682	1	-7
373.879	1	-1
375.075	1	1
376.271	1	4
377.467	1	8
378.663	1	7
379.859	1	4
381.055	1	8
382.251	1	3
383.447	1	-4
384.643	1	9
385.839	1	-7
387.035	1	4
388.230	1	5
389.426	1	0
390.622	1	-3
391.817	1	2
393.013	1	3
394.208	1	3
395.404	1	-11
396.599	1	-4
397.795	1	-1
398.990	1	3
400.186	1	-2
401.381	1	-3
402.576	1	2
403.771	1	5
404.967	1	9
406.162	1	5
407.357	1	-1
408.552	1	-6
409.747	1	1
410.942	1	6
412.137	1	4
413.332	1	4
414.526	1	5
415.721	1	8
416.916	1	-5
418.111	1	12
419.305	1	0
420.500	1	9
421.695	1	-5
422.889	1	-10
424.084	1	5
425.278	1	0
426.472	1	12
427.667	1	5
428.861	1	1
430.055	1	4
431.250	1	0
432.444	1	0
433.638	1	-10
434.832	1	1
436.026	1	5
437.220	1	-1
438.414	1	-5
439.608	1	-4
440.802	1	3
441.996	1	1
443.190	1	5
444.384	1	-10
445.578	1	-4
446.771	1	13
447.965	1	4
449.159	1	0
450.352	1	-4
451.546	1	1
452.739	1	1
453.933	1	1
455.126	1	-4
456.320	1	0
457.513	1	8
458.706	1	3
459.899	1	-2
461.093	1	5
462.286	1	7
463.479	1	-4
464.672	1	0
465.865	1	0
467.058	1	4
468.251	1	-3
469.444	1	-5
470.637	1	2
471.830	1	-7
473.023	1	9
474.215	1	15
475.408	1	-1
476.601	1	-4
477.793	1	4
478.986	1	-2
480.179	1	8
481.371	1	10
482.564	1	1
483.756	1	12
484.948	1	-8
486.141	1	-5
487.333	1	7
488.525	1	1
489.718	1	-5
490.910	1	1
492.102	1	-6
493.294	1	1
494.486	1	3
495.678	1	1
496.870	1	1
498.062	1	-2
499.254	1	1
500.446	1	3
501.638	1	-5
502.829	1	1
504.021	1	1
505.213	1	4
506.404	1	8
507.596	1	1
508.788	1	11
509.979	1	4
511.171	1	-1
512.362	1	-3
513.553	1	-2
514.745	1	0
515.936	1	1
517.127	1	-5
518.319	1	-1
519.510	1	-8
520.701	1	-1
521.892	1	1
523.083	1	-6
524.274	1	-2
525.465	1	4
526.656	1	-2
527.847	1	14
529.038	1	3
530.229	1	3
531.419	1	-1
532.610	1	-1
533.801	1	11
534.991	1	5
536.182	1	0
537.373	1	2
538.563	1	9
539.754	1	5
540.944	1	-2
542.134	1	0
543.325	1	6
544.515	1	1
545.705	1	-1
546.896	1	-2
548.086	1	4
549.276	1	0
550.466	1	2
551.656	1	-1
552.846	1	1
554.036	1	3
555.226	1	-8
556.416	1	-4
557.606	1	1
558.796	1	-2
559.986	1	-3
561.175	1	1
562.365	1	-1
563.555	1	-6
564.744	1	4
565.934	1	10
567.123	1	8
568.313	1	5
569.502	1	-5
570.692	1	10
571.881	1	8
573.070	1	1
574.260	1	10
575.449	1	-4
576.638	1	-2
577.827	1	8
579.016	1	4
580.205	1	5
581.394	1	6
582.583	1	6
583.772	1	5
584.961	1	-3
586.150	1	-3
587.339	1	0
588.528	1	9
589.717	1	1
590.905	1	3
592.094	1	0
593.283	1	6
594.471	1	19
595.660	1	0
596.848	1	8
598.037	1	-4
599.225	1	-14
600.413	1	-4
601.602	1	9
602.790	1	0
603.978	1	-5
605.166	1	6
606.355	1	9
607.543	1	-1
608.731	1	10
609.919	1	6
611.107	1	2
612.295	1	-5
613.483	1	4
614.671	1	6
615.858	1	5
617.046	1	7
618.234	1	-1
619.422	1	-8
620.609	1	1
621.797	1	2
622.985	1	-1
624.172	1	1
625.360	1	3
626.547	1	5
627.735	1	1
628.922	1	17
630.109	1	-9
631.297	1	6
632.484	1	-4
633.671	1	5
634.858	1	1
636.045	1	14
637.232	1	2
638.419	1	5
639.606	1	2
640.793	1	8
641.980	1	6
643.167	1	-3
644.354	1	6
645.541	1	-1
646.728	1	0
647.914	1	-4
649.101	1	-1
650.288	1	1
651.474	1	-9
652.661	1	-7
653.847	1	6
655.034	1	8
656.220	1	-1
657.406	1	7
658.593	1	5
659.779	1	7
660.965	1	13
662.152	1	4
663.338	1	12
664.524	1	2
665.710	1	7
666.896	1	-5
668.082	1	7
669.268	1	2
670.454	1	11
671.640	1	2
672.826	1	-2
674.011	1	-5
675.197	1	-6
676.383	1	2
677.569	1	-6
678.754	1	-5
679.940	1	4
681.125	1	6
682.311	1	2
683.496	1	11
684.682	1	-5
685.867	1	-3
687.053	1	9
688.238	1	12
688.746	1	5