Folder: cryo-il_analysis/Data/GaN_170K_550ms (part 2)

File: GaN_sample D_spot 18_UVVIS_170 K_200um_550 ms 2x2mm1_20.txt
340.368	1	-2
341.565	1	3
342.763	1	-6
343.960	1	1
345.157	1	2
346.354	1	-8
347.552	1	5
348.749	1	2
349.946	1	12
351.143	1	4
352.340	1	6
353.537	1	4
354.734	1	11
355.931	1	-2
357.127	1	-7
358.324	1	1
359.521	1	6
360.718	1	1
361.914	1	-4
363.111	1	11
364.308	1	2
365.504	1	-5
366.701	1	0
367.897	1	-5
369.093	1	-4
370.290	1	-1
371.486	1	-5
372.682	1	3
373.879	1	9
375.075	1	-6
376.271	1	5
377.467	1	5
378.663	1	-3
379.859	1	1
381.055	1	-2
382.251	1	0
383.447	1	1
384.643	1	-2
385.839	1	-3
387.035	1	5
388.230	1	8
389.426	1	5
390.622	1	-1
391.817	1	6
393.013	1	-8
394.208	1	7
395.404	1	4
396.599	1	-6
397.795	1	-7
398.990	1	-4
400.186	1	2
401.381	1	4
402.576	1	12
403.771	1	-5
404.967	1	3
406.162	1	8
407.357	1	-1
408.552	1	3
409.747	1	0
410.942	1	-5
412.137	1	-5
413.332	1	-1
414.526	1	0
415.721	1	1
416.916	1	-3
418.111	1	9
419.305	1	-6
420.500	1	-2
421.695	1	-3
422.889	1	-5
424.084	1	11
425.278	1	-3
426.472	1	-1
427.667	1	3
428.861	1	1
430.055	1	-2
431.250	1	8
432.444	1	-2
433.638	1	9
434.832	1	3
436.026	1	1
437.220	1	4
438.414	1	3
439.608	1	0
440.802	1	5
441.996	1	-7
443.190	1	1
444.384	1	3
445.578	1	4
446.771	1	-6
447.965	1	-2
449.159	1	1
450.352	1	-3
451.546	1	-7
452.739	1	4
453.933	1	0
455.126	1	15
456.320	1	10
457.513	1	7
458.706	1	16
459.899	1	-2
461.093	1	6
462.286	1	4
463.479	1	4
464.672	1	1
465.865	1	4
467.058	1	9
468.251	1	-2
469.444	1	-1
470.637	1	6
471.830	1	-2
473.023	1	-1
474.215	1	2
475.408	1	-6
476.601	1	-1
477.793	1	7
478.986	1	-1
480.179	1	-3
481.371	1	0
482.564	1	-2
483.756	1	6
484.948	1	-2
486.141	1	14
487.333	1	1
488.525	1	15
489.718	1	5
490.910	1	-3
492.102	1	3
493.294	1	1
494.486	1	9
495.678	1	3
496.870	1	6
498.062	1	4
499.254	1	5
500.446	1	2
501.638	1	-6
502.829	1	0
504.021	1	10
505.213	1	-1
506.404	1	6
507.596	1	13
508.788	1	-12
509.979	1	2
511.171	1	9
512.362	1	-1
513.553	1	-1
514.745	1	-3
515.936	1	-1
517.127	1	-2
518.319	1	10
519.510	1	0
520.701	1	1
521.892	1	3
523.083	1	-1
524.274	1	3
525.465	1	3
526.656	1	3
527.847	1	4
529.038	1	-4
530.229	1	17
531.419	1	7
532.610	1	6
533.801	1	-1
534.991	1	5
536.182	1	5
537.373	1	-2
538.563	1	1
539.754	1	1
540.944	1	-6
542.134	1	5
543.325	1	-7
544.515	1	-2
545.705	1	7
546.896	1	2
548.086	1	6
549.276	1	9
550.466	1	3
551.656	1	1
552.846	1	-3
554.036	1	8
555.226	1	-7
556.416	1	2
557.606	1	-1
558.796	1	0
559.986	1	1
561.175	1	-15
562.365	1	5
563.555	1	0
564.744	1	3
565.934	1	7
567.123	1	-6
568.313	1	1
569.502	1	-2
570.692	1	11
571.881	1	-2
573.070	1	-8
574.260	1	10
575.449	1	1
576.638	1	5
577.827	1	-4
579.016	1	1
580.205	1	-9
581.394	1	-5
582.583	1	4
583.772	1	-3
584.961	1	9
586.150	1	-5
587.339	1	1
588.528	1	1
589.717	1	4
590.905	1	7
592.094	1	3
593.283	1	7
594.471	1	7
595.660	1	4
596.848	1	0
598.037	1	0
599.225	1	4
600.413	1	-7
601.602	1	-4
602.790	1	6
603.978	1	-1
605.166	1	14
606.355	1	8
607.543	1	8
608.731	1	-3
609.919	1	-2
611.107	1	-5
612.295	1	-4
613.483	1	-1
614.671	1	7
615.858	1	-4
617.046	1	-5
618.234	1	-1
619.422	1	0
620.609	1	2
621.797	1	4
622.985	1	0
624.172	1	2
625.360	1	2
626.547	1	1
627.735	1	-13
628.922	1	-7
630.109	1	-2
631.297	1	-13
632.484	1	-9
633.671	1	10
634.858	1	-2
636.045	1	14
637.232	1	5
638.419	1	-5
639.606	1	2
640.793	1	2
641.980	1	-1
643.167	1	-1
644.354	1	4
645.541	1	4
646.728	1	-2
647.914	1	8
649.101	1	0
650.288	1	6
651.474	1	13
652.661	1	2
653.847	1	-8
655.034	1	3
656.220	1	2
657.406	1	9
658.593	1	3
659.779	1	4
660.965	1	15
662.152	1	-1
663.338	1	6
664.524	1	3
665.710	1	-5
666.896	1	-6
668.082	1	6
669.268	1	-5
670.454	1	-4
671.640	1	7
672.826	1	-1
674.011	1	5
675.197	1	8
676.383	1	-2
677.569	1	-9
678.754	1	7
679.940	1	5
681.125	1	6
682.311	1	0
683.496	1	-3
684.682	1	-4
685.867	1	-2
687.053	1	-10
688.238	1	-8
688.746	1	-3

File: GaN_sample D_spot 18_UVVIS_170 K_200um_550 ms 2x2mm1_32.txt
340.368	1	-2
341.565	1	7
342.763	1	3
343.960	1	-8
345.157	1	-2
346.354	1	-12
347.552	1	2
348.749	1	8
349.946	1	12
351.143	1	-1
352.340	1	1
353.537	1	9
354.734	1	-3
355.931	1	1
357.127	1	-5
358.324	1	6
359.521	1	3
360.718	1	-1
361.914	1	-9
363.111	1	8
364.308	1	1
365.504	1	4
366.701	1	8
367.897	1	4
369.093	1	-3
370.290	1	-3
371.486	1	-1
372.682	1	7
373.879	1	8
375.075	1	-2
376.271	1	8
377.467	1	-7
378.663	1	4
379.859	1	4
381.055	1	9
382.251	1	2
383.447	1	12
384.643	1	3
385.839	1	1
387.035	1	-1
388.230	1	1
389.426	1	7
390.622	1	4
391.817	1	0
393.013	1	-3
394.208	1	2
395.404	1	5
396.599	1	-9
397.795	1	-6
398.990	1	-2
400.186	1	-1
401.381	1	9
402.576	1	-2
403.771	1	3
404.967	1	4
406.162	1	8
407.357	1	-7
408.552	1	-1
409.747	1	-3
410.942	1	-1
412.137	1	-12
413.332	1	-2
414.526	1	-4
415.721	1	0
416.916	1	-12
418.111	1	9
419.305	1	5
420.500	1	6
421.695	1	-12
422.889	1	4
424.084	1	8
425.278	1	-2
426.472	1	1
427.667	1	0
428.861	1	1
430.055	1	0
431.250	1	10
432.444	1	1
433.638	1	15
434.832	1	13
436.026	1	0
437.220	1	2
438.414	1	-1
439.608	1	1
440.802	1	9
441.996	1	-1
443.190	1	0
444.384	1	-4
445.578	1	4
446.771	1	-18
447.965	1	6
449.159	1	3
450.352	1	-11
451.546	1	-7
452.739	1	2
453.933	1	-4
455.126	1	6
456.320	1	0
457.513	1	9
458.706	1	0
459.899	1	3
461.093	1	9
462.286	1	-15
463.479	1	-5
464.672	1	0
465.865	1	-1
467.058	1	2
468.251	1	4
469.444	1	0
470.637	1	5
471.830	1	-4
473.023	1	6
474.215	1	3
475.408	1	-8
476.601	1	-2
477.793	1	8
478.986	1	2
480.179	1	-1
481.371	1	0
482.564	1	1
483.756	1	3
484.948	1	6
486.141	1	11
487.333	1	-5
488.525	1	2
489.718	1	7
490.910	1	-1
492.102	1	0
493.294	1	-4
494.486	1	11
495.678	1	-3
496.870	1	-1
498.062	1	-12
499.254	1	6
500.446	1	5
501.638	1	-7
502.829	1	3
504.021	1	1
505.213	1	-3
506.404	1	4
507.596	1	5
508.788	1	-2
509.979	1	9
511.171	1	10
512.362	1	-3
513.553	1	1
514.745	1	-9
515.936	1	5
517.127	1	2
518.319	1	3
519.510	1	-1
520.701	1	6
521.892	1	-1
523.083	1	-2
524.274	1	-4
525.465	1	0
526.656	1	10
527.847	1	-6
529.038	1	-10
530.229	1	7
531.419	1	1
532.610	1	0
533.801	1	12
534.991	1	1
536.182	1	6
537.373	1	-2
538.563	1	2
539.754	1	5
540.944	1	-2
542.134	1	4
543.325	1	3
544.515	1	7
545.705	1	2
546.896	1	6
548.086	1	4
549.276	1	4
550.466	1	-3
551.656	1	-2
552.846	1	6
554.036	1	-1
555.226	1	-3
556.416	1	3
557.606	1	0
558.796	1	-7
559.986	1	6
561.175	1	-16
562.365	1	0
563.555	1	-1
564.744	1	11
565.934	1	-1
567.123	1	0
568.313	1	2
569.502	1	-10
570.692	1	5
571.881	1	-2
573.070	1	0
574.260	1	9
575.449	1	4
576.638	1	4
577.827	1	3
579.016	1	5
580.205	1	-5
581.394	1	2
582.583	1	0
583.772	1	-8
584.961	1	5
586.150	1	-8
587.339	1	-1
588.528	1	-4
589.717	1	6
590.905	1	9
592.094	1	2
593.283	1	2
594.471	1	10
595.660	1	-2
596.848	1	4
598.037	1	-2
599.225	1	7
600.413	1	-2
601.602	1	4
602.790	1	5
603.978	1	4
605.166	1	9
606.355	1	7
607.543	1	0
608.731	1	2
609.919	1	-4
611.107	1	2
612.295	1	-11
613.483	1	5
614.671	1	9
615.858	1	3
617.046	1	-6
618.234	1	-2
619.422	1	2
620.609	1	4
621.797	1	9
622.985	1	-2
624.172	1	5
625.360	1	3
626.547	1	-6
627.735	1	-4
628.922	1	-8
630.109	1	-1
631.297	1	-1
632.484	1	-4
633.671	1	6
634.858	1	-2
636.045	1	16
637.232	1	11
638.419	1	-6
639.606	1	-6
640.793	1	4
641.980	1	-6
643.167	1	-5
644.354	1	9
645.541	1	7
646.728	1	6
647.914	1	-2
649.101	1	-6
650.288	1	3
651.474	1	14
652.661	1	3
653.847	1	2
655.034	1	0
656.220	1	2
657.406	1	0
658.593	1	-5
659.779	1	12
660.965	1	8
662.152	1	5
663.338	1	5
664.524	1	4
665.710	1	4
666.896	1	-1
668.082	1	7
669.268	1	-6
670.454	1	-11
671.640	1	2
672.826	1	4
674.011	1	14
675.197	1	12
676.383	1	-4
677.569	1	-7
678.754	1	-1
679.940	1	8
681.125	1	2
682.311	1	8
683.496	1	4
684.682	1	0
685.867	1	7
687.053	1	-8
688.238	1	0
688.746	1	-2

File: GaN_sample D_spot 18_UVVIS_170 K_200um_550 ms 2x2mm1_35.txt
340.368	1	-6
341.565	1	2
342.763	1	-1
343.960	1	-4
345.157	1	4
346.354	1	-4
347.552	1	14
348.749	1	4
349.946	1	8
351.143	1	-1
352.340	1	9
353.537	1	1
354.734	1	5
355.931	1	-5
357.127	1	-1
358.324	1	1
359.521	1	7
360.718	1	-3
361.914	1	-1
363.111	1	11
364.308	1	4
365.504	1	-2
366.701	1	-2
367.897	1	3
369.093	1	-7
370.290	1	5
371.486	1	-6
372.682	1	0
373.879	1	8
375.075	1	5
376.271	1	1
377.467	1	5
378.663	1	-6
379.859	1	-2
381.055	1	-5
382.251	1	-3
383.447	1	-2
384.643	1	-3
385.839	1	2
387.035	1	6
388.230	1	2
389.426	1	-1
390.622	1	0
391.817	1	4
393.013	1	0
394.208	1	6
395.404	1	14
396.599	1	0
397.795	1	-4
398.990	1	0
400.186	1	1
401.381	1	5
402.576	1	-7
403.771	1	7
404.967	1	7
406.162	1	9
407.357	1	-5
408.552	1	-1
409.747	1	-1
410.942	1	6
412.137	1	-4
413.332	1	-4
414.526	1	-2
415.721	1	-4
416.916	1	-4
418.111	1	7
419.305	1	1
420.500	1	-5
421.695	1	-7
422.889	1	4
424.084	1	12
425.278	1	8
426.472	1	3
427.667	1	7
428.861	1	4
430.055	1	2
431.250	1	23
432.444	1	7
433.638	1	5
434.832	1	4
436.026	1	-3
437.220	1	-3
438.414	1	-1
439.608	1	3
440.802	1	5
441.996	1	-6
443.190	1	7
444.384	1	-1
445.578	1	9
446.771	1	-1
447.965	1	-3
449.159	1	-6
450.352	1	-8
451.546	1	-18
452.739	1	8
453.933	1	1
455.126	1	5
456.320	1	-10
457.513	1	10
458.706	1	3
459.899	1	2
461.093	1	12
462.286	1	1
463.479	1	1
464.672	1	-8
465.865	1	8
467.058	1	4
468.251	1	1
469.444	1	-4
470.637	1	8
471.830	1	-7
473.023	1	12
474.215	1	-5
475.408	1	2
476.601	1	2
477.793	1	5
478.986	1	-4
480.179	1	-2
481.371	1	1
482.564	1	-7
483.756	1	5
484.948	1	-1
486.141	1	7
487.333	1	-1
488.525	1	5
489.718	1	4
490.910	1	4
492.102	1	10
493.294	1	-6
494.486	1	13
495.678	1	-7
496.870	1	6
498.062	1	-11
499.254	1	3
500.446	1	10
501.638	1	-5
502.829	1	-3
504.021	1	7
505.213	1	-8
506.404	1	6
507.596	1	-3
508.788	1	-1
509.979	1	5
511.171	1	7
512.362	1	-5
513.553	1	1
514.745	1	-1
515.936	1	1
517.127	1	3
518.319	1	6
519.510	1	4
520.701	1	7
521.892	1	-2
523.083	1	1
524.274	1	2
525.465	1	0
526.656	1	11
527.847	1	9
529.038	1	0
530.229	1	9
531.419	1	1
532.610	1	10
533.801	1	13
534.991	1	3
536.182	1	4
537.373	1	-5
538.563	1	3
539.754	1	-6
540.944	1	0
542.134	1	2
543.325	1	7
544.515	1	0
545.705	1	5
546.896	1	2
548.086	1	5
549.276	1	1
550.466	1	-1
551.656	1	3
552.846	1	1
554.036	1	-2
555.226	1	-5
556.416	1	0
557.606	1	3
558.796	1	-3
559.986	1	-1
561.175	1	3
562.365	1	1
563.555	1	7
564.744	1	2
565.934	1	4
567.123	1	0
568.313	1	3
569.502	1	1
570.692	1	12
571.881	1	-7
573.070	1	-4
574.260	1	10
575.449	1	13
576.638	1	12
577.827	1	-5
579.016	1	3
580.205	1	-1
581.394	1	9
582.583	1	-5
583.772	1	2
584.961	1	-1
586.150	1	-3
587.339	1	-3
588.528	1	-4
589.717	1	8
590.905	1	2
592.094	1	9
593.283	1	3
594.471	1	2
595.660	1	-3
596.848	1	1
598.037	1	-3
599.225	1	7
600.413	1	-6
601.602	1	5
602.790	1	4
603.978	1	8
605.166	1	11
606.355	1	4
607.543	1	12
608.731	1	1
609.919	1	-5
611.107	1	0
612.295	1	3
613.483	1	-5
614.671	1	4
615.858	1	6
617.046	1	5
618.234	1	-1
619.422	1	-5
620.609	1	2
621.797	1	8
622.985	1	2
624.172	1	-1
625.360	1	3
626.547	1	1
627.735	1	-5
628.922	1	-9
630.109	1	-1
631.297	1	-7
632.484	1	7
633.671	1	12
634.858	1	7
636.045	1	8
637.232	1	-2
638.419	1	-3
639.606	1	-2
640.793	1	-3
641.980	1	0
643.167	1	-7
644.354	1	-1
645.541	1	2
646.728	1	4
647.914	1	2
649.101	1	5
650.288	1	-3
651.474	1	6
652.661	1	-3
653.847	1	-1
655.034	1	-7
656.220	1	-6
657.406	1	9
658.593	1	6
659.779	1	-3
660.965	1	8
662.152	1	5
663.338	1	4
664.524	1	0
665.710	1	0
666.896	1	3
668.082	1	13
669.268	1	-7
670.454	1	-13
671.640	1	5
672.826	1	4
674.011	1	6
675.197	1	5
676.383	1	10
677.569	1	-2
678.754	1	13
679.940	1	11
681.125	1	6
682.311	1	-2
683.496	1	5
684.682	1	8
685.867	1	1
687.053	1	-3
688.238	1	-8
688.746	1	4

File: GaN_sample D_spot 18_UVVIS_170 K_200um_550 ms 2x2mm1_36.txt
340.368	1	3
341.565	1	5
342.763	1	1
343.960	1	8
345.157	1	-3
346.354	1	-1
347.552	1	10
348.749	1	2
349.946	1	8
351.143	1	-11
352.340	1	5
353.537	1	-1
354.734	1	5
355.931	1	7
357.127	1	2
358.324	1	2
359.521	1	4
360.718	1	4
361.914	1	-3
363.111	1	10
364.308	1	5
365.504	1	0
366.701	1	-4
367.897	1	4
369.093	1	-10
370.290	1	0
371.486	1	0
372.682	1	0
373.879	1	-4
375.075	1	-4
376.271	1	8
377.467	1	3
378.663	1	0
379.859	1	-5
381.055	1	11
382.251	1	3
383.447	1	9
384.643	1	1
385.839	1	-6
387.035	1	-2
388.230	1	4
389.426	1	13
390.622	1	-4
391.817	1	5
393.013	1	-9
394.208	1	9
395.404	1	9
396.599	1	-11
397.795	1	-3
398.990	1	1
400.186	1	4
401.381	1	9
402.576	1	-6
403.771	1	-4
404.967	1	3
406.162	1	3
407.357	1	1
408.552	1	-5
409.747	1	-2
410.942	1	8
412.137	1	-8
413.332	1	-2
414.526	1	0
415.721	1	0
416.916	1	-2
418.111	1	11
419.305	1	-3
420.500	1	-3
421.695	1	-11
422.889	1	-3
424.084	1	15
425.278	1	2
426.472	1	-1
427.667	1	8
428.861	1	4
430.055	1	-2
431.250	1	19
432.444	1	7
433.638	1	3
434.832	1	15
436.026	1	1
437.220	1	9
438.414	1	-2
439.608	1	1
440.802	1	11
441.996	1	-8
443.190	1	6
444.384	1	2
445.578	1	3
446.771	1	-3
447.965	1	0
449.159	1	-1
450.352	1	-3
451.546	1	-6
452.739	1	-2
453.933	1	4
455.126	1	11
456.320	1	1
457.513	1	12
458.706	1	7
459.899	1	3
461.093	1	14
462.286	1	-2
463.479	1	-14
464.672	1	-1
465.865	1	-7
467.058	1	-3
468.251	1	2
469.444	1	-3
470.637	1	-1
471.830	1	-2
473.023	1	5
474.215	1	5
475.408	1	-2
476.601	1	4
477.793	1	9
478.986	1	-1
480.179	1	-1
481.371	1	1
482.564	1	-4
483.756	1	-7
484.948	1	-3
486.141	1	6
487.333	1	-1
488.525	1	4
489.718	1	11
490.910	1	-2
492.102	1	5
493.294	1	-2
494.486	1	3
495.678	1	4
496.870	1	-6
498.062	1	-7
499.254	1	13
500.446	1	-4
501.638	1	-8
502.829	1	9
504.021	1	-1
505.213	1	-6
506.404	1	-1
507.596	1	2
508.788	1	0
509.979	1	7
511.171	1	12
512.362	1	-2
513.553	1	0
514.745	1	-1
515.936	1	7
517.127	1	1
518.319	1	-3
519.510	1	-3
520.701	1	5
521.892	1	4
523.083	1	-1
524.274	1	4
525.465	1	5
526.656	1	10
527.847	1	9
529.038	1	0
530.229	1	11
531.419	1	9
532.610	1	-4
533.801	1	15
534.991	1	4
536.182	1	0
537.373	1	-7
538.563	1	-2
539.754	1	3
540.944	1	-11
542.134	1	1
543.325	1	2
544.515	1	2
545.705	1	7
546.896	1	2
548.086	1	2
549.276	1	7
550.466	1	-6
551.656	1	5
552.846	1	7
554.036	1	-2
555.226	1	-13
556.416	1	3
557.606	1	3
558.796	1	2
559.986	1	8
561.175	1	-8
562.365	1	-3
563.555	1	-1
564.744	1	5
565.934	1	6
567.123	1	-2
568.313	1	-5
569.502	1	5
570.692	1	2
571.881	1	-13
573.070	1	0
574.260	1	7
575.449	1	2
576.638	1	10
577.827	1	5
579.016	1	-1
580.205	1	5
581.394	1	3
582.583	1	4
583.772	1	0
584.961	1	7
586.150	1	-8
587.339	1	-5
588.528	1	9
589.717	1	8
590.905	1	-5
592.094	1	5
593.283	1	6
594.471	1	12
595.660	1	6
596.848	1	2
598.037	1	-1
599.225	1	6
600.413	1	-8
601.602	1	1
602.790	1	8
603.978	1	-5
605.166	1	18
606.355	1	9
607.543	1	6
608.731	1	2
609.919	1	-7
611.107	1	-5
612.295	1	-4
613.483	1	-13
614.671	1	4
615.858	1	-10
617.046	1	1
618.234	1	-1
619.422	1	0
620.609	1	-3
621.797	1	-6
622.985	1	-3
624.172	1	0
625.360	1	2
626.547	1	-11
627.735	1	-9
628.922	1	0
630.109	1	-10
631.297	1	-5
632.484	1	1
633.671	1	4
634.858	1	-2
636.045	1	8
637.232	1	1
638.419	1	-9
639.606	1	-7
640.793	1	1
641.980	1	0
643.167	1	4
644.354	1	7
645.541	1	5
646.728	1	-2
647.914	1	1
649.101	1	1
650.288	1	4
651.474	1	3
652.661	1	10
653.847	1	-3
655.034	1	-4
656.220	1	-1
657.406	1	-5
658.593	1	8
659.779	1	3
660.965	1	6
662.152	1	2
663.338	1	10
664.524	1	2
665.710	1	-1
666.896	1	2
668.082	1	7
669.268	1	0
670.454	1	-4
671.640	1	5
672.826	1	5
674.011	1	6
675.197	1	5
676.383	1	3
677.569	1	-4
678.754	1	9
679.940	1	6
681.125	1	14
682.311	1	6
683.496	1	3
684.682	1	9
685.867	1	7
687.053	1	-4
688.238	1	-1
688.746	1	0

File: GaN_sample D_spot 18_UVVIS_170 K_200um_550 ms 2x2mm1_38.txt
340.368	1	2
341.565	1	-2
342.763	1	1
343.960	1	-4
345.157	1	8
346.354	1	4
347.552	1	11
348.749	1	2
349.946	1	11
351.143	1	-3
352.340	1	2
353.537	1	7
354.734	1	4
355.931	1	1
357.127	1	5
358.324	1	11
359.521	1	3
360.718	1	6
361.914	1	0
363.111	1	12
364.308	1	10
365.504	1	2
366.701	1	0
367.897	1	8
369.093	1	-3
370.290	1	-6
371.486	1	-7
372.682	1	0
373.879	1	4
375.075	1	9
376.271	1	5
377.467	1	4
378.663	1	1
379.859	1	-1
381.055	1	3
382.251	1	4
383.447	1	4
384.643	1	3
385.839	1	-12
387.035	1	-2
388.230	1	-4
389.426	1	11
390.622	1	0
391.817	1	4
393.013	1	7
394.208	1	5
395.404	1	6
396.599	1	-9
397.795	1	1
398.990	1	-2
400.186	1	-4
401.381	1	9
402.576	1	-1
403.771	1	3
404.967	1	6
406.162	1	7
407.357	1	1
408.552	1	-6
409.747	1	6
410.942	1	0
412.137	1	-5
413.332	1	-11
414.526	1	6
415.721	1	2
416.916	1	-6
418.111	1	2
419.305	1	4
420.500	1	-7
421.695	1	-9
422.889	1	-3
424.084	1	9
425.278	1	0
426.472	1	3
427.667	1	5
428.861	1	-1
430.055	1	3
431.250	1	6
432.444	1	1
433.638	1	11
434.832	1	10
436.026	1	-1
437.220	1	3
438.414	1	-10
439.608	1	3
440.802	1	-1
441.996	1	-5
443.190	1	-1
444.384	1	2
445.578	1	7
446.771	1	-10
447.965	1	8
449.159	1	-7
450.352	1	-9
451.546	1	-5
452.739	1	-9
453.933	1	2
455.126	1	14
456.320	1	-2
457.513	1	8
458.706	1	4
459.899	1	3
461.093	1	14
462.286	1	-3
463.479	1	3
464.672	1	-1
465.865	1	7
467.058	1	2
468.251	1	5
469.444	1	5
470.637	1	6
471.830	1	1
473.023	1	2
474.215	1	4
475.408	1	-1
476.601	1	-3
477.793	1	8
478.986	1	-5
480.179	1	-7
481.371	1	1
482.564	1	2
483.756	1	3
484.948	1	4
486.141	1	16
487.333	1	-6
488.525	1	2
489.718	1	9
490.910	1	2
492.102	1	2
493.294	1	0
494.486	1	12
495.678	1	2
496.870	1	1
498.062	1	1
499.254	1	5
500.446	1	8
501.638	1	-13
502.829	1	1
504.021	1	4
505.213	1	-3
506.404	1	4
507.596	1	5
508.788	1	-11
509.979	1	5
511.171	1	5
512.362	1	-4
513.553	1	12
514.745	1	4
515.936	1	8
517.127	1	3
518.319	1	8
519.510	1	11
520.701	1	2
521.892	1	-3
523.083	1	3
524.274	1	0
525.465	1	5
526.656	1	1
527.847	1	-4
529.038	1	-9
530.229	1	13
531.419	1	10
532.610	1	7
533.801	1	12
534.991	1	-8
536.182	1	5
537.373	1	2
538.563	1	8
539.754	1	0
540.944	1	-6
542.134	1	-1
543.325	1	-4
544.515	1	12
545.705	1	5
546.896	1	8
548.086	1	-4
549.276	1	-2
550.466	1	2
551.656	1	1
552.846	1	5
554.036	1	4
555.226	1	-10
556.416	1	1
557.606	1	11
558.796	1	-2
559.986	1	3
561.175	1	-10
562.365	1	2
563.555	1	1
564.744	1	0
565.934	1	-3
567.123	1	5
568.313	1	-2
569.502	1	-7
570.692	1	6
571.881	1	0
573.070	1	0
574.260	1	7
575.449	1	5
576.638	1	5
577.827	1	3
579.016	1	5
580.205	1	-6
581.394	1	2
582.583	1	-4
583.772	1	-1
584.961	1	-3
586.150	1	-8
587.339	1	0
588.528	1	0
589.717	1	9
590.905	1	2
592.094	1	10
593.283	1	3
594.471	1	9
595.660	1	7
596.848	1	2
598.037	1	3
599.225	1	5
600.413	1	-1
601.602	1	-1
602.790	1	9
603.978	1	1
605.166	1	7
606.355	1	9
607.543	1	8
608.731	1	0
609.919	1	-6
611.107	1	-9
612.295	1	-1
613.483	1	-5
614.671	1	13
615.858	1	-1
617.046	1	-9
618.234	1	5
619.422	1	-4
620.609	1	0
621.797	1	5
622.985	1	2
624.172	1	-5
625.360	1	-4
626.547	1	-11
627.735	1	-5
628.922	1	-3
630.109	1	1
631.297	1	1
632.484	1	-8
633.671	1	10
634.858	1	1
636.045	1	8
637.232	1	3
638.419	1	-6
639.606	1	-9
640.793	1	-4
641.980	1	-7
643.167	1	2
644.354	1	-4
645.541	1	14
646.728	1	7
647.914	1	0
649.101	1	3
650.288	1	2
651.474	1	5
652.661	1	2
653.847	1	-4
655.034	1	1
656.220	1	-8
657.406	1	3
658.593	1	3
659.779	1	5
660.965	1	14
662.152	1	0
663.338	1	6
664.524	1	5
665.710	1	0
666.896	1	-2
668.082	1	16
669.268	1	-10
670.454	1	-5
671.640	1	5
672.826	1	0
674.011	1	-2
675.197	1	2
676.383	1	-2
677.569	1	-4
678.754	1	10
679.940	1	10
681.125	1	7
682.311	1	0
683.496	1	7
684.682	1	4
685.867	1	7
687.053	1	-1
688.238	1	-2
688.746	1	-8

File: GaN_sample D_spot 18_UVVIS_170 K_200um_550 ms 2x2mm1_39.txt
340.368	1	5
341.565	1	4
342.763	1	-4
343.960	1	-4
345.157	1	-7
346.354	1	-2
347.552	1	13
348.749	1	9
349.946	1	3
351.143	1	7
352.340	1	9
353.537	1	4
354.734	1	2
355.931	1	-1
357.127	1	1
358.324	1	2
359.521	1	9
360.718	1	-2
361.914	1	-5
363.111	1	3
364.308	1	-1
365.504	1	-3
366.701	1	1
367.897	1	-1
369.093	1	1
370.290	1	-1
371.486	1	1
372.682	1	0
373.879	1	-5
375.075	1	1
376.271	1	6
377.467	1	8
378.663	1	-1
379.859	1	0
381.055	1	9
382.251	1	6
383.447	1	10
384.643	1	-1
385.839	1	-5
387.035	1	-1
388.230	1	2
389.426	1	1
390.622	1	1
391.817	1	8
393.013	1	1
394.208	1	1
395.404	1	5
396.599	1	-10
397.795	1	5
398.990	1	-9
400.186	1	-4
401.381	1	10
402.576	1	-2
403.771	1	1
404.967	1	2
406.162	1	9
407.357	1	-1
408.552	1	0
409.747	1	-1
410.942	1	-3
412.137	1	-4
413.332	1	4
414.526	1	2
415.721	1	-10
416.916	1	1
418.111	1	16
419.305	1	-2
420.500	1	2
421.695	1	-7
422.889	1	2
424.084	1	8
425.278	1	4
426.472	1	5
427.667	1	7
428.861	1	-1
430.055	1	-1
431.250	1	10
432.444	1	9
433.638	1	12
434.832	1	1
436.026	1	1
437.220	1	-3
438.414	1	-6
439.608	1	-2
440.802	1	9
441.996	1	-7
443.190	1	-5
444.384	1	6
445.578	1	6
446.771	1	-7
447.965	1	5
449.159	1	2
450.352	1	-6
451.546	1	-4
452.739	1	5
453.933	1	2
455.126	1	6
456.320	1	3
457.513	1	8
458.706	1	3
459.899	1	2
461.093	1	-2
462.286	1	-1
463.479	1	-6
464.672	1	2
465.865	1	6
467.058	1	-1
468.251	1	10
469.444	1	0
470.637	1	-9
471.830	1	2
473.023	1	1
474.215	1	4
475.408	1	-5
476.601	1	4
477.793	1	1
478.986	1	-7
480.179	1	-3
481.371	1	1
482.564	1	3
483.756	1	6
484.948	1	-8
486.141	1	15
487.333	1	-7
488.525	1	7
489.718	1	3
490.910	1	3
492.102	1	3
493.294	1	-4
494.486	1	11
495.678	1	6
496.870	1	2
498.062	1	-2
499.254	1	-1
500.446	1	0
501.638	1	-13
502.829	1	-5
504.021	1	6
505.213	1	-3
506.404	1	5
507.596	1	3
508.788	1	-3
509.979	1	7
511.171	1	8
512.362	1	-5
513.553	1	-3
514.745	1	-4
515.936	1	-1
517.127	1	8
518.319	1	3
519.510	1	3
520.701	1	1
521.892	1	7
523.083	1	-5
524.274	1	3
525.465	1	6
526.656	1	7
527.847	1	-3
529.038	1	1
530.229	1	14
531.419	1	5
532.610	1	4
533.801	1	7
534.991	1	-4
536.182	1	4
537.373	1	-9
538.563	1	5
539.754	1	1
540.944	1	1
542.134	1	1
543.325	1	1
544.515	1	-1
545.705	1	4
546.896	1	-2
548.086	1	-7
549.276	1	7
550.466	1	1
551.656	1	8
552.846	1	0
554.036	1	-6
555.226	1	1
556.416	1	-1
557.606	1	3
558.796	1	2
559.986	1	0
561.175	1	-5
562.365	1	9
563.555	1	2
564.744	1	0
565.934	1	0
567.123	1	1
568.313	1	2
569.502	1	3
570.692	1	10
571.881	1	1
573.070	1	4
574.260	1	-3
575.449	1	-1
576.638	1	0
577.827	1	-9
579.016	1	1
580.205	1	1
581.394	1	0
582.583	1	-2
583.772	1	-9
584.961	1	-1
586.150	1	-1
587.339	1	-4
588.528	1	3
589.717	1	3
590.905	1	12
592.094	1	2
593.283	1	2
594.471	1	5
595.660	1	5
596.848	1	4
598.037	1	-3
599.225	1	4
600.413	1	-6
601.602	1	7
602.790	1	16
603.978	1	1
605.166	1	5
606.355	1	5
607.543	1	11
608.731	1	3
609.919	1	-2
611.107	1	-5
612.295	1	0
613.483	1	-4
614.671	1	19
615.858	1	4
617.046	1	-8
618.234	1	10
619.422	1	-6
620.609	1	6
621.797	1	6
622.985	1	-5
624.172	1	2
625.360	1	2
626.547	1	-2
627.735	1	-14
628.922	1	-1
630.109	1	4
631.297	1	4
632.484	1	3
633.671	1	9
634.858	1	-5
636.045	1	6
637.232	1	1
638.419	1	-8
639.606	1	-8
640.793	1	-6
641.980	1	-3
643.167	1	7
644.354	1	2
645.541	1	-3
646.728	1	2
647.914	1	4
649.101	1	-3
650.288	1	-2
651.474	1	10
652.661	1	4
653.847	1	4
655.034	1	-6
656.220	1	-11
657.406	1	0
658.593	1	0
659.779	1	3
660.965	1	9
662.152	1	4
663.338	1	15
664.524	1	8
665.710	1	7
666.896	1	2
668.082	1	9
669.268	1	-2
670.454	1	-9
671.640	1	15
672.826	1	0
674.011	1	3
675.197	1	4
676.383	1	6
677.569	1	-1
678.754	1	-2
679.940	1	4
681.125	1	11
682.311	1	-8
683.496	1	12
684.682	1	0
685.867	1	4
687.053	1	-7
688.238	1	-2
688.746	1	-12