Folder: cryo-il_analysis/Data/GaN_200K_800ms (part 18)

File: GaN_sample F_spot 12_UVVIS_200 K_200um_800 ms 2x2mm1_142.txt
340.368	1	1
341.565	1	-1
342.763	1	6
343.960	1	-8
345.157	1	-2
346.354	1	1
347.552	1	-2
348.749	1	-4
349.946	1	5
351.143	1	-1
352.340	1	0
353.537	1	6
354.734	1	8
355.931	1	8
357.127	1	-5
358.324	1	11
359.521	1	8
360.718	1	8
361.914	1	11
363.111	1	23
364.308	1	24
365.504	1	44
366.701	1	42
367.897	1	51
369.093	1	44
370.290	1	46
371.486	1	52
372.682	1	47
373.879	1	29
375.075	1	32
376.271	1	41
377.467	1	31
378.663	1	11
379.859	1	23
381.055	1	23
382.251	1	13
383.447	1	8
384.643	1	23
385.839	1	13
387.035	1	10
388.230	1	20
389.426	1	4
390.622	1	4
391.817	1	2
393.013	1	9
394.208	1	1
395.404	1	-1
396.599	1	5
397.795	1	6
398.990	1	-3
400.186	1	-3
401.381	1	-6
402.576	1	-1
403.771	1	1
404.967	1	7
406.162	1	8
407.357	1	-2
408.552	1	5
409.747	1	-2
410.942	1	15
412.137	1	2
413.332	1	5
414.526	1	-2
415.721	1	4
416.916	1	-13
418.111	1	-2
419.305	1	3
420.500	1	-5
421.695	1	4
422.889	1	-7
424.084	1	4
425.278	1	16
426.472	1	1
427.667	1	1
428.861	1	1
430.055	1	0
431.250	1	1
432.444	1	9
433.638	1	4
434.832	1	6
436.026	1	-2
437.220	1	12
438.414	1	8
439.608	1	-12
440.802	1	9
441.996	1	7
443.190	1	6
444.384	1	-5
445.578	1	-10
446.771	1	11
447.965	1	7
449.159	1	0
450.352	1	-1
451.546	1	3
452.739	1	3
453.933	1	2
455.126	1	-6
456.320	1	0
457.513	1	1
458.706	1	5
459.899	1	3
461.093	1	-8
462.286	1	-4
463.479	1	1
464.672	1	2
465.865	1	7
467.058	1	-6
468.251	1	-5
469.444	1	-4
470.637	1	3
471.830	1	4
473.023	1	13
474.215	1	11
475.408	1	4
476.601	1	5
477.793	1	4
478.986	1	1
480.179	1	-3
481.371	1	1
482.564	1	5
483.756	1	9
484.948	1	-12
486.141	1	6
487.333	1	6
488.525	1	0
489.718	1	-6
490.910	1	0
492.102	1	0
493.294	1	6
494.486	1	7
495.678	1	5
496.870	1	9
498.062	1	3
499.254	1	7
500.446	1	-7
501.638	1	-3
502.829	1	-3
504.021	1	2
505.213	1	9
506.404	1	0
507.596	1	0
508.788	1	15
509.979	1	1
511.171	1	3
512.362	1	-2
513.553	1	-5
514.745	1	2
515.936	1	6
517.127	1	4
518.319	1	5
519.510	1	7
520.701	1	2
521.892	1	7
523.083	1	3
524.274	1	8
525.465	1	6
526.656	1	-6
527.847	1	-1
529.038	1	2
530.229	1	6
531.419	1	7
532.610	1	-5
533.801	1	14
534.991	1	-1
536.182	1	-5
537.373	1	7
538.563	1	4
539.754	1	6
540.944	1	1
542.134	1	4
543.325	1	-6
544.515	1	3
545.705	1	-3
546.896	1	0
548.086	1	8
549.276	1	-4
550.466	1	5
551.656	1	3
552.846	1	5
554.036	1	7
555.226	1	-4
556.416	1	5
557.606	1	8
558.796	1	12
559.986	1	2
561.175	1	4
562.365	1	9
563.555	1	3
564.744	1	7
565.934	1	1
567.123	1	4
568.313	1	9
569.502	1	7
570.692	1	8
571.881	1	12
573.070	1	10
574.260	1	15
575.449	1	6
576.638	1	-7
577.827	1	7
579.016	1	14
580.205	1	3
581.394	1	11
582.583	1	20
583.772	1	9
584.961	1	12
586.150	1	16
587.339	1	6
588.528	1	9
589.717	1	8
590.905	1	-6
592.094	1	7
593.283	1	5
594.471	1	23
595.660	1	5
596.848	1	1
598.037	1	-1
599.225	1	2
600.413	1	15
601.602	1	19
602.790	1	8
603.978	1	5
605.166	1	7
606.355	1	4
607.543	1	11
608.731	1	7
609.919	1	5
611.107	1	3
612.295	1	-1
613.483	1	9
614.671	1	12
615.858	1	7
617.046	1	7
618.234	1	1
619.422	1	-1
620.609	1	13
621.797	1	4
622.985	1	2
624.172	1	3
625.360	1	4
626.547	1	7
627.735	1	5
628.922	1	2
630.109	1	-5
631.297	1	6
632.484	1	-6
633.671	1	6
634.858	1	-6
636.045	1	8
637.232	1	3
638.419	1	-1
639.606	1	5
640.793	1	11
641.980	1	5
643.167	1	5
644.354	1	3
645.541	1	0
646.728	1	2
647.914	1	1
649.101	1	1
650.288	1	10
651.474	1	3
652.661	1	-5
653.847	1	6
655.034	1	7
656.220	1	-8
657.406	1	-3
658.593	1	7
659.779	1	-4
660.965	1	12
662.152	1	3
663.338	1	14
664.524	1	3
665.710	1	8
666.896	1	-6
668.082	1	8
669.268	1	8
670.454	1	5
671.640	1	10
672.826	1	2
674.011	1	-3
675.197	1	-6
676.383	1	1
677.569	1	5
678.754	1	-2
679.940	1	10
681.125	1	3
682.311	1	6
683.496	1	7
684.682	1	-3
685.867	1	8
687.053	1	0
688.238	1	5
688.746	1	-1

File: GaN_sample F_spot 12_UVVIS_200 K_200um_800 ms 2x2mm1_144.txt
340.368	1	4
341.565	1	-5
342.763	1	4
343.960	1	-1
345.157	1	-3
346.354	1	3
347.552	1	-4
348.749	1	-1
349.946	1	-5
351.143	1	-2
352.340	1	2
353.537	1	-2
354.734	1	4
355.931	1	0
357.127	1	7
358.324	1	-1
359.521	1	18
360.718	1	11
361.914	1	13
363.111	1	22
364.308	1	19
365.504	1	30
366.701	1	50
367.897	1	55
369.093	1	50
370.290	1	55
371.486	1	51
372.682	1	47
373.879	1	40
375.075	1	24
376.271	1	36
377.467	1	26
378.663	1	11
379.859	1	25
381.055	1	25
382.251	1	7
383.447	1	6
384.643	1	20
385.839	1	13
387.035	1	6
388.230	1	12
389.426	1	13
390.622	1	10
391.817	1	10
393.013	1	2
394.208	1	1
395.404	1	0
396.599	1	-9
397.795	1	4
398.990	1	2
400.186	1	-5
401.381	1	-3
402.576	1	-5
403.771	1	8
404.967	1	8
406.162	1	4
407.357	1	-2
408.552	1	-4
409.747	1	8
410.942	1	2
412.137	1	9
413.332	1	10
414.526	1	-3
415.721	1	1
416.916	1	-5
418.111	1	0
419.305	1	2
420.500	1	3
421.695	1	-4
422.889	1	-8
424.084	1	-4
425.278	1	4
426.472	1	-4
427.667	1	10
428.861	1	-4
430.055	1	10
431.250	1	-10
432.444	1	10
433.638	1	6
434.832	1	3
436.026	1	6
437.220	1	6
438.414	1	-4
439.608	1	-6
440.802	1	-10
441.996	1	11
443.190	1	3
444.384	1	-3
445.578	1	-3
446.771	1	6
447.965	1	3
449.159	1	-3
450.352	1	5
451.546	1	1
452.739	1	10
453.933	1	-4
455.126	1	-3
456.320	1	-7
457.513	1	11
458.706	1	-5
459.899	1	-2
461.093	1	10
462.286	1	-3
463.479	1	-5
464.672	1	0
465.865	1	-1
467.058	1	1
468.251	1	-4
469.444	1	-8
470.637	1	-7
471.830	1	5
473.023	1	6
474.215	1	13
475.408	1	-1
476.601	1	4
477.793	1	-4
478.986	1	2
480.179	1	5
481.371	1	9
482.564	1	6
483.756	1	7
484.948	1	-7
486.141	1	1
487.333	1	-2
488.525	1	-13
489.718	1	3
490.910	1	-2
492.102	1	-6
493.294	1	2
494.486	1	4
495.678	1	1
496.870	1	14
498.062	1	8
499.254	1	2
500.446	1	-5
501.638	1	-1
502.829	1	4
504.021	1	0
505.213	1	15
506.404	1	1
507.596	1	6
508.788	1	12
509.979	1	1
511.171	1	5
512.362	1	1
513.553	1	-6
514.745	1	-4
515.936	1	-4
517.127	1	1
518.319	1	6
519.510	1	9
520.701	1	5
521.892	1	6
523.083	1	0
524.274	1	7
525.465	1	4
526.656	1	0
527.847	1	2
529.038	1	6
530.229	1	4
531.419	1	14
532.610	1	-2
533.801	1	10
534.991	1	8
536.182	1	17
537.373	1	3
538.563	1	8
539.754	1	23
540.944	1	0
542.134	1	17
543.325	1	9
544.515	1	1
545.705	1	-4
546.896	1	-1
548.086	1	5
549.276	1	-3
550.466	1	7
551.656	1	8
552.846	1	4
554.036	1	13
555.226	1	5
556.416	1	-1
557.606	1	5
558.796	1	4
559.986	1	0
561.175	1	5
562.365	1	2
563.555	1	7
564.744	1	15
565.934	1	18
567.123	1	8
568.313	1	16
569.502	1	5
570.692	1	11
571.881	1	17
573.070	1	5
574.260	1	11
575.449	1	4
576.638	1	8
577.827	1	-3
579.016	1	12
580.205	1	2
581.394	1	4
582.583	1	9
583.772	1	5
584.961	1	5
586.150	1	6
587.339	1	7
588.528	1	7
589.717	1	12
590.905	1	2
592.094	1	-3
593.283	1	-2
594.471	1	11
595.660	1	9
596.848	1	6
598.037	1	-3
599.225	1	-7
600.413	1	15
601.602	1	14
602.790	1	7
603.978	1	8
605.166	1	7
606.355	1	8
607.543	1	-1
608.731	1	6
609.919	1	3
611.107	1	4
612.295	1	-3
613.483	1	8
614.671	1	10
615.858	1	2
617.046	1	-1
618.234	1	4
619.422	1	4
620.609	1	3
621.797	1	-9
622.985	1	8
624.172	1	8
625.360	1	4
626.547	1	11
627.735	1	3
628.922	1	1
630.109	1	1
631.297	1	5
632.484	1	-1
633.671	1	-3
634.858	1	1
636.045	1	16
637.232	1	-5
638.419	1	-3
639.606	1	6
640.793	1	12
641.980	1	11
643.167	1	1
644.354	1	-5
645.541	1	4
646.728	1	-1
647.914	1	5
649.101	1	4
650.288	1	4
651.474	1	-2
652.661	1	4
653.847	1	14
655.034	1	1
656.220	1	-4
657.406	1	7
658.593	1	3
659.779	1	8
660.965	1	9
662.152	1	4
663.338	1	13
664.524	1	8
665.710	1	3
666.896	1	3
668.082	1	3
669.268	1	2
670.454	1	1
671.640	1	10
672.826	1	-2
674.011	1	-2
675.197	1	-5
676.383	1	-4
677.569	1	6
678.754	1	-1
679.940	1	-1
681.125	1	6
682.311	1	12
683.496	1	8
684.682	1	-8
685.867	1	7
687.053	1	9
688.238	1	1
688.746	1	-1

File: GaN_sample F_spot 12_UVVIS_200 K_200um_800 ms 2x2mm1_145.txt
340.368	1	7
341.565	1	-10
342.763	1	0
343.960	1	2
345.157	1	-7
346.354	1	2
347.552	1	-1
348.749	1	-14
349.946	1	-2
351.143	1	-2
352.340	1	5
353.537	1	4
354.734	1	15
355.931	1	-11
357.127	1	6
358.324	1	1
359.521	1	21
360.718	1	15
361.914	1	15
363.111	1	15
364.308	1	11
365.504	1	37
366.701	1	44
367.897	1	57
369.093	1	46
370.290	1	52
371.486	1	55
372.682	1	46
373.879	1	35
375.075	1	28
376.271	1	40
377.467	1	29
378.663	1	15
379.859	1	18
381.055	1	22
382.251	1	7
383.447	1	10
384.643	1	21
385.839	1	11
387.035	1	18
388.230	1	15
389.426	1	11
390.622	1	0
391.817	1	6
393.013	1	4
394.208	1	10
395.404	1	3
396.599	1	3
397.795	1	3
398.990	1	7
400.186	1	-1
401.381	1	5
402.576	1	2
403.771	1	5
404.967	1	6
406.162	1	4
407.357	1	0
408.552	1	3
409.747	1	3
410.942	1	9
412.137	1	3
413.332	1	7
414.526	1	2
415.721	1	-3
416.916	1	-8
418.111	1	-1
419.305	1	11
420.500	1	-5
421.695	1	4
422.889	1	-7
424.084	1	-3
425.278	1	11
426.472	1	2
427.667	1	5
428.861	1	5
430.055	1	1
431.250	1	4
432.444	1	9
433.638	1	-3
434.832	1	3
436.026	1	7
437.220	1	9
438.414	1	-5
439.608	1	-6
440.802	1	-5
441.996	1	4
443.190	1	0
444.384	1	-9
445.578	1	-7
446.771	1	7
447.965	1	1
449.159	1	-5
450.352	1	-4
451.546	1	3
452.739	1	1
453.933	1	2
455.126	1	2
456.320	1	-2
457.513	1	-3
458.706	1	1
459.899	1	5
461.093	1	4
462.286	1	4
463.479	1	-2
464.672	1	6
465.865	1	-5
467.058	1	0
468.251	1	4
469.444	1	-10
470.637	1	4
471.830	1	5
473.023	1	4
474.215	1	9
475.408	1	4
476.601	1	3
477.793	1	-4
478.986	1	-1
480.179	1	4
481.371	1	5
482.564	1	6
483.756	1	11
484.948	1	6
486.141	1	5
487.333	1	-3
488.525	1	2
489.718	1	0
490.910	1	0
492.102	1	-2
493.294	1	-9
494.486	1	10
495.678	1	3
496.870	1	4
498.062	1	-1
499.254	1	8
500.446	1	-7
501.638	1	-1
502.829	1	6
504.021	1	5
505.213	1	4
506.404	1	13
507.596	1	-8
508.788	1	13
509.979	1	1
511.171	1	7
512.362	1	0
513.553	1	1
514.745	1	0
515.936	1	7
517.127	1	3
518.319	1	6
519.510	1	4
520.701	1	10
521.892	1	4
523.083	1	-4
524.274	1	2
525.465	1	11
526.656	1	-2
527.847	1	7
529.038	1	2
530.229	1	3
531.419	1	7
532.610	1	-6
533.801	1	16
534.991	1	9
536.182	1	1
537.373	1	8
538.563	1	15
539.754	1	14
540.944	1	1
542.134	1	10
543.325	1	4
544.515	1	4
545.705	1	1
546.896	1	14
548.086	1	2
549.276	1	8
550.466	1	14
551.656	1	14
552.846	1	11
554.036	1	-1
555.226	1	-2
556.416	1	4
557.606	1	1
558.796	1	4
559.986	1	-1
561.175	1	10
562.365	1	13
563.555	1	-2
564.744	1	13
565.934	1	18
567.123	1	7
568.313	1	17
569.502	1	6
570.692	1	8
571.881	1	22
573.070	1	10
574.260	1	9
575.449	1	1
576.638	1	2
577.827	1	-3
579.016	1	12
580.205	1	1
581.394	1	6
582.583	1	13
583.772	1	18
584.961	1	13
586.150	1	-4
587.339	1	4
588.528	1	4
589.717	1	10
590.905	1	10
592.094	1	1
593.283	1	6
594.471	1	9
595.660	1	7
596.848	1	6
598.037	1	-2
599.225	1	4
600.413	1	10
601.602	1	6
602.790	1	3
603.978	1	5
605.166	1	7
606.355	1	9
607.543	1	8
608.731	1	7
609.919	1	13
611.107	1	3
612.295	1	1
613.483	1	10
614.671	1	7
615.858	1	8
617.046	1	7
618.234	1	4
619.422	1	-2
620.609	1	8
621.797	1	5
622.985	1	14
624.172	1	3
625.360	1	8
626.547	1	1
627.735	1	5
628.922	1	6
630.109	1	-6
631.297	1	1
632.484	1	-1
633.671	1	-1
634.858	1	-1
636.045	1	8
637.232	1	-1
638.419	1	-7
639.606	1	7
640.793	1	14
641.980	1	2
643.167	1	0
644.354	1	7
645.541	1	2
646.728	1	8
647.914	1	1
649.101	1	9
650.288	1	3
651.474	1	-1
652.661	1	9
653.847	1	5
655.034	1	10
656.220	1	2
657.406	1	14
658.593	1	4
659.779	1	3
660.965	1	5
662.152	1	6
663.338	1	3
664.524	1	-1
665.710	1	-3
666.896	1	-5
668.082	1	8
669.268	1	2
670.454	1	-5
671.640	1	10
672.826	1	-5
674.011	1	2
675.197	1	-8
676.383	1	-2
677.569	1	9
678.754	1	-4
679.940	1	0
681.125	1	0
682.311	1	3
683.496	1	1
684.682	1	-4
685.867	1	-4
687.053	1	3
688.238	1	6
688.746	1	3

File: GaN_sample F_spot 12_UVVIS_200 K_200um_800 ms 2x2mm1_146.txt
340.368	1	2
341.565	1	-13
342.763	1	6
343.960	1	7
345.157	1	-4
346.354	1	5
347.552	1	-2
348.749	1	-6
349.946	1	-4
351.143	1	8
352.340	1	3
353.537	1	-2
354.734	1	7
355.931	1	0
357.127	1	10
358.324	1	12
359.521	1	11
360.718	1	8
361.914	1	20
363.111	1	8
364.308	1	22
365.504	1	33
366.701	1	40
367.897	1	50
369.093	1	44
370.290	1	51
371.486	1	48
372.682	1	46
373.879	1	30
375.075	1	28
376.271	1	30
377.467	1	24
378.663	1	16
379.859	1	17
381.055	1	21
382.251	1	8
383.447	1	2
384.643	1	12
385.839	1	-1
387.035	1	11
388.230	1	11
389.426	1	5
390.622	1	2
391.817	1	10
393.013	1	4
394.208	1	5
395.404	1	-4
396.599	1	0
397.795	1	12
398.990	1	2
400.186	1	-2
401.381	1	1
402.576	1	2
403.771	1	12
404.967	1	3
406.162	1	5
407.357	1	-5
408.552	1	0
409.747	1	-2
410.942	1	4
412.137	1	6
413.332	1	11
414.526	1	-8
415.721	1	1
416.916	1	-3
418.111	1	-1
419.305	1	2
420.500	1	2
421.695	1	-6
422.889	1	-6
424.084	1	2
425.278	1	10
426.472	1	0
427.667	1	4
428.861	1	-5
430.055	1	10
431.250	1	4
432.444	1	0
433.638	1	-4
434.832	1	-3
436.026	1	4
437.220	1	3
438.414	1	-7
439.608	1	-6
440.802	1	-5
441.996	1	5
443.190	1	2
444.384	1	-6
445.578	1	-6
446.771	1	10
447.965	1	2
449.159	1	-6
450.352	1	4
451.546	1	3
452.739	1	7
453.933	1	-4
455.126	1	-6
456.320	1	-1
457.513	1	7
458.706	1	-2
459.899	1	2
461.093	1	1
462.286	1	-8
463.479	1	-2
464.672	1	-5
465.865	1	-3
467.058	1	5
468.251	1	-3
469.444	1	-8
470.637	1	6
471.830	1	-1
473.023	1	-1
474.215	1	16
475.408	1	-7
476.601	1	0
477.793	1	-1
478.986	1	-6
480.179	1	4
481.371	1	9
482.564	1	1
483.756	1	8
484.948	1	-1
486.141	1	3
487.333	1	0
488.525	1	5
489.718	1	0
490.910	1	0
492.102	1	1
493.294	1	-2
494.486	1	9
495.678	1	8
496.870	1	5
498.062	1	2
499.254	1	1
500.446	1	-1
501.638	1	-1
502.829	1	0
504.021	1	4
505.213	1	6
506.404	1	-1
507.596	1	10
508.788	1	10
509.979	1	-7
511.171	1	2
512.362	1	-7
513.553	1	-8
514.745	1	3
515.936	1	6
517.127	1	2
518.319	1	6
519.510	1	6
520.701	1	9
521.892	1	5
523.083	1	-1
524.274	1	4
525.465	1	10
526.656	1	-2
527.847	1	7
529.038	1	7
530.229	1	3
531.419	1	8
532.610	1	0
533.801	1	16
534.991	1	10
536.182	1	4
537.373	1	6
538.563	1	9
539.754	1	8
540.944	1	2
542.134	1	8
543.325	1	3
544.515	1	-3
545.705	1	-5
546.896	1	-1
548.086	1	4
549.276	1	-2
550.466	1	13
551.656	1	3
552.846	1	4
554.036	1	3
555.226	1	-3
556.416	1	4
557.606	1	12
558.796	1	10
559.986	1	3
561.175	1	6
562.365	1	5
563.555	1	11
564.744	1	14
565.934	1	18
567.123	1	7
568.313	1	11
569.502	1	5
570.692	1	4
571.881	1	19
573.070	1	3
574.260	1	11
575.449	1	7
576.638	1	1
577.827	1	2
579.016	1	8
580.205	1	1
581.394	1	4
582.583	1	16
583.772	1	14
584.961	1	7
586.150	1	4
587.339	1	14
588.528	1	7
589.717	1	0
590.905	1	7
592.094	1	4
593.283	1	5
594.471	1	11
595.660	1	11
596.848	1	7
598.037	1	0
599.225	1	-1
600.413	1	9
601.602	1	8
602.790	1	3
603.978	1	0
605.166	1	11
606.355	1	7
607.543	1	-5
608.731	1	3
609.919	1	14
611.107	1	0
612.295	1	-3
613.483	1	8
614.671	1	4
615.858	1	0
617.046	1	5
618.234	1	10
619.422	1	1
620.609	1	14
621.797	1	-2
622.985	1	4
624.172	1	8
625.360	1	8
626.547	1	9
627.735	1	2
628.922	1	7
630.109	1	-11
631.297	1	-2
632.484	1	3
633.671	1	0
634.858	1	0
636.045	1	10
637.232	1	5
638.419	1	-1
639.606	1	4
640.793	1	19
641.980	1	12
643.167	1	-5
644.354	1	10
645.541	1	3
646.728	1	1
647.914	1	2
649.101	1	-3
650.288	1	6
651.474	1	1
652.661	1	-1
653.847	1	10
655.034	1	2
656.220	1	-6
657.406	1	-2
658.593	1	2
659.779	1	1
660.965	1	10
662.152	1	8
663.338	1	9
664.524	1	-2
665.710	1	4
666.896	1	3
668.082	1	12
669.268	1	-9
670.454	1	1
671.640	1	5
672.826	1	-1
674.011	1	3
675.197	1	-8
676.383	1	4
677.569	1	8
678.754	1	1
679.940	1	3
681.125	1	-2
682.311	1	12
683.496	1	5
684.682	1	4
685.867	1	7
687.053	1	3
688.238	1	2
688.746	1	3

File: GaN_sample F_spot 12_UVVIS_200 K_200um_800 ms 2x2mm1_147.txt
340.368	1	3
341.565	1	-16
342.763	1	6
343.960	1	1
345.157	1	-3
346.354	1	2
347.552	1	-7
348.749	1	2
349.946	1	-4
351.143	1	0
352.340	1	3
353.537	1	1
354.734	1	9
355.931	1	7
357.127	1	5
358.324	1	5
359.521	1	15
360.718	1	8
361.914	1	8
363.111	1	15
364.308	1	28
365.504	1	39
366.701	1	40
367.897	1	46
369.093	1	42
370.290	1	51
371.486	1	55
372.682	1	45
373.879	1	32
375.075	1	30
376.271	1	44
377.467	1	32
378.663	1	23
379.859	1	17
381.055	1	17
382.251	1	3
383.447	1	13
384.643	1	16
385.839	1	3
387.035	1	18
388.230	1	12
389.426	1	8
390.622	1	8
391.817	1	11
393.013	1	-3
394.208	1	8
395.404	1	3
396.599	1	5
397.795	1	2
398.990	1	3
400.186	1	7
401.381	1	1
402.576	1	4
403.771	1	-1
404.967	1	9
406.162	1	14
407.357	1	-5
408.552	1	-4
409.747	1	5
410.942	1	11
412.137	1	7
413.332	1	8
414.526	1	3
415.721	1	11
416.916	1	-5
418.111	1	0
419.305	1	2
420.500	1	-5
421.695	1	1
422.889	1	-15
424.084	1	4
425.278	1	8
426.472	1	4
427.667	1	8
428.861	1	-6
430.055	1	0
431.250	1	6
432.444	1	5
433.638	1	2
434.832	1	3
436.026	1	-2
437.220	1	2
438.414	1	-10
439.608	1	-12
440.802	1	0
441.996	1	1
443.190	1	-9
444.384	1	-6
445.578	1	-6
446.771	1	13
447.965	1	0
449.159	1	-4
450.352	1	-5
451.546	1	3
452.739	1	-1
453.933	1	-3
455.126	1	-1
456.320	1	3
457.513	1	1
458.706	1	-2
459.899	1	2
461.093	1	9
462.286	1	1
463.479	1	2
464.672	1	0
465.865	1	-2
467.058	1	-11
468.251	1	-3
469.444	1	-11
470.637	1	0
471.830	1	-1
473.023	1	6
474.215	1	10
475.408	1	-6
476.601	1	0
477.793	1	-2
478.986	1	-5
480.179	1	1
481.371	1	7
482.564	1	8
483.756	1	6
484.948	1	1
486.141	1	-3
487.333	1	0
488.525	1	-6
489.718	1	-6
490.910	1	2
492.102	1	0
493.294	1	1
494.486	1	7
495.678	1	4
496.870	1	7
498.062	1	-3
499.254	1	4
500.446	1	-7
501.638	1	3
502.829	1	0
504.021	1	5
505.213	1	14
506.404	1	-2
507.596	1	14
508.788	1	6
509.979	1	10
511.171	1	1
512.362	1	-2
513.553	1	-2
514.745	1	-5
515.936	1	0
517.127	1	8
518.319	1	-3
519.510	1	7
520.701	1	1
521.892	1	5
523.083	1	7
524.274	1	0
525.465	1	9
526.656	1	7
527.847	1	12
529.038	1	2
530.229	1	7
531.419	1	10
532.610	1	-2
533.801	1	20
534.991	1	10
536.182	1	0
537.373	1	0
538.563	1	11
539.754	1	11
540.944	1	-1
542.134	1	10
543.325	1	3
544.515	1	-3
545.705	1	4
546.896	1	1
548.086	1	7
549.276	1	2
550.466	1	8
551.656	1	20
552.846	1	4
554.036	1	5
555.226	1	-8
556.416	1	2
557.606	1	12
558.796	1	2
559.986	1	-2
561.175	1	11
562.365	1	15
563.555	1	2
564.744	1	-2
565.934	1	17
567.123	1	6
568.313	1	17
569.502	1	8
570.692	1	10
571.881	1	8
573.070	1	1
574.260	1	14
575.449	1	4
576.638	1	-1
577.827	1	1
579.016	1	16
580.205	1	6
581.394	1	3
582.583	1	15
583.772	1	14
584.961	1	6
586.150	1	-2
587.339	1	10
588.528	1	8
589.717	1	3
590.905	1	3
592.094	1	7
593.283	1	8
594.471	1	20
595.660	1	4
596.848	1	11
598.037	1	3
599.225	1	-9
600.413	1	8
601.602	1	9
602.790	1	6
603.978	1	-1
605.166	1	12
606.355	1	11
607.543	1	-10
608.731	1	8
609.919	1	19
611.107	1	-3
612.295	1	9
613.483	1	10
614.671	1	10
615.858	1	10
617.046	1	-2
618.234	1	-7
619.422	1	-8
620.609	1	4
621.797	1	-5
622.985	1	-3
624.172	1	2
625.360	1	1
626.547	1	1
627.735	1	4
628.922	1	4
630.109	1	-5
631.297	1	2
632.484	1	1
633.671	1	-6
634.858	1	-6
636.045	1	11
637.232	1	-4
638.419	1	-3
639.606	1	11
640.793	1	7
641.980	1	4
643.167	1	5
644.354	1	-2
645.541	1	-1
646.728	1	2
647.914	1	-5
649.101	1	2
650.288	1	5
651.474	1	-12
652.661	1	6
653.847	1	11
655.034	1	6
656.220	1	2
657.406	1	7
658.593	1	9
659.779	1	0
660.965	1	12
662.152	1	3
663.338	1	11
664.524	1	7
665.710	1	3
666.896	1	-5
668.082	1	8
669.268	1	6
670.454	1	7
671.640	1	2
672.826	1	-3
674.011	1	7
675.197	1	-3
676.383	1	5
677.569	1	-2
678.754	1	3
679.940	1	-9
681.125	1	9
682.311	1	1
683.496	1	12
684.682	1	-1
685.867	1	2
687.053	1	3
688.238	1	3
688.746	1	-4

File: GaN_sample F_spot 12_UVVIS_200 K_200um_800 ms 2x2mm1_148.txt
340.368	1	2
341.565	1	-4
342.763	1	11
343.960	1	5
345.157	1	1
346.354	1	10
347.552	1	3
348.749	1	-12
349.946	1	-13
351.143	1	1
352.340	1	8
353.537	1	2
354.734	1	16
355.931	1	13
357.127	1	6
358.324	1	1
359.521	1	14
360.718	1	15
361.914	1	15
363.111	1	18
364.308	1	24
365.504	1	35
366.701	1	35
367.897	1	39
369.093	1	49
370.290	1	58
371.486	1	54
372.682	1	42
373.879	1	37
375.075	1	28
376.271	1	26
377.467	1	28
378.663	1	26
379.859	1	18
381.055	1	21
382.251	1	7
383.447	1	8
384.643	1	15
385.839	1	8
387.035	1	8
388.230	1	16
389.426	1	7
390.622	1	3
391.817	1	4
393.013	1	3
394.208	1	4
395.404	1	-1
396.599	1	-5
397.795	1	2
398.990	1	9
400.186	1	7
401.381	1	1
402.576	1	3
403.771	1	2
404.967	1	11
406.162	1	6
407.357	1	3
408.552	1	1
409.747	1	-4
410.942	1	7
412.137	1	0
413.332	1	1
414.526	1	-6
415.721	1	-4
416.916	1	-15
418.111	1	4
419.305	1	1
420.500	1	-7
421.695	1	-3
422.889	1	-11
424.084	1	-10
425.278	1	10
426.472	1	4
427.667	1	6
428.861	1	-2
430.055	1	8
431.250	1	5
432.444	1	8
433.638	1	0
434.832	1	8
436.026	1	8
437.220	1	8
438.414	1	-6
439.608	1	-12
440.802	1	-5
441.996	1	0
443.190	1	1
444.384	1	-7
445.578	1	-14
446.771	1	12
447.965	1	-2
449.159	1	-10
450.352	1	-1
451.546	1	1
452.739	1	9
453.933	1	-6
455.126	1	8
456.320	1	-5
457.513	1	9
458.706	1	-5
459.899	1	2
461.093	1	1
462.286	1	3
463.479	1	-1
464.672	1	3
465.865	1	-4
467.058	1	1
468.251	1	7
469.444	1	-6
470.637	1	5
471.830	1	0
473.023	1	9
474.215	1	12
475.408	1	1
476.601	1	1
477.793	1	4
478.986	1	-5
480.179	1	3
481.371	1	5
482.564	1	5
483.756	1	10
484.948	1	-4
486.141	1	-5
487.333	1	-4
488.525	1	-6
489.718	1	3
490.910	1	4
492.102	1	4
493.294	1	-2
494.486	1	10
495.678	1	-1
496.870	1	2
498.062	1	-2
499.254	1	4
500.446	1	-12
501.638	1	-7
502.829	1	0
504.021	1	9
505.213	1	9
506.404	1	-1
507.596	1	5
508.788	1	14
509.979	1	2
511.171	1	0
512.362	1	-3
513.553	1	-4
514.745	1	-4
515.936	1	4
517.127	1	-2
518.319	1	6
519.510	1	-2
520.701	1	5
521.892	1	3
523.083	1	0
524.274	1	1
525.465	1	8
526.656	1	8
527.847	1	3
529.038	1	3
530.229	1	5
531.419	1	15
532.610	1	4
533.801	1	13
534.991	1	5
536.182	1	-6
537.373	1	6
538.563	1	22
539.754	1	8
540.944	1	-5
542.134	1	7
543.325	1	3
544.515	1	-1
545.705	1	2
546.896	1	4
548.086	1	11
549.276	1	-1
550.466	1	5
551.656	1	14
552.846	1	3
554.036	1	8
555.226	1	-4
556.416	1	6
557.606	1	9
558.796	1	10
559.986	1	3
561.175	1	4
562.365	1	10
563.555	1	8
564.744	1	4
565.934	1	17
567.123	1	4
568.313	1	8
569.502	1	1
570.692	1	7
571.881	1	11
573.070	1	6
574.260	1	10
575.449	1	4
576.638	1	0
577.827	1	1
579.016	1	12
580.205	1	1
581.394	1	6
582.583	1	8
583.772	1	15
584.961	1	5
586.150	1	8
587.339	1	9
588.528	1	4
589.717	1	10
590.905	1	5
592.094	1	3
593.283	1	1
594.471	1	13
595.660	1	8
596.848	1	0
598.037	1	3
599.225	1	-9
600.413	1	12
601.602	1	15
602.790	1	3
603.978	1	-2
605.166	1	12
606.355	1	4
607.543	1	4
608.731	1	7
609.919	1	5
611.107	1	4
612.295	1	3
613.483	1	7
614.671	1	7
615.858	1	6
617.046	1	0
618.234	1	6
619.422	1	-4
620.609	1	3
621.797	1	3
622.985	1	1
624.172	1	5
625.360	1	9
626.547	1	5
627.735	1	11
628.922	1	10
630.109	1	-9
631.297	1	7
632.484	1	5
633.671	1	-4
634.858	1	2
636.045	1	6
637.232	1	-2
638.419	1	3
639.606	1	10
640.793	1	5
641.980	1	10
643.167	1	1
644.354	1	0
645.541	1	4
646.728	1	1
647.914	1	3
649.101	1	-1
650.288	1	4
651.474	1	-5
652.661	1	-2
653.847	1	8
655.034	1	12
656.220	1	-6
657.406	1	3
658.593	1	9
659.779	1	7
660.965	1	4
662.152	1	11
663.338	1	7
664.524	1	-4
665.710	1	-3
666.896	1	1
668.082	1	-2
669.268	1	2
670.454	1	2
671.640	1	13
672.826	1	-6
674.011	1	1
675.197	1	-6
676.383	1	3
677.569	1	-1
678.754	1	-2
679.940	1	-1
681.125	1	6
682.311	1	8
683.496	1	-2
684.682	1	-8
685.867	1	-1
687.053	1	4
688.238	1	0
688.746	1	2