Folder: cryo-il_analysis/Data/GaN_130K_350ms (part 15)

File: GaN_sample F_spot6_UVVIS_130 K_200um_350 ms 2x2mm1_194.txt
340.368	1	-2
341.565	1	11
342.763	1	11
343.960	1	-9
345.157	1	-7
346.354	1	2
347.552	1	-1
348.749	1	0
349.946	1	1
351.143	1	0
352.340	1	12
353.537	1	3
354.734	1	-7
355.931	1	9
357.127	1	12
358.324	1	6
359.521	1	4
360.718	1	11
361.914	1	6
363.111	1	21
364.308	1	17
365.504	1	8
366.701	1	29
367.897	1	21
369.093	1	8
370.290	1	20
371.486	1	13
372.682	1	9
373.879	1	20
375.075	1	16
376.271	1	14
377.467	1	18
378.663	1	12
379.859	1	9
381.055	1	3
382.251	1	9
383.447	1	0
384.643	1	14
385.839	1	16
387.035	1	22
388.230	1	4
389.426	1	20
390.622	1	3
391.817	1	10
393.013	1	-1
394.208	1	4
395.404	1	-8
396.599	1	7
397.795	1	-7
398.990	1	0
400.186	1	-1
401.381	1	0
402.576	1	8
403.771	1	10
404.967	1	8
406.162	1	-1
407.357	1	1
408.552	1	-3
409.747	1	3
410.942	1	7
412.137	1	4
413.332	1	5
414.526	1	3
415.721	1	2
416.916	1	-2
418.111	1	1
419.305	1	1
420.500	1	4
421.695	1	7
422.889	1	13
424.084	1	7
425.278	1	-4
426.472	1	5
427.667	1	16
428.861	1	2
430.055	1	3
431.250	1	8
432.444	1	15
433.638	1	5
434.832	1	12
436.026	1	1
437.220	1	-2
438.414	1	3
439.608	1	8
440.802	1	1
441.996	1	10
443.190	1	5
444.384	1	-6
445.578	1	-3
446.771	1	3
447.965	1	6
449.159	1	10
450.352	1	16
451.546	1	3
452.739	1	3
453.933	1	3
455.126	1	-10
456.320	1	4
457.513	1	-5
458.706	1	6
459.899	1	0
461.093	1	13
462.286	1	6
463.479	1	6
464.672	1	9
465.865	1	2
467.058	1	8
468.251	1	0
469.444	1	-3
470.637	1	14
471.830	1	6
473.023	1	5
474.215	1	2
475.408	1	4
476.601	1	-2
477.793	1	-4
478.986	1	1
480.179	1	0
481.371	1	13
482.564	1	-7
483.756	1	2
484.948	1	7
486.141	1	6
487.333	1	7
488.525	1	16
489.718	1	10
490.910	1	-8
492.102	1	4
493.294	1	6
494.486	1	16
495.678	1	2
496.870	1	11
498.062	1	0
499.254	1	3
500.446	1	5
501.638	1	8
502.829	1	12
504.021	1	4
505.213	1	1
506.404	1	3
507.596	1	-3
508.788	1	0
509.979	1	-1
511.171	1	14
512.362	1	5
513.553	1	14
514.745	1	3
515.936	1	14
517.127	1	13
518.319	1	-4
519.510	1	1
520.701	1	4
521.892	1	9
523.083	1	13
524.274	1	-3
525.465	1	11
526.656	1	16
527.847	1	11
529.038	1	-2
530.229	1	13
531.419	1	2
532.610	1	3
533.801	1	9
534.991	1	2
536.182	1	11
537.373	1	6
538.563	1	13
539.754	1	2
540.944	1	-1
542.134	1	3
543.325	1	4
544.515	1	1
545.705	1	7
546.896	1	18
548.086	1	-5
549.276	1	-2
550.466	1	13
551.656	1	7
552.846	1	-1
554.036	1	8
555.226	1	8
556.416	1	15
557.606	1	-3
558.796	1	12
559.986	1	4
561.175	1	1
562.365	1	11
563.555	1	5
564.744	1	7
565.934	1	2
567.123	1	4
568.313	1	7
569.502	1	-1
570.692	1	12
571.881	1	1
573.070	1	4
574.260	1	8
575.449	1	12
576.638	1	0
577.827	1	4
579.016	1	2
580.205	1	-3
581.394	1	9
582.583	1	10
583.772	1	1
584.961	1	0
586.150	1	6
587.339	1	0
588.528	1	12
589.717	1	1
590.905	1	7
592.094	1	4
593.283	1	-8
594.471	1	5
595.660	1	2
596.848	1	7
598.037	1	7
599.225	1	-1
600.413	1	4
601.602	1	1
602.790	1	6
603.978	1	2
605.166	1	5
606.355	1	10
607.543	1	5
608.731	1	8
609.919	1	6
611.107	1	9
612.295	1	9
613.483	1	-4
614.671	1	3
615.858	1	-1
617.046	1	8
618.234	1	3
619.422	1	2
620.609	1	-5
621.797	1	6
622.985	1	10
624.172	1	1
625.360	1	-1
626.547	1	12
627.735	1	10
628.922	1	0
630.109	1	10
631.297	1	8
632.484	1	-5
633.671	1	-6
634.858	1	10
636.045	1	13
637.232	1	-9
638.419	1	1
639.606	1	9
640.793	1	-3
641.980	1	5
643.167	1	6
644.354	1	-2
645.541	1	5
646.728	1	5
647.914	1	-5
649.101	1	0
650.288	1	12
651.474	1	4
652.661	1	-6
653.847	1	3
655.034	1	4
656.220	1	0
657.406	1	6
658.593	1	-4
659.779	1	7
660.965	1	2
662.152	1	0
663.338	1	1
664.524	1	5
665.710	1	2
666.896	1	2
668.082	1	9
669.268	1	-3
670.454	1	5
671.640	1	-6
672.826	1	-1
674.011	1	3
675.197	1	2
676.383	1	3
677.569	1	-5
678.754	1	4
679.940	1	5
681.125	1	7
682.311	1	-4
683.496	1	0
684.682	1	5
685.867	1	2
687.053	1	5
688.238	1	14
688.746	1	12

File: GaN_sample F_spot6_UVVIS_130 K_200um_350 ms 2x2mm1_195.txt
340.368	1	11
341.565	1	9
342.763	1	4
343.960	1	-9
345.157	1	-8
346.354	1	-7
347.552	1	4
348.749	1	-1
349.946	1	9
351.143	1	1
352.340	1	10
353.537	1	3
354.734	1	-2
355.931	1	10
357.127	1	5
358.324	1	0
359.521	1	2
360.718	1	7
361.914	1	9
363.111	1	14
364.308	1	20
365.504	1	22
366.701	1	13
367.897	1	16
369.093	1	9
370.290	1	27
371.486	1	15
372.682	1	15
373.879	1	23
375.075	1	11
376.271	1	16
377.467	1	17
378.663	1	14
379.859	1	5
381.055	1	11
382.251	1	15
383.447	1	9
384.643	1	14
385.839	1	10
387.035	1	17
388.230	1	8
389.426	1	19
390.622	1	18
391.817	1	10
393.013	1	10
394.208	1	2
395.404	1	-14
396.599	1	12
397.795	1	-1
398.990	1	-1
400.186	1	10
401.381	1	2
402.576	1	-1
403.771	1	6
404.967	1	10
406.162	1	3
407.357	1	-1
408.552	1	-5
409.747	1	9
410.942	1	0
412.137	1	4
413.332	1	0
414.526	1	9
415.721	1	7
416.916	1	2
418.111	1	10
419.305	1	4
420.500	1	8
421.695	1	-5
422.889	1	11
424.084	1	12
425.278	1	-7
426.472	1	1
427.667	1	14
428.861	1	12
430.055	1	0
431.250	1	15
432.444	1	9
433.638	1	6
434.832	1	4
436.026	1	15
437.220	1	-6
438.414	1	1
439.608	1	11
440.802	1	-4
441.996	1	8
443.190	1	3
444.384	1	-2
445.578	1	-3
446.771	1	14
447.965	1	0
449.159	1	7
450.352	1	12
451.546	1	14
452.739	1	0
453.933	1	9
455.126	1	-3
456.320	1	0
457.513	1	-1
458.706	1	9
459.899	1	-4
461.093	1	10
462.286	1	5
463.479	1	12
464.672	1	6
465.865	1	-3
467.058	1	9
468.251	1	2
469.444	1	8
470.637	1	8
471.830	1	6
473.023	1	9
474.215	1	-5
475.408	1	9
476.601	1	-1
477.793	1	4
478.986	1	-2
480.179	1	-2
481.371	1	12
482.564	1	4
483.756	1	-4
484.948	1	11
486.141	1	-3
487.333	1	-1
488.525	1	4
489.718	1	5
490.910	1	-2
492.102	1	4
493.294	1	3
494.486	1	8
495.678	1	-3
496.870	1	2
498.062	1	-2
499.254	1	11
500.446	1	2
501.638	1	-1
502.829	1	9
504.021	1	-8
505.213	1	0
506.404	1	-1
507.596	1	5
508.788	1	5
509.979	1	-6
511.171	1	10
512.362	1	2
513.553	1	2
514.745	1	3
515.936	1	16
517.127	1	5
518.319	1	2
519.510	1	4
520.701	1	3
521.892	1	13
523.083	1	6
524.274	1	-5
525.465	1	8
526.656	1	9
527.847	1	-10
529.038	1	-5
530.229	1	12
531.419	1	9
532.610	1	-4
533.801	1	20
534.991	1	10
536.182	1	1
537.373	1	4
538.563	1	13
539.754	1	-1
540.944	1	13
542.134	1	2
543.325	1	5
544.515	1	7
545.705	1	4
546.896	1	10
548.086	1	-6
549.276	1	-1
550.466	1	6
551.656	1	5
552.846	1	-4
554.036	1	2
555.226	1	8
556.416	1	7
557.606	1	11
558.796	1	15
559.986	1	5
561.175	1	16
562.365	1	11
563.555	1	17
564.744	1	11
565.934	1	1
567.123	1	7
568.313	1	7
569.502	1	3
570.692	1	9
571.881	1	-1
573.070	1	1
574.260	1	6
575.449	1	12
576.638	1	-2
577.827	1	-8
579.016	1	-1
580.205	1	1
581.394	1	-5
582.583	1	16
583.772	1	10
584.961	1	0
586.150	1	7
587.339	1	2
588.528	1	9
589.717	1	-2
590.905	1	12
592.094	1	1
593.283	1	-9
594.471	1	12
595.660	1	2
596.848	1	1
598.037	1	16
599.225	1	3
600.413	1	7
601.602	1	2
602.790	1	-6
603.978	1	14
605.166	1	10
606.355	1	11
607.543	1	2
608.731	1	-1
609.919	1	15
611.107	1	2
612.295	1	2
613.483	1	6
614.671	1	5
615.858	1	-2
617.046	1	7
618.234	1	3
619.422	1	-4
620.609	1	-9
621.797	1	-1
622.985	1	11
624.172	1	-2
625.360	1	2
626.547	1	0
627.735	1	9
628.922	1	-3
630.109	1	4
631.297	1	-6
632.484	1	-8
633.671	1	-5
634.858	1	13
636.045	1	7
637.232	1	-3
638.419	1	4
639.606	1	6
640.793	1	-17
641.980	1	-2
643.167	1	6
644.354	1	3
645.541	1	2
646.728	1	2
647.914	1	-3
649.101	1	-4
650.288	1	8
651.474	1	-2
652.661	1	4
653.847	1	6
655.034	1	1
656.220	1	-1
657.406	1	-1
658.593	1	-3
659.779	1	-2
660.965	1	1
662.152	1	-2
663.338	1	4
664.524	1	-9
665.710	1	7
666.896	1	11
668.082	1	1
669.268	1	2
670.454	1	8
671.640	1	-9
672.826	1	-5
674.011	1	0
675.197	1	1
676.383	1	-5
677.569	1	1
678.754	1	3
679.940	1	4
681.125	1	18
682.311	1	-7
683.496	1	0
684.682	1	3
685.867	1	3
687.053	1	2
688.238	1	11
688.746	1	3

File: GaN_sample F_spot6_UVVIS_130 K_200um_350 ms 2x2mm1_197.txt
340.368	1	-5
341.565	1	6
342.763	1	2
343.960	1	-9
345.157	1	-21
346.354	1	-3
347.552	1	-4
348.749	1	11
349.946	1	4
351.143	1	1
352.340	1	12
353.537	1	3
354.734	1	-2
355.931	1	-2
357.127	1	10
358.324	1	2
359.521	1	-3
360.718	1	6
361.914	1	13
363.111	1	14
364.308	1	11
365.504	1	22
366.701	1	19
367.897	1	20
369.093	1	20
370.290	1	18
371.486	1	20
372.682	1	10
373.879	1	17
375.075	1	16
376.271	1	21
377.467	1	24
378.663	1	10
379.859	1	1
381.055	1	11
382.251	1	8
383.447	1	-2
384.643	1	19
385.839	1	13
387.035	1	15
388.230	1	3
389.426	1	10
390.622	1	10
391.817	1	12
393.013	1	4
394.208	1	1
395.404	1	-1
396.599	1	14
397.795	1	0
398.990	1	7
400.186	1	5
401.381	1	6
402.576	1	12
403.771	1	15
404.967	1	2
406.162	1	0
407.357	1	6
408.552	1	-3
409.747	1	3
410.942	1	8
412.137	1	-5
413.332	1	0
414.526	1	9
415.721	1	-3
416.916	1	7
418.111	1	9
419.305	1	-4
420.500	1	2
421.695	1	0
422.889	1	7
424.084	1	6
425.278	1	-6
426.472	1	7
427.667	1	7
428.861	1	10
430.055	1	0
431.250	1	5
432.444	1	8
433.638	1	12
434.832	1	8
436.026	1	6
437.220	1	-6
438.414	1	5
439.608	1	7
440.802	1	-8
441.996	1	11
443.190	1	-2
444.384	1	-5
445.578	1	0
446.771	1	7
447.965	1	0
449.159	1	7
450.352	1	16
451.546	1	13
452.739	1	0
453.933	1	13
455.126	1	-5
456.320	1	-3
457.513	1	1
458.706	1	4
459.899	1	1
461.093	1	12
462.286	1	-4
463.479	1	15
464.672	1	2
465.865	1	2
467.058	1	1
468.251	1	6
469.444	1	2
470.637	1	1
471.830	1	4
473.023	1	7
474.215	1	5
475.408	1	6
476.601	1	7
477.793	1	-3
478.986	1	3
480.179	1	3
481.371	1	7
482.564	1	6
483.756	1	7
484.948	1	7
486.141	1	-1
487.333	1	-2
488.525	1	17
489.718	1	-2
490.910	1	2
492.102	1	15
493.294	1	14
494.486	1	18
495.678	1	-9
496.870	1	2
498.062	1	-1
499.254	1	6
500.446	1	1
501.638	1	14
502.829	1	0
504.021	1	0
505.213	1	2
506.404	1	-1
507.596	1	-1
508.788	1	3
509.979	1	4
511.171	1	11
512.362	1	3
513.553	1	13
514.745	1	-1
515.936	1	14
517.127	1	6
518.319	1	1
519.510	1	-2
520.701	1	8
521.892	1	12
523.083	1	2
524.274	1	-1
525.465	1	9
526.656	1	10
527.847	1	12
529.038	1	10
530.229	1	16
531.419	1	7
532.610	1	5
533.801	1	10
534.991	1	2
536.182	1	11
537.373	1	7
538.563	1	14
539.754	1	-1
540.944	1	14
542.134	1	0
543.325	1	1
544.515	1	10
545.705	1	3
546.896	1	9
548.086	1	3
549.276	1	-2
550.466	1	3
551.656	1	8
552.846	1	-4
554.036	1	-2
555.226	1	6
556.416	1	10
557.606	1	4
558.796	1	17
559.986	1	6
561.175	1	12
562.365	1	17
563.555	1	17
564.744	1	9
565.934	1	7
567.123	1	2
568.313	1	2
569.502	1	-2
570.692	1	7
571.881	1	-6
573.070	1	13
574.260	1	2
575.449	1	5
576.638	1	1
577.827	1	0
579.016	1	-6
580.205	1	-2
581.394	1	-3
582.583	1	12
583.772	1	5
584.961	1	-1
586.150	1	5
587.339	1	0
588.528	1	7
589.717	1	-1
590.905	1	4
592.094	1	6
593.283	1	-3
594.471	1	8
595.660	1	12
596.848	1	6
598.037	1	4
599.225	1	0
600.413	1	15
601.602	1	7
602.790	1	5
603.978	1	6
605.166	1	5
606.355	1	5
607.543	1	-1
608.731	1	11
609.919	1	5
611.107	1	10
612.295	1	10
613.483	1	-3
614.671	1	2
615.858	1	-4
617.046	1	9
618.234	1	4
619.422	1	0
620.609	1	-4
621.797	1	0
622.985	1	3
624.172	1	-5
625.360	1	7
626.547	1	-1
627.735	1	16
628.922	1	-4
630.109	1	0
631.297	1	0
632.484	1	-7
633.671	1	4
634.858	1	14
636.045	1	18
637.232	1	-4
638.419	1	1
639.606	1	5
640.793	1	-4
641.980	1	1
643.167	1	1
644.354	1	-8
645.541	1	-4
646.728	1	10
647.914	1	-1
649.101	1	-7
650.288	1	10
651.474	1	6
652.661	1	2
653.847	1	-5
655.034	1	-2
656.220	1	5
657.406	1	6
658.593	1	0
659.779	1	-3
660.965	1	-1
662.152	1	9
663.338	1	-4
664.524	1	-8
665.710	1	0
666.896	1	4
668.082	1	-1
669.268	1	-1
670.454	1	2
671.640	1	-6
672.826	1	3
674.011	1	1
675.197	1	0
676.383	1	10
677.569	1	5
678.754	1	8
679.940	1	4
681.125	1	10
682.311	1	-11
683.496	1	4
684.682	1	10
685.867	1	4
687.053	1	2
688.238	1	14
688.746	1	12

File: GaN_sample F_spot6_UVVIS_130 K_200um_350 ms 2x2mm1_200.txt
340.368	1	14
341.565	1	1
342.763	1	1
343.960	1	-6
345.157	1	-20
346.354	1	1
347.552	1	-2
348.749	1	2
349.946	1	2
351.143	1	-2
352.340	1	14
353.537	1	9
354.734	1	4
355.931	1	12
357.127	1	11
358.324	1	1
359.521	1	-1
360.718	1	6
361.914	1	4
363.111	1	18
364.308	1	17
365.504	1	16
366.701	1	21
367.897	1	19
369.093	1	16
370.290	1	25
371.486	1	6
372.682	1	21
373.879	1	21
375.075	1	15
376.271	1	10
377.467	1	14
378.663	1	10
379.859	1	9
381.055	1	8
382.251	1	2
383.447	1	6
384.643	1	8
385.839	1	8
387.035	1	22
388.230	1	2
389.426	1	6
390.622	1	4
391.817	1	9
393.013	1	3
394.208	1	-9
395.404	1	-8
396.599	1	6
397.795	1	-4
398.990	1	0
400.186	1	-8
401.381	1	20
402.576	1	11
403.771	1	11
404.967	1	0
406.162	1	1
407.357	1	8
408.552	1	4
409.747	1	2
410.942	1	7
412.137	1	5
413.332	1	7
414.526	1	13
415.721	1	2
416.916	1	2
418.111	1	8
419.305	1	2
420.500	1	9
421.695	1	4
422.889	1	5
424.084	1	7
425.278	1	4
426.472	1	0
427.667	1	5
428.861	1	-3
430.055	1	1
431.250	1	8
432.444	1	9
433.638	1	12
434.832	1	1
436.026	1	8
437.220	1	4
438.414	1	-9
439.608	1	13
440.802	1	-3
441.996	1	13
443.190	1	6
444.384	1	-7
445.578	1	1
446.771	1	0
447.965	1	2
449.159	1	7
450.352	1	18
451.546	1	14
452.739	1	10
453.933	1	7
455.126	1	-7
456.320	1	4
457.513	1	-5
458.706	1	10
459.899	1	-6
461.093	1	14
462.286	1	11
463.479	1	9
464.672	1	4
465.865	1	1
467.058	1	20
468.251	1	8
469.444	1	2
470.637	1	8
471.830	1	3
473.023	1	12
474.215	1	8
475.408	1	5
476.601	1	9
477.793	1	2
478.986	1	-7
480.179	1	-2
481.371	1	7
482.564	1	5
483.756	1	2
484.948	1	8
486.141	1	5
487.333	1	6
488.525	1	5
489.718	1	11
490.910	1	-5
492.102	1	5
493.294	1	15
494.486	1	17
495.678	1	3
496.870	1	17
498.062	1	4
499.254	1	10
500.446	1	8
501.638	1	6
502.829	1	-2
504.021	1	-2
505.213	1	1
506.404	1	4
507.596	1	3
508.788	1	5
509.979	1	1
511.171	1	11
512.362	1	-2
513.553	1	4
514.745	1	8
515.936	1	13
517.127	1	4
518.319	1	6
519.510	1	4
520.701	1	0
521.892	1	9
523.083	1	10
524.274	1	-1
525.465	1	7
526.656	1	11
527.847	1	8
529.038	1	-1
530.229	1	1
531.419	1	7
532.610	1	9
533.801	1	8
534.991	1	7
536.182	1	18
537.373	1	8
538.563	1	14
539.754	1	1
540.944	1	15
542.134	1	8
543.325	1	-1
544.515	1	11
545.705	1	1
546.896	1	-1
548.086	1	-3
549.276	1	0
550.466	1	9
551.656	1	6
552.846	1	4
554.036	1	0
555.226	1	8
556.416	1	2
557.606	1	-4
558.796	1	17
559.986	1	10
561.175	1	8
562.365	1	3
563.555	1	11
564.744	1	-2
565.934	1	3
567.123	1	-3
568.313	1	9
569.502	1	1
570.692	1	10
571.881	1	5
573.070	1	2
574.260	1	2
575.449	1	7
576.638	1	-10
577.827	1	-5
579.016	1	-6
580.205	1	-7
581.394	1	-3
582.583	1	10
583.772	1	8
584.961	1	-2
586.150	1	2
587.339	1	5
588.528	1	11
589.717	1	4
590.905	1	9
592.094	1	6
593.283	1	1
594.471	1	-1
595.660	1	7
596.848	1	8
598.037	1	8
599.225	1	9
600.413	1	16
601.602	1	3
602.790	1	3
603.978	1	6
605.166	1	5
606.355	1	7
607.543	1	2
608.731	1	2
609.919	1	4
611.107	1	1
612.295	1	10
613.483	1	-11
614.671	1	3
615.858	1	-6
617.046	1	10
618.234	1	3
619.422	1	-2
620.609	1	-4
621.797	1	-1
622.985	1	9
624.172	1	13
625.360	1	1
626.547	1	7
627.735	1	7
628.922	1	-7
630.109	1	4
631.297	1	2
632.484	1	-3
633.671	1	-9
634.858	1	17
636.045	1	14
637.232	1	-2
638.419	1	6
639.606	1	0
640.793	1	-6
641.980	1	-3
643.167	1	5
644.354	1	-5
645.541	1	-2
646.728	1	5
647.914	1	-7
649.101	1	3
650.288	1	10
651.474	1	6
652.661	1	-6
653.847	1	7
655.034	1	-3
656.220	1	-2
657.406	1	0
658.593	1	2
659.779	1	3
660.965	1	-3
662.152	1	-1
663.338	1	1
664.524	1	-11
665.710	1	5
666.896	1	-3
668.082	1	-1
669.268	1	-8
670.454	1	-4
671.640	1	-2
672.826	1	13
674.011	1	1
675.197	1	0
676.383	1	12
677.569	1	-2
678.754	1	8
679.940	1	3
681.125	1	10
682.311	1	-6
683.496	1	-3
684.682	1	-9
685.867	1	-1
687.053	1	9
688.238	1	11
688.746	1	6

File: GaN_sample F_spot6_UVVIS_130 K_200um_350 ms 2x2mm1_201.txt
340.368	1	11
341.565	1	2
342.763	1	10
343.960	1	-11
345.157	1	-9
346.354	1	3
347.552	1	-4
348.749	1	17
349.946	1	7
351.143	1	12
352.340	1	12
353.537	1	3
354.734	1	-4
355.931	1	4
357.127	1	2
358.324	1	6
359.521	1	-4
360.718	1	10
361.914	1	9
363.111	1	22
364.308	1	19
365.504	1	15
366.701	1	9
367.897	1	14
369.093	1	23
370.290	1	30
371.486	1	7
372.682	1	11
373.879	1	12
375.075	1	18
376.271	1	18
377.467	1	6
378.663	1	17
379.859	1	9
381.055	1	0
382.251	1	1
383.447	1	2
384.643	1	12
385.839	1	11
387.035	1	12
388.230	1	3
389.426	1	10
390.622	1	11
391.817	1	8
393.013	1	12
394.208	1	0
395.404	1	-5
396.599	1	7
397.795	1	0
398.990	1	-9
400.186	1	-1
401.381	1	11
402.576	1	7
403.771	1	14
404.967	1	14
406.162	1	2
407.357	1	7
408.552	1	0
409.747	1	8
410.942	1	7
412.137	1	2
413.332	1	3
414.526	1	8
415.721	1	0
416.916	1	7
418.111	1	7
419.305	1	7
420.500	1	5
421.695	1	8
422.889	1	-1
424.084	1	8
425.278	1	3
426.472	1	9
427.667	1	1
428.861	1	3
430.055	1	-3
431.250	1	7
432.444	1	10
433.638	1	11
434.832	1	3
436.026	1	6
437.220	1	1
438.414	1	2
439.608	1	16
440.802	1	-5
441.996	1	14
443.190	1	4
444.384	1	8
445.578	1	3
446.771	1	2
447.965	1	7
449.159	1	10
450.352	1	-2
451.546	1	21
452.739	1	8
453.933	1	0
455.126	1	-4
456.320	1	1
457.513	1	-8
458.706	1	12
459.899	1	4
461.093	1	3
462.286	1	14
463.479	1	14
464.672	1	3
465.865	1	-3
467.058	1	12
468.251	1	10
469.444	1	3
470.637	1	6
471.830	1	7
473.023	1	6
474.215	1	7
475.408	1	4
476.601	1	2
477.793	1	-6
478.986	1	1
480.179	1	2
481.371	1	9
482.564	1	-2
483.756	1	6
484.948	1	6
486.141	1	2
487.333	1	0
488.525	1	6
489.718	1	3
490.910	1	-7
492.102	1	3
493.294	1	15
494.486	1	10
495.678	1	-1
496.870	1	0
498.062	1	-5
499.254	1	5
500.446	1	-1
501.638	1	8
502.829	1	-7
504.021	1	5
505.213	1	1
506.404	1	-2
507.596	1	12
508.788	1	-1
509.979	1	10
511.171	1	22
512.362	1	-3
513.553	1	4
514.745	1	0
515.936	1	12
517.127	1	5
518.319	1	4
519.510	1	8
520.701	1	-3
521.892	1	15
523.083	1	0
524.274	1	0
525.465	1	11
526.656	1	11
527.847	1	3
529.038	1	0
530.229	1	11
531.419	1	10
532.610	1	2
533.801	1	18
534.991	1	-1
536.182	1	6
537.373	1	11
538.563	1	3
539.754	1	-5
540.944	1	13
542.134	1	11
543.325	1	10
544.515	1	15
545.705	1	2
546.896	1	3
548.086	1	0
549.276	1	2
550.466	1	14
551.656	1	1
552.846	1	10
554.036	1	6
555.226	1	4
556.416	1	3
557.606	1	-2
558.796	1	10
559.986	1	7
561.175	1	7
562.365	1	15
563.555	1	9
564.744	1	8
565.934	1	6
567.123	1	4
568.313	1	-4
569.502	1	-6
570.692	1	14
571.881	1	9
573.070	1	4
574.260	1	12
575.449	1	3
576.638	1	6
577.827	1	-4
579.016	1	-4
580.205	1	5
581.394	1	7
582.583	1	20
583.772	1	9
584.961	1	-4
586.150	1	3
587.339	1	4
588.528	1	8
589.717	1	-5
590.905	1	4
592.094	1	6
593.283	1	-1
594.471	1	3
595.660	1	-1
596.848	1	5
598.037	1	4
599.225	1	0
600.413	1	5
601.602	1	-1
602.790	1	-1
603.978	1	3
605.166	1	11
606.355	1	5
607.543	1	3
608.731	1	1
609.919	1	11
611.107	1	2
612.295	1	7
613.483	1	4
614.671	1	8
615.858	1	-2
617.046	1	7
618.234	1	3
619.422	1	5
620.609	1	-2
621.797	1	3
622.985	1	2
624.172	1	-6
625.360	1	6
626.547	1	0
627.735	1	17
628.922	1	0
630.109	1	6
631.297	1	1
632.484	1	-5
633.671	1	0
634.858	1	6
636.045	1	15
637.232	1	3
638.419	1	6
639.606	1	1
640.793	1	-5
641.980	1	9
643.167	1	15
644.354	1	5
645.541	1	5
646.728	1	4
647.914	1	-6
649.101	1	-2
650.288	1	7
651.474	1	5
652.661	1	4
653.847	1	4
655.034	1	-1
656.220	1	-3
657.406	1	-1
658.593	1	5
659.779	1	-3
660.965	1	12
662.152	1	8
663.338	1	6
664.524	1	1
665.710	1	2
666.896	1	4
668.082	1	3
669.268	1	-4
670.454	1	2
671.640	1	-14
672.826	1	2
674.011	1	6
675.197	1	-2
676.383	1	3
677.569	1	4
678.754	1	9
679.940	1	-4
681.125	1	1
682.311	1	-9
683.496	1	-15
684.682	1	-10
685.867	1	-2
687.053	1	-4
688.238	1	10
688.746	1	8

File: GaN_sample F_spot6_UVVIS_130 K_200um_350 ms 2x2mm1_202.txt
340.368	1	9
341.565	1	-2
342.763	1	-3
343.960	1	-3
345.157	1	-10
346.354	1	6
347.552	1	1
348.749	1	9
349.946	1	3
351.143	1	-2
352.340	1	9
353.537	1	6
354.734	1	-2
355.931	1	10
357.127	1	12
358.324	1	6
359.521	1	1
360.718	1	-1
361.914	1	6
363.111	1	12
364.308	1	20
365.504	1	19
366.701	1	20
367.897	1	17
369.093	1	18
370.290	1	16
371.486	1	16
372.682	1	4
373.879	1	15
375.075	1	13
376.271	1	17
377.467	1	18
378.663	1	9
379.859	1	13
381.055	1	9
382.251	1	9
383.447	1	9
384.643	1	6
385.839	1	5
387.035	1	21
388.230	1	5
389.426	1	5
390.622	1	8
391.817	1	12
393.013	1	1
394.208	1	-5
395.404	1	1
396.599	1	4
397.795	1	-7
398.990	1	11
400.186	1	-5
401.381	1	16
402.576	1	6
403.771	1	4
404.967	1	-1
406.162	1	0
407.357	1	2
408.552	1	7
409.747	1	2
410.942	1	6
412.137	1	-1
413.332	1	-6
414.526	1	7
415.721	1	8
416.916	1	4
418.111	1	11
419.305	1	5
420.500	1	9
421.695	1	3
422.889	1	9
424.084	1	11
425.278	1	-2
426.472	1	4
427.667	1	5
428.861	1	-5
430.055	1	8
431.250	1	11
432.444	1	10
433.638	1	11
434.832	1	1
436.026	1	4
437.220	1	3
438.414	1	-6
439.608	1	12
440.802	1	-5
441.996	1	9
443.190	1	10
444.384	1	6
445.578	1	-4
446.771	1	5
447.965	1	4
449.159	1	3
450.352	1	0
451.546	1	5
452.739	1	4
453.933	1	14
455.126	1	-10
456.320	1	-1
457.513	1	-5
458.706	1	14
459.899	1	2
461.093	1	21
462.286	1	8
463.479	1	6
464.672	1	19
465.865	1	-12
467.058	1	9
468.251	1	-2
469.444	1	-4
470.637	1	2
471.830	1	2
473.023	1	5
474.215	1	-3
475.408	1	7
476.601	1	-5
477.793	1	6
478.986	1	3
480.179	1	4
481.371	1	12
482.564	1	0
483.756	1	3
484.948	1	-2
486.141	1	-5
487.333	1	1
488.525	1	0
489.718	1	-1
490.910	1	-5
492.102	1	4
493.294	1	6
494.486	1	19
495.678	1	-9
496.870	1	5
498.062	1	-6
499.254	1	12
500.446	1	8
501.638	1	6
502.829	1	4
504.021	1	0
505.213	1	1
506.404	1	-5
507.596	1	7
508.788	1	-6
509.979	1	-1
511.171	1	18
512.362	1	-1
513.553	1	8
514.745	1	3
515.936	1	15
517.127	1	10
518.319	1	0
519.510	1	5
520.701	1	-1
521.892	1	4
523.083	1	12
524.274	1	3
525.465	1	12
526.656	1	11
527.847	1	9
529.038	1	-4
530.229	1	5
531.419	1	18
532.610	1	6
533.801	1	19
534.991	1	9
536.182	1	13
537.373	1	9
538.563	1	11
539.754	1	11
540.944	1	15
542.134	1	6
543.325	1	6
544.515	1	5
545.705	1	1
546.896	1	8
548.086	1	-2
549.276	1	3
550.466	1	8
551.656	1	9
552.846	1	0
554.036	1	2
555.226	1	10
556.416	1	10
557.606	1	-1
558.796	1	16
559.986	1	7
561.175	1	6
562.365	1	5
563.555	1	8
564.744	1	10
565.934	1	4
567.123	1	6
568.313	1	-7
569.502	1	-1
570.692	1	8
571.881	1	3
573.070	1	-1
574.260	1	6
575.449	1	4
576.638	1	1
577.827	1	1
579.016	1	-7
580.205	1	0
581.394	1	0
582.583	1	13
583.772	1	0
584.961	1	-4
586.150	1	12
587.339	1	-3
588.528	1	11
589.717	1	0
590.905	1	10
592.094	1	5
593.283	1	-2
594.471	1	1
595.660	1	-2
596.848	1	7
598.037	1	4
599.225	1	3
600.413	1	11
601.602	1	7
602.790	1	-3
603.978	1	4
605.166	1	10
606.355	1	13
607.543	1	-1
608.731	1	11
609.919	1	3
611.107	1	12
612.295	1	12
613.483	1	2
614.671	1	9
615.858	1	-2
617.046	1	4
618.234	1	-4
619.422	1	6
620.609	1	-6
621.797	1	10
622.985	1	2
624.172	1	-2
625.360	1	-7
626.547	1	-1
627.735	1	12
628.922	1	-7
630.109	1	2
631.297	1	3
632.484	1	-7
633.671	1	-5
634.858	1	7
636.045	1	8
637.232	1	-8
638.419	1	9
639.606	1	4
640.793	1	-15
641.980	1	5
643.167	1	5
644.354	1	-1
645.541	1	0
646.728	1	10
647.914	1	-8
649.101	1	1
650.288	1	14
651.474	1	1
652.661	1	6
653.847	1	5
655.034	1	5
656.220	1	0
657.406	1	6
658.593	1	1
659.779	1	-1
660.965	1	4
662.152	1	0
663.338	1	3
664.524	1	3
665.710	1	9
666.896	1	8
668.082	1	4
669.268	1	7
670.454	1	-1
671.640	1	-7
672.826	1	-4
674.011	1	-2
675.197	1	-5
676.383	1	8
677.569	1	5
678.754	1	5
679.940	1	5
681.125	1	8
682.311	1	-12
683.496	1	-4
684.682	1	0
685.867	1	0
687.053	1	1
688.238	1	11
688.746	1	2