Folder: cryo-il_analysis/Data/GaN_200K_800ms (part 24)

File: GaN_sample F_spot 12_UVVIS_200 K_200um_800 ms 2x2mm1_203.txt
340.368	1	10
341.565	1	-14
342.763	1	1
343.960	1	-5
345.157	1	-9
346.354	1	-4
347.552	1	-1
348.749	1	-2
349.946	1	2
351.143	1	-4
352.340	1	9
353.537	1	7
354.734	1	-3
355.931	1	4
357.127	1	-5
358.324	1	4
359.521	1	10
360.718	1	10
361.914	1	11
363.111	1	5
364.308	1	14
365.504	1	22
366.701	1	22
367.897	1	21
369.093	1	25
370.290	1	33
371.486	1	26
372.682	1	23
373.879	1	17
375.075	1	26
376.271	1	14
377.467	1	11
378.663	1	9
379.859	1	7
381.055	1	10
382.251	1	7
383.447	1	9
384.643	1	18
385.839	1	10
387.035	1	-1
388.230	1	17
389.426	1	8
390.622	1	-2
391.817	1	13
393.013	1	3
394.208	1	-1
395.404	1	0
396.599	1	-2
397.795	1	-3
398.990	1	-1
400.186	1	5
401.381	1	-3
402.576	1	-6
403.771	1	7
404.967	1	13
406.162	1	12
407.357	1	-5
408.552	1	-4
409.747	1	3
410.942	1	7
412.137	1	-6
413.332	1	6
414.526	1	6
415.721	1	2
416.916	1	-2
418.111	1	-2
419.305	1	6
420.500	1	1
421.695	1	-4
422.889	1	-4
424.084	1	1
425.278	1	13
426.472	1	2
427.667	1	2
428.861	1	2
430.055	1	6
431.250	1	-14
432.444	1	9
433.638	1	4
434.832	1	-1
436.026	1	4
437.220	1	3
438.414	1	-7
439.608	1	-11
440.802	1	-2
441.996	1	3
443.190	1	5
444.384	1	3
445.578	1	-8
446.771	1	6
447.965	1	-2
449.159	1	-9
450.352	1	-5
451.546	1	-5
452.739	1	2
453.933	1	-6
455.126	1	-8
456.320	1	-4
457.513	1	3
458.706	1	4
459.899	1	-2
461.093	1	1
462.286	1	5
463.479	1	-2
464.672	1	2
465.865	1	0
467.058	1	-1
468.251	1	0
469.444	1	-3
470.637	1	2
471.830	1	10
473.023	1	3
474.215	1	8
475.408	1	-6
476.601	1	0
477.793	1	0
478.986	1	-3
480.179	1	3
481.371	1	1
482.564	1	-1
483.756	1	12
484.948	1	-7
486.141	1	-13
487.333	1	11
488.525	1	1
489.718	1	3
490.910	1	-2
492.102	1	-2
493.294	1	-6
494.486	1	6
495.678	1	1
496.870	1	-1
498.062	1	-1
499.254	1	0
500.446	1	-11
501.638	1	10
502.829	1	-9
504.021	1	-1
505.213	1	6
506.404	1	1
507.596	1	-1
508.788	1	10
509.979	1	1
511.171	1	6
512.362	1	-7
513.553	1	-9
514.745	1	-3
515.936	1	4
517.127	1	2
518.319	1	1
519.510	1	4
520.701	1	-3
521.892	1	-1
523.083	1	3
524.274	1	3
525.465	1	8
526.656	1	12
527.847	1	-1
529.038	1	3
530.229	1	1
531.419	1	8
532.610	1	-1
533.801	1	13
534.991	1	8
536.182	1	13
537.373	1	0
538.563	1	7
539.754	1	12
540.944	1	1
542.134	1	10
543.325	1	-1
544.515	1	-2
545.705	1	3
546.896	1	4
548.086	1	1
549.276	1	0
550.466	1	6
551.656	1	0
552.846	1	0
554.036	1	1
555.226	1	-10
556.416	1	-1
557.606	1	4
558.796	1	5
559.986	1	-6
561.175	1	3
562.365	1	6
563.555	1	-6
564.744	1	2
565.934	1	11
567.123	1	10
568.313	1	5
569.502	1	-7
570.692	1	16
571.881	1	1
573.070	1	4
574.260	1	10
575.449	1	6
576.638	1	-3
577.827	1	0
579.016	1	7
580.205	1	3
581.394	1	2
582.583	1	6
583.772	1	9
584.961	1	4
586.150	1	1
587.339	1	3
588.528	1	9
589.717	1	11
590.905	1	2
592.094	1	-5
593.283	1	-6
594.471	1	9
595.660	1	5
596.848	1	5
598.037	1	-2
599.225	1	-9
600.413	1	8
601.602	1	10
602.790	1	-2
603.978	1	0
605.166	1	2
606.355	1	4
607.543	1	-1
608.731	1	6
609.919	1	7
611.107	1	-1
612.295	1	5
613.483	1	1
614.671	1	11
615.858	1	1
617.046	1	10
618.234	1	4
619.422	1	-5
620.609	1	7
621.797	1	-1
622.985	1	4
624.172	1	0
625.360	1	3
626.547	1	7
627.735	1	10
628.922	1	7
630.109	1	-4
631.297	1	-10
632.484	1	-2
633.671	1	-4
634.858	1	-2
636.045	1	6
637.232	1	2
638.419	1	-2
639.606	1	2
640.793	1	8
641.980	1	2
643.167	1	1
644.354	1	-2
645.541	1	0
646.728	1	2
647.914	1	-6
649.101	1	-4
650.288	1	1
651.474	1	-9
652.661	1	-6
653.847	1	8
655.034	1	4
656.220	1	-4
657.406	1	8
658.593	1	3
659.779	1	7
660.965	1	8
662.152	1	3
663.338	1	3
664.524	1	3
665.710	1	-1
666.896	1	0
668.082	1	3
669.268	1	-4
670.454	1	9
671.640	1	-2
672.826	1	4
674.011	1	-2
675.197	1	-6
676.383	1	-1
677.569	1	1
678.754	1	-10
679.940	1	-14
681.125	1	0
682.311	1	9
683.496	1	8
684.682	1	-7
685.867	1	2
687.053	1	9
688.238	1	4
688.746	1	4

File: GaN_sample F_spot 12_UVVIS_200 K_200um_800 ms 2x2mm1_205.txt
340.368	1	5
341.565	1	-8
342.763	1	4
343.960	1	2
345.157	1	2
346.354	1	6
347.552	1	4
348.749	1	-4
349.946	1	-11
351.143	1	2
352.340	1	6
353.537	1	3
354.734	1	4
355.931	1	-1
357.127	1	-1
358.324	1	-3
359.521	1	6
360.718	1	11
361.914	1	1
363.111	1	10
364.308	1	9
365.504	1	25
366.701	1	25
367.897	1	35
369.093	1	24
370.290	1	34
371.486	1	36
372.682	1	28
373.879	1	23
375.075	1	7
376.271	1	18
377.467	1	16
378.663	1	7
379.859	1	20
381.055	1	16
382.251	1	6
383.447	1	6
384.643	1	12
385.839	1	-5
387.035	1	3
388.230	1	13
389.426	1	1
390.622	1	-1
391.817	1	-1
393.013	1	0
394.208	1	-1
395.404	1	2
396.599	1	2
397.795	1	-5
398.990	1	-4
400.186	1	5
401.381	1	6
402.576	1	-1
403.771	1	8
404.967	1	9
406.162	1	6
407.357	1	-1
408.552	1	0
409.747	1	-1
410.942	1	11
412.137	1	7
413.332	1	1
414.526	1	6
415.721	1	11
416.916	1	7
418.111	1	3
419.305	1	6
420.500	1	0
421.695	1	4
422.889	1	-3
424.084	1	-8
425.278	1	3
426.472	1	-2
427.667	1	6
428.861	1	-2
430.055	1	1
431.250	1	2
432.444	1	8
433.638	1	1
434.832	1	-1
436.026	1	4
437.220	1	0
438.414	1	-4
439.608	1	-10
440.802	1	-2
441.996	1	9
443.190	1	1
444.384	1	-13
445.578	1	-13
446.771	1	10
447.965	1	-7
449.159	1	-8
450.352	1	-5
451.546	1	-4
452.739	1	9
453.933	1	1
455.126	1	2
456.320	1	-2
457.513	1	11
458.706	1	6
459.899	1	-3
461.093	1	7
462.286	1	-3
463.479	1	1
464.672	1	0
465.865	1	-10
467.058	1	2
468.251	1	0
469.444	1	-11
470.637	1	12
471.830	1	-3
473.023	1	3
474.215	1	9
475.408	1	-5
476.601	1	1
477.793	1	-6
478.986	1	-2
480.179	1	0
481.371	1	0
482.564	1	-5
483.756	1	8
484.948	1	4
486.141	1	-8
487.333	1	-1
488.525	1	-4
489.718	1	-1
490.910	1	-3
492.102	1	-3
493.294	1	-4
494.486	1	6
495.678	1	0
496.870	1	13
498.062	1	7
499.254	1	-6
500.446	1	-8
501.638	1	-2
502.829	1	1
504.021	1	1
505.213	1	9
506.404	1	2
507.596	1	8
508.788	1	16
509.979	1	-1
511.171	1	-5
512.362	1	-6
513.553	1	-8
514.745	1	-4
515.936	1	-11
517.127	1	2
518.319	1	2
519.510	1	2
520.701	1	2
521.892	1	6
523.083	1	-12
524.274	1	-2
525.465	1	12
526.656	1	3
527.847	1	4
529.038	1	8
530.229	1	11
531.419	1	4
532.610	1	7
533.801	1	12
534.991	1	5
536.182	1	0
537.373	1	6
538.563	1	12
539.754	1	2
540.944	1	-5
542.134	1	6
543.325	1	-1
544.515	1	5
545.705	1	2
546.896	1	7
548.086	1	9
549.276	1	0
550.466	1	6
551.656	1	9
552.846	1	4
554.036	1	0
555.226	1	2
556.416	1	3
557.606	1	0
558.796	1	9
559.986	1	1
561.175	1	4
562.365	1	10
563.555	1	-1
564.744	1	14
565.934	1	6
567.123	1	4
568.313	1	6
569.502	1	3
570.692	1	-3
571.881	1	8
573.070	1	5
574.260	1	11
575.449	1	-3
576.638	1	13
577.827	1	0
579.016	1	12
580.205	1	5
581.394	1	-1
582.583	1	18
583.772	1	9
584.961	1	8
586.150	1	-1
587.339	1	8
588.528	1	7
589.717	1	4
590.905	1	3
592.094	1	-1
593.283	1	1
594.471	1	14
595.660	1	9
596.848	1	9
598.037	1	3
599.225	1	-5
600.413	1	6
601.602	1	13
602.790	1	3
603.978	1	9
605.166	1	-1
606.355	1	9
607.543	1	-2
608.731	1	6
609.919	1	9
611.107	1	4
612.295	1	2
613.483	1	0
614.671	1	-2
615.858	1	8
617.046	1	-5
618.234	1	-5
619.422	1	-8
620.609	1	6
621.797	1	-12
622.985	1	3
624.172	1	1
625.360	1	5
626.547	1	7
627.735	1	0
628.922	1	7
630.109	1	-8
631.297	1	2
632.484	1	-4
633.671	1	-6
634.858	1	-1
636.045	1	7
637.232	1	-3
638.419	1	1
639.606	1	11
640.793	1	13
641.980	1	10
643.167	1	-6
644.354	1	8
645.541	1	6
646.728	1	4
647.914	1	3
649.101	1	-6
650.288	1	5
651.474	1	0
652.661	1	1
653.847	1	6
655.034	1	8
656.220	1	3
657.406	1	7
658.593	1	3
659.779	1	0
660.965	1	5
662.152	1	5
663.338	1	8
664.524	1	6
665.710	1	-2
666.896	1	-9
668.082	1	4
669.268	1	1
670.454	1	3
671.640	1	4
672.826	1	-1
674.011	1	-3
675.197	1	-13
676.383	1	4
677.569	1	-2
678.754	1	0
679.940	1	0
681.125	1	2
682.311	1	8
683.496	1	-1
684.682	1	-4
685.867	1	4
687.053	1	1
688.238	1	14
688.746	1	-2

File: GaN_sample F_spot 12_UVVIS_200 K_200um_800 ms 2x2mm1_210.txt
340.368	1	5
341.565	1	-12
342.763	1	6
343.960	1	6
345.157	1	-4
346.354	1	3
347.552	1	-4
348.749	1	-6
349.946	1	-8
351.143	1	4
352.340	1	16
353.537	1	3
354.734	1	-1
355.931	1	-3
357.127	1	-1
358.324	1	2
359.521	1	9
360.718	1	6
361.914	1	13
363.111	1	8
364.308	1	13
365.504	1	28
366.701	1	17
367.897	1	25
369.093	1	29
370.290	1	29
371.486	1	30
372.682	1	33
373.879	1	20
375.075	1	23
376.271	1	14
377.467	1	11
378.663	1	9
379.859	1	17
381.055	1	18
382.251	1	2
383.447	1	1
384.643	1	14
385.839	1	-5
387.035	1	-1
388.230	1	6
389.426	1	-2
390.622	1	3
391.817	1	9
393.013	1	-11
394.208	1	3
395.404	1	2
396.599	1	-2
397.795	1	6
398.990	1	5
400.186	1	9
401.381	1	7
402.576	1	4
403.771	1	9
404.967	1	1
406.162	1	7
407.357	1	1
408.552	1	-8
409.747	1	-7
410.942	1	3
412.137	1	8
413.332	1	0
414.526	1	-2
415.721	1	13
416.916	1	-2
418.111	1	-2
419.305	1	7
420.500	1	-1
421.695	1	1
422.889	1	-8
424.084	1	-3
425.278	1	10
426.472	1	3
427.667	1	7
428.861	1	-4
430.055	1	7
431.250	1	-4
432.444	1	16
433.638	1	-6
434.832	1	0
436.026	1	-1
437.220	1	7
438.414	1	-4
439.608	1	-18
440.802	1	-2
441.996	1	7
443.190	1	-2
444.384	1	-1
445.578	1	-4
446.771	1	9
447.965	1	2
449.159	1	-6
450.352	1	-3
451.546	1	3
452.739	1	0
453.933	1	-1
455.126	1	-2
456.320	1	-5
457.513	1	6
458.706	1	-1
459.899	1	-4
461.093	1	-4
462.286	1	-3
463.479	1	-7
464.672	1	0
465.865	1	0
467.058	1	-8
468.251	1	-7
469.444	1	-1
470.637	1	-3
471.830	1	4
473.023	1	4
474.215	1	9
475.408	1	-1
476.601	1	4
477.793	1	-7
478.986	1	-7
480.179	1	-6
481.371	1	1
482.564	1	4
483.756	1	10
484.948	1	-8
486.141	1	-4
487.333	1	3
488.525	1	2
489.718	1	-2
490.910	1	6
492.102	1	0
493.294	1	-5
494.486	1	2
495.678	1	3
496.870	1	1
498.062	1	3
499.254	1	2
500.446	1	-3
501.638	1	-4
502.829	1	5
504.021	1	4
505.213	1	9
506.404	1	8
507.596	1	2
508.788	1	11
509.979	1	4
511.171	1	-10
512.362	1	-3
513.553	1	-7
514.745	1	-3
515.936	1	2
517.127	1	0
518.319	1	-7
519.510	1	0
520.701	1	4
521.892	1	7
523.083	1	4
524.274	1	3
525.465	1	13
526.656	1	-3
527.847	1	6
529.038	1	2
530.229	1	10
531.419	1	10
532.610	1	3
533.801	1	14
534.991	1	5
536.182	1	7
537.373	1	12
538.563	1	7
539.754	1	1
540.944	1	-1
542.134	1	3
543.325	1	-3
544.515	1	-2
545.705	1	-4
546.896	1	7
548.086	1	5
549.276	1	5
550.466	1	6
551.656	1	4
552.846	1	10
554.036	1	1
555.226	1	-9
556.416	1	4
557.606	1	4
558.796	1	1
559.986	1	-7
561.175	1	5
562.365	1	7
563.555	1	8
564.744	1	5
565.934	1	15
567.123	1	3
568.313	1	9
569.502	1	-2
570.692	1	11
571.881	1	15
573.070	1	-2
574.260	1	13
575.449	1	-4
576.638	1	-5
577.827	1	4
579.016	1	9
580.205	1	12
581.394	1	4
582.583	1	14
583.772	1	9
584.961	1	4
586.150	1	-2
587.339	1	10
588.528	1	8
589.717	1	7
590.905	1	8
592.094	1	1
593.283	1	7
594.471	1	20
595.660	1	7
596.848	1	13
598.037	1	-1
599.225	1	-1
600.413	1	10
601.602	1	17
602.790	1	7
603.978	1	0
605.166	1	5
606.355	1	5
607.543	1	7
608.731	1	-1
609.919	1	13
611.107	1	11
612.295	1	-4
613.483	1	5
614.671	1	18
615.858	1	-4
617.046	1	9
618.234	1	-7
619.422	1	-9
620.609	1	5
621.797	1	10
622.985	1	0
624.172	1	4
625.360	1	11
626.547	1	9
627.735	1	4
628.922	1	8
630.109	1	-10
631.297	1	8
632.484	1	-2
633.671	1	2
634.858	1	-1
636.045	1	16
637.232	1	-5
638.419	1	-3
639.606	1	5
640.793	1	11
641.980	1	4
643.167	1	-1
644.354	1	-3
645.541	1	-4
646.728	1	5
647.914	1	-11
649.101	1	2
650.288	1	2
651.474	1	3
652.661	1	-8
653.847	1	16
655.034	1	-1
656.220	1	-5
657.406	1	8
658.593	1	9
659.779	1	-1
660.965	1	-2
662.152	1	-3
663.338	1	12
664.524	1	-3
665.710	1	-3
666.896	1	-4
668.082	1	7
669.268	1	-1
670.454	1	4
671.640	1	5
672.826	1	-4
674.011	1	-1
675.197	1	-3
676.383	1	-3
677.569	1	-12
678.754	1	10
679.940	1	4
681.125	1	7
682.311	1	7
683.496	1	4
684.682	1	-7
685.867	1	-1
687.053	1	-5
688.238	1	6
688.746	1	-1

File: GaN_sample F_spot 12_UVVIS_200 K_200um_800 ms 2x2mm1_211.txt
340.368	1	7
341.565	1	-3
342.763	1	3
343.960	1	2
345.157	1	-3
346.354	1	-3
347.552	1	-5
348.749	1	-7
349.946	1	-6
351.143	1	-2
352.340	1	7
353.537	1	5
354.734	1	3
355.931	1	-3
357.127	1	7
358.324	1	6
359.521	1	15
360.718	1	7
361.914	1	6
363.111	1	7
364.308	1	9
365.504	1	28
366.701	1	13
367.897	1	21
369.093	1	32
370.290	1	36
371.486	1	35
372.682	1	26
373.879	1	20
375.075	1	6
376.271	1	10
377.467	1	12
378.663	1	2
379.859	1	10
381.055	1	22
382.251	1	-5
383.447	1	1
384.643	1	17
385.839	1	8
387.035	1	5
388.230	1	7
389.426	1	1
390.622	1	4
391.817	1	3
393.013	1	5
394.208	1	13
395.404	1	-7
396.599	1	-4
397.795	1	3
398.990	1	1
400.186	1	2
401.381	1	-3
402.576	1	-3
403.771	1	10
404.967	1	5
406.162	1	10
407.357	1	-1
408.552	1	-3
409.747	1	-2
410.942	1	8
412.137	1	4
413.332	1	1
414.526	1	-6
415.721	1	1
416.916	1	2
418.111	1	2
419.305	1	0
420.500	1	-5
421.695	1	10
422.889	1	-8
424.084	1	-5
425.278	1	14
426.472	1	1
427.667	1	6
428.861	1	0
430.055	1	5
431.250	1	-7
432.444	1	8
433.638	1	-5
434.832	1	3
436.026	1	7
437.220	1	10
438.414	1	-10
439.608	1	-8
440.802	1	-2
441.996	1	6
443.190	1	0
444.384	1	-9
445.578	1	-5
446.771	1	15
447.965	1	10
449.159	1	-10
450.352	1	-7
451.546	1	8
452.739	1	-2
453.933	1	2
455.126	1	-4
456.320	1	-1
457.513	1	3
458.706	1	-3
459.899	1	3
461.093	1	6
462.286	1	0
463.479	1	-4
464.672	1	-2
465.865	1	0
467.058	1	1
468.251	1	0
469.444	1	-4
470.637	1	3
471.830	1	3
473.023	1	7
474.215	1	12
475.408	1	-11
476.601	1	-7
477.793	1	11
478.986	1	1
480.179	1	1
481.371	1	0
482.564	1	6
483.756	1	9
484.948	1	-4
486.141	1	-3
487.333	1	2
488.525	1	2
489.718	1	-4
490.910	1	-4
492.102	1	-3
493.294	1	-4
494.486	1	5
495.678	1	-1
496.870	1	6
498.062	1	9
499.254	1	10
500.446	1	-5
501.638	1	1
502.829	1	3
504.021	1	-9
505.213	1	9
506.404	1	6
507.596	1	3
508.788	1	2
509.979	1	-1
511.171	1	-2
512.362	1	2
513.553	1	-12
514.745	1	0
515.936	1	0
517.127	1	0
518.319	1	-1
519.510	1	-2
520.701	1	5
521.892	1	4
523.083	1	0
524.274	1	1
525.465	1	8
526.656	1	5
527.847	1	4
529.038	1	0
530.229	1	4
531.419	1	1
532.610	1	0
533.801	1	9
534.991	1	10
536.182	1	-4
537.373	1	10
538.563	1	6
539.754	1	8
540.944	1	3
542.134	1	7
543.325	1	4
544.515	1	-2
545.705	1	5
546.896	1	8
548.086	1	-2
549.276	1	-7
550.466	1	7
551.656	1	10
552.846	1	1
554.036	1	-4
555.226	1	1
556.416	1	4
557.606	1	4
558.796	1	5
559.986	1	2
561.175	1	3
562.365	1	6
563.555	1	0
564.744	1	5
565.934	1	11
567.123	1	4
568.313	1	11
569.502	1	8
570.692	1	10
571.881	1	12
573.070	1	10
574.260	1	6
575.449	1	6
576.638	1	-4
577.827	1	-2
579.016	1	8
580.205	1	-4
581.394	1	-2
582.583	1	13
583.772	1	11
584.961	1	8
586.150	1	4
587.339	1	3
588.528	1	3
589.717	1	-4
590.905	1	9
592.094	1	-1
593.283	1	-1
594.471	1	12
595.660	1	-7
596.848	1	2
598.037	1	-7
599.225	1	-1
600.413	1	11
601.602	1	14
602.790	1	-8
603.978	1	8
605.166	1	8
606.355	1	-2
607.543	1	2
608.731	1	2
609.919	1	16
611.107	1	4
612.295	1	-4
613.483	1	4
614.671	1	4
615.858	1	10
617.046	1	-2
618.234	1	1
619.422	1	-8
620.609	1	5
621.797	1	-1
622.985	1	0
624.172	1	5
625.360	1	6
626.547	1	3
627.735	1	3
628.922	1	3
630.109	1	-6
631.297	1	-3
632.484	1	1
633.671	1	1
634.858	1	6
636.045	1	10
637.232	1	-2
638.419	1	4
639.606	1	-1
640.793	1	7
641.980	1	14
643.167	1	0
644.354	1	1
645.541	1	1
646.728	1	4
647.914	1	-3
649.101	1	-4
650.288	1	5
651.474	1	2
652.661	1	-2
653.847	1	15
655.034	1	5
656.220	1	1
657.406	1	3
658.593	1	8
659.779	1	1
660.965	1	8
662.152	1	0
663.338	1	6
664.524	1	4
665.710	1	5
666.896	1	-3
668.082	1	2
669.268	1	-1
670.454	1	7
671.640	1	5
672.826	1	-2
674.011	1	-3
675.197	1	-7
676.383	1	1
677.569	1	-2
678.754	1	-1
679.940	1	-1
681.125	1	7
682.311	1	2
683.496	1	4
684.682	1	-8
685.867	1	3
687.053	1	6
688.238	1	1
688.746	1	2

File: GaN_sample F_spot 12_UVVIS_200 K_200um_800 ms 2x2mm1_212.txt
340.368	1	1
341.565	1	-14
342.763	1	-1
343.960	1	9
345.157	1	-5
346.354	1	-8
347.552	1	-2
348.749	1	-3
349.946	1	-6
351.143	1	7
352.340	1	9
353.537	1	-5
354.734	1	6
355.931	1	0
357.127	1	5
358.324	1	-3
359.521	1	14
360.718	1	5
361.914	1	9
363.111	1	7
364.308	1	11
365.504	1	27
366.701	1	28
367.897	1	27
369.093	1	32
370.290	1	30
371.486	1	37
372.682	1	42
373.879	1	9
375.075	1	9
376.271	1	19
377.467	1	10
378.663	1	0
379.859	1	14
381.055	1	16
382.251	1	0
383.447	1	-2
384.643	1	10
385.839	1	8
387.035	1	10
388.230	1	22
389.426	1	-2
390.622	1	0
391.817	1	6
393.013	1	0
394.208	1	4
395.404	1	0
396.599	1	-8
397.795	1	5
398.990	1	0
400.186	1	9
401.381	1	-1
402.576	1	8
403.771	1	1
404.967	1	-2
406.162	1	0
407.357	1	3
408.552	1	-6
409.747	1	1
410.942	1	14
412.137	1	1
413.332	1	8
414.526	1	-2
415.721	1	-1
416.916	1	-4
418.111	1	8
419.305	1	5
420.500	1	1
421.695	1	-3
422.889	1	-10
424.084	1	-8
425.278	1	6
426.472	1	-3
427.667	1	8
428.861	1	-4
430.055	1	1
431.250	1	5
432.444	1	5
433.638	1	-1
434.832	1	-2
436.026	1	1
437.220	1	4
438.414	1	-10
439.608	1	-22
440.802	1	-7
441.996	1	5
443.190	1	0
444.384	1	-12
445.578	1	-10
446.771	1	14
447.965	1	-2
449.159	1	-1
450.352	1	2
451.546	1	0
452.739	1	-2
453.933	1	-8
455.126	1	-13
456.320	1	-4
457.513	1	-5
458.706	1	1
459.899	1	-3
461.093	1	2
462.286	1	5
463.479	1	-7
464.672	1	-8
465.865	1	12
467.058	1	-4
468.251	1	0
469.444	1	-4
470.637	1	3
471.830	1	-1
473.023	1	1
474.215	1	10
475.408	1	-5
476.601	1	0
477.793	1	0
478.986	1	-5
480.179	1	8
481.371	1	2
482.564	1	-5
483.756	1	10
484.948	1	-8
486.141	1	-4
487.333	1	-1
488.525	1	2
489.718	1	-1
490.910	1	1
492.102	1	0
493.294	1	-1
494.486	1	7
495.678	1	0
496.870	1	0
498.062	1	7
499.254	1	-6
500.446	1	-14
501.638	1	-2
502.829	1	4
504.021	1	6
505.213	1	7
506.404	1	5
507.596	1	-2
508.788	1	25
509.979	1	6
511.171	1	-4
512.362	1	-2
513.553	1	-14
514.745	1	-7
515.936	1	4
517.127	1	0
518.319	1	-6
519.510	1	6
520.701	1	2
521.892	1	2
523.083	1	1
524.274	1	7
525.465	1	6
526.656	1	-2
527.847	1	7
529.038	1	3
530.229	1	9
531.419	1	5
532.610	1	-5
533.801	1	21
534.991	1	9
536.182	1	5
537.373	1	-1
538.563	1	4
539.754	1	10
540.944	1	-1
542.134	1	14
543.325	1	11
544.515	1	5
545.705	1	6
546.896	1	1
548.086	1	7
549.276	1	5
550.466	1	17
551.656	1	7
552.846	1	5
554.036	1	12
555.226	1	1
556.416	1	5
557.606	1	10
558.796	1	11
559.986	1	12
561.175	1	14
562.365	1	4
563.555	1	3
564.744	1	12
565.934	1	2
567.123	1	7
568.313	1	5
569.502	1	3
570.692	1	6
571.881	1	14
573.070	1	3
574.260	1	13
575.449	1	-1
576.638	1	-7
577.827	1	-3
579.016	1	9
580.205	1	12
581.394	1	1
582.583	1	16
583.772	1	6
584.961	1	9
586.150	1	7
587.339	1	5
588.528	1	7
589.717	1	5
590.905	1	-3
592.094	1	5
593.283	1	-1
594.471	1	12
595.660	1	6
596.848	1	8
598.037	1	0
599.225	1	-3
600.413	1	6
601.602	1	11
602.790	1	8
603.978	1	1
605.166	1	6
606.355	1	-1
607.543	1	7
608.731	1	1
609.919	1	14
611.107	1	6
612.295	1	-5
613.483	1	8
614.671	1	7
615.858	1	0
617.046	1	0
618.234	1	1
619.422	1	-6
620.609	1	8
621.797	1	-2
622.985	1	2
624.172	1	-3
625.360	1	0
626.547	1	5
627.735	1	17
628.922	1	6
630.109	1	-3
631.297	1	3
632.484	1	-3
633.671	1	-7
634.858	1	-5
636.045	1	7
637.232	1	-4
638.419	1	14
639.606	1	9
640.793	1	15
641.980	1	5
643.167	1	-5
644.354	1	4
645.541	1	9
646.728	1	6
647.914	1	-6
649.101	1	1
650.288	1	11
651.474	1	1
652.661	1	-3
653.847	1	4
655.034	1	1
656.220	1	3
657.406	1	13
658.593	1	15
659.779	1	3
660.965	1	11
662.152	1	9
663.338	1	8
664.524	1	3
665.710	1	-3
666.896	1	-3
668.082	1	6
669.268	1	5
670.454	1	2
671.640	1	3
672.826	1	-2
674.011	1	1
675.197	1	-5
676.383	1	13
677.569	1	4
678.754	1	6
679.940	1	2
681.125	1	8
682.311	1	9
683.496	1	4
684.682	1	-8
685.867	1	0
687.053	1	5
688.238	1	2
688.746	1	1

File: GaN_sample F_spot 12_UVVIS_200 K_200um_800 ms 2x2mm1_218.txt
340.368	1	7
341.565	1	-9
342.763	1	5
343.960	1	3
345.157	1	-7
346.354	1	-3
347.552	1	-13
348.749	1	-3
349.946	1	-2
351.143	1	1
352.340	1	0
353.537	1	7
354.734	1	15
355.931	1	1
357.127	1	8
358.324	1	-1
359.521	1	13
360.718	1	9
361.914	1	6
363.111	1	12
364.308	1	14
365.504	1	26
366.701	1	24
367.897	1	21
369.093	1	15
370.290	1	18
371.486	1	30
372.682	1	29
373.879	1	19
375.075	1	12
376.271	1	21
377.467	1	1
378.663	1	-1
379.859	1	8
381.055	1	13
382.251	1	3
383.447	1	1
384.643	1	13
385.839	1	-2
387.035	1	7
388.230	1	20
389.426	1	4
390.622	1	-5
391.817	1	-2
393.013	1	2
394.208	1	2
395.404	1	2
396.599	1	-7
397.795	1	9
398.990	1	-2
400.186	1	-1
401.381	1	-6
402.576	1	2
403.771	1	4
404.967	1	6
406.162	1	4
407.357	1	-2
408.552	1	-4
409.747	1	0
410.942	1	16
412.137	1	4
413.332	1	5
414.526	1	-5
415.721	1	-2
416.916	1	-7
418.111	1	1
419.305	1	4
420.500	1	-1
421.695	1	-6
422.889	1	-2
424.084	1	0
425.278	1	7
426.472	1	2
427.667	1	-1
428.861	1	3
430.055	1	3
431.250	1	1
432.444	1	8
433.638	1	3
434.832	1	-2
436.026	1	-1
437.220	1	10
438.414	1	-7
439.608	1	-9
440.802	1	-1
441.996	1	5
443.190	1	-12
444.384	1	-3
445.578	1	-17
446.771	1	8
447.965	1	7
449.159	1	-6
450.352	1	0
451.546	1	7
452.739	1	-7
453.933	1	-9
455.126	1	-14
456.320	1	-2
457.513	1	6
458.706	1	-4
459.899	1	2
461.093	1	4
462.286	1	7
463.479	1	-6
464.672	1	0
465.865	1	0
467.058	1	1
468.251	1	4
469.444	1	-12
470.637	1	-4
471.830	1	9
473.023	1	1
474.215	1	10
475.408	1	-1
476.601	1	7
477.793	1	-3
478.986	1	-4
480.179	1	-4
481.371	1	-5
482.564	1	-10
483.756	1	11
484.948	1	-6
486.141	1	-5
487.333	1	-5
488.525	1	-2
489.718	1	2
490.910	1	11
492.102	1	-9
493.294	1	1
494.486	1	3
495.678	1	-4
496.870	1	9
498.062	1	3
499.254	1	1
500.446	1	-8
501.638	1	0
502.829	1	-9
504.021	1	2
505.213	1	3
506.404	1	6
507.596	1	6
508.788	1	3
509.979	1	-7
511.171	1	-5
512.362	1	-4
513.553	1	-7
514.745	1	-6
515.936	1	0
517.127	1	3
518.319	1	-6
519.510	1	5
520.701	1	6
521.892	1	7
523.083	1	4
524.274	1	7
525.465	1	12
526.656	1	1
527.847	1	4
529.038	1	5
530.229	1	6
531.419	1	10
532.610	1	-4
533.801	1	15
534.991	1	-2
536.182	1	-7
537.373	1	8
538.563	1	7
539.754	1	11
540.944	1	-7
542.134	1	7
543.325	1	10
544.515	1	1
545.705	1	5
546.896	1	9
548.086	1	2
549.276	1	1
550.466	1	3
551.656	1	9
552.846	1	10
554.036	1	5
555.226	1	-5
556.416	1	7
557.606	1	0
558.796	1	2
559.986	1	0
561.175	1	2
562.365	1	7
563.555	1	8
564.744	1	3
565.934	1	4
567.123	1	6
568.313	1	7
569.502	1	2
570.692	1	7
571.881	1	17
573.070	1	5
574.260	1	10
575.449	1	3
576.638	1	-6
577.827	1	7
579.016	1	9
580.205	1	0
581.394	1	4
582.583	1	19
583.772	1	13
584.961	1	9
586.150	1	4
587.339	1	8
588.528	1	8
589.717	1	0
590.905	1	-3
592.094	1	1
593.283	1	-1
594.471	1	13
595.660	1	-1
596.848	1	4
598.037	1	-2
599.225	1	-12
600.413	1	13
601.602	1	14
602.790	1	7
603.978	1	9
605.166	1	4
606.355	1	10
607.543	1	1
608.731	1	-6
609.919	1	11
611.107	1	-3
612.295	1	-1
613.483	1	10
614.671	1	9
615.858	1	1
617.046	1	3
618.234	1	5
619.422	1	-3
620.609	1	3
621.797	1	1
622.985	1	-3
624.172	1	7
625.360	1	6
626.547	1	-2
627.735	1	9
628.922	1	1
630.109	1	-17
631.297	1	0
632.484	1	3
633.671	1	-2
634.858	1	2
636.045	1	4
637.232	1	-4
638.419	1	4
639.606	1	3
640.793	1	5
641.980	1	10
643.167	1	0
644.354	1	-5
645.541	1	0
646.728	1	-5
647.914	1	-10
649.101	1	-13
650.288	1	6
651.474	1	0
652.661	1	-3
653.847	1	3
655.034	1	5
656.220	1	-4
657.406	1	4
658.593	1	11
659.779	1	7
660.965	1	5
662.152	1	7
663.338	1	12
664.524	1	6
665.710	1	11
666.896	1	-5
668.082	1	4
669.268	1	2
670.454	1	0
671.640	1	3
672.826	1	-4
674.011	1	-4
675.197	1	4
676.383	1	6
677.569	1	-3
678.754	1	-5
679.940	1	0
681.125	1	4
682.311	1	2
683.496	1	6
684.682	1	-7
685.867	1	8
687.053	1	1
688.238	1	7
688.746	1	5