Folder: cryo-il_analysis/Data/GaN_150K_450ms (part 32)

File: GaN_sample D_spot15_UVVIS_150 K_200um_450 ms 2x2mm1_322.txt
340.368	1	0
341.565	1	2
342.763	1	0
343.960	1	9
345.157	1	10
346.354	1	-10
347.552	1	6
348.749	1	12
349.946	1	-6
351.143	1	3
352.340	1	-3
353.537	1	-7
354.734	1	10
355.931	1	9
357.127	1	5
358.324	1	4
359.521	1	7
360.718	1	2
361.914	1	3
363.111	1	0
364.308	1	14
365.504	1	3
366.701	1	3
367.897	1	18
369.093	1	10
370.290	1	18
371.486	1	19
372.682	1	1
373.879	1	6
375.075	1	6
376.271	1	9
377.467	1	12
378.663	1	6
379.859	1	3
381.055	1	7
382.251	1	3
383.447	1	-2
384.643	1	0
385.839	1	0
387.035	1	2
388.230	1	-1
389.426	1	1
390.622	1	-2
391.817	1	-10
393.013	1	4
394.208	1	-1
395.404	1	7
396.599	1	2
397.795	1	-6
398.990	1	2
400.186	1	7
401.381	1	8
402.576	1	-1
403.771	1	-9
404.967	1	1
406.162	1	-7
407.357	1	2
408.552	1	8
409.747	1	-3
410.942	1	4
412.137	1	-2
413.332	1	3
414.526	1	-9
415.721	1	9
416.916	1	-1
418.111	1	7
419.305	1	-1
420.500	1	-4
421.695	1	6
422.889	1	1
424.084	1	9
425.278	1	4
426.472	1	11
427.667	1	4
428.861	1	5
430.055	1	5
431.250	1	3
432.444	1	7
433.638	1	6
434.832	1	-4
436.026	1	0
437.220	1	2
438.414	1	21
439.608	1	-2
440.802	1	7
441.996	1	5
443.190	1	8
444.384	1	-2
445.578	1	-11
446.771	1	2
447.965	1	7
449.159	1	-5
450.352	1	-7
451.546	1	3
452.739	1	1
453.933	1	-10
455.126	1	1
456.320	1	10
457.513	1	9
458.706	1	-2
459.899	1	-9
461.093	1	4
462.286	1	-3
463.479	1	-8
464.672	1	4
465.865	1	5
467.058	1	3
468.251	1	-12
469.444	1	0
470.637	1	2
471.830	1	3
473.023	1	-3
474.215	1	0
475.408	1	-3
476.601	1	9
477.793	1	-2
478.986	1	7
480.179	1	-1
481.371	1	-3
482.564	1	-2
483.756	1	-1
484.948	1	6
486.141	1	2
487.333	1	-6
488.525	1	-7
489.718	1	-2
490.910	1	9
492.102	1	5
493.294	1	-5
494.486	1	4
495.678	1	-6
496.870	1	6
498.062	1	1
499.254	1	-5
500.446	1	1
501.638	1	10
502.829	1	-1
504.021	1	8
505.213	1	-2
506.404	1	13
507.596	1	5
508.788	1	2
509.979	1	-7
511.171	1	9
512.362	1	3
513.553	1	-5
514.745	1	-2
515.936	1	5
517.127	1	4
518.319	1	-1
519.510	1	-10
520.701	1	7
521.892	1	5
523.083	1	-8
524.274	1	12
525.465	1	12
526.656	1	-2
527.847	1	-14
529.038	1	-3
530.229	1	5
531.419	1	-6
532.610	1	5
533.801	1	1
534.991	1	-4
536.182	1	-6
537.373	1	3
538.563	1	3
539.754	1	-2
540.944	1	8
542.134	1	5
543.325	1	11
544.515	1	6
545.705	1	2
546.896	1	4
548.086	1	2
549.276	1	6
550.466	1	-4
551.656	1	2
552.846	1	7
554.036	1	1
555.226	1	5
556.416	1	3
557.606	1	-8
558.796	1	3
559.986	1	2
561.175	1	1
562.365	1	-2
563.555	1	9
564.744	1	3
565.934	1	6
567.123	1	2
568.313	1	2
569.502	1	-4
570.692	1	12
571.881	1	-6
573.070	1	-3
574.260	1	10
575.449	1	-10
576.638	1	9
577.827	1	-3
579.016	1	2
580.205	1	5
581.394	1	8
582.583	1	2
583.772	1	6
584.961	1	-9
586.150	1	-1
587.339	1	-6
588.528	1	-4
589.717	1	2
590.905	1	10
592.094	1	5
593.283	1	0
594.471	1	-8
595.660	1	0
596.848	1	5
598.037	1	-9
599.225	1	2
600.413	1	0
601.602	1	3
602.790	1	-3
603.978	1	5
605.166	1	-5
606.355	1	-8
607.543	1	8
608.731	1	-9
609.919	1	-5
611.107	1	11
612.295	1	11
613.483	1	2
614.671	1	1
615.858	1	-1
617.046	1	-4
618.234	1	0
619.422	1	16
620.609	1	2
621.797	1	1
622.985	1	2
624.172	1	5
625.360	1	2
626.547	1	-4
627.735	1	-4
628.922	1	4
630.109	1	0
631.297	1	2
632.484	1	8
633.671	1	8
634.858	1	-1
636.045	1	-7
637.232	1	0
638.419	1	-2
639.606	1	9
640.793	1	0
641.980	1	2
643.167	1	2
644.354	1	8
645.541	1	4
646.728	1	0
647.914	1	9
649.101	1	-2
650.288	1	3
651.474	1	9
652.661	1	1
653.847	1	0
655.034	1	3
656.220	1	6
657.406	1	9
658.593	1	8
659.779	1	9
660.965	1	0
662.152	1	3
663.338	1	-11
664.524	1	8
665.710	1	1
666.896	1	-2
668.082	1	-3
669.268	1	-10
670.454	1	9
671.640	1	2
672.826	1	3
674.011	1	6
675.197	1	2
676.383	1	2
677.569	1	12
678.754	1	1
679.940	1	4
681.125	1	-3
682.311	1	-2
683.496	1	3
684.682	1	2
685.867	1	-1
687.053	1	21
688.238	1	16
688.746	1	0

File: GaN_sample D_spot15_UVVIS_150 K_200um_450 ms 2x2mm1_326.txt
340.368	1	10
341.565	1	12
342.763	1	10
343.960	1	5
345.157	1	19
346.354	1	-1
347.552	1	12
348.749	1	8
349.946	1	-8
351.143	1	11
352.340	1	12
353.537	1	-6
354.734	1	-1
355.931	1	7
357.127	1	17
358.324	1	-2
359.521	1	2
360.718	1	5
361.914	1	1
363.111	1	0
364.308	1	10
365.504	1	2
366.701	1	7
367.897	1	9
369.093	1	12
370.290	1	21
371.486	1	6
372.682	1	17
373.879	1	0
375.075	1	0
376.271	1	11
377.467	1	8
378.663	1	11
379.859	1	2
381.055	1	-2
382.251	1	-1
383.447	1	3
384.643	1	3
385.839	1	3
387.035	1	7
388.230	1	1
389.426	1	-14
390.622	1	-6
391.817	1	0
393.013	1	-3
394.208	1	-3
395.404	1	1
396.599	1	-2
397.795	1	-3
398.990	1	8
400.186	1	2
401.381	1	0
402.576	1	6
403.771	1	-14
404.967	1	7
406.162	1	0
407.357	1	1
408.552	1	-8
409.747	1	0
410.942	1	9
412.137	1	2
413.332	1	-3
414.526	1	-3
415.721	1	5
416.916	1	-4
418.111	1	-3
419.305	1	3
420.500	1	-1
421.695	1	8
422.889	1	5
424.084	1	-1
425.278	1	2
426.472	1	15
427.667	1	-6
428.861	1	12
430.055	1	5
431.250	1	9
432.444	1	5
433.638	1	8
434.832	1	-5
436.026	1	-2
437.220	1	1
438.414	1	1
439.608	1	-3
440.802	1	3
441.996	1	-8
443.190	1	4
444.384	1	9
445.578	1	-12
446.771	1	6
447.965	1	8
449.159	1	-10
450.352	1	4
451.546	1	10
452.739	1	4
453.933	1	0
455.126	1	-2
456.320	1	1
457.513	1	2
458.706	1	10
459.899	1	3
461.093	1	9
462.286	1	-4
463.479	1	-3
464.672	1	-2
465.865	1	1
467.058	1	-3
468.251	1	-3
469.444	1	1
470.637	1	4
471.830	1	-2
473.023	1	7
474.215	1	1
475.408	1	-4
476.601	1	-1
477.793	1	-4
478.986	1	3
480.179	1	2
481.371	1	-4
482.564	1	9
483.756	1	7
484.948	1	7
486.141	1	7
487.333	1	-5
488.525	1	-7
489.718	1	-11
490.910	1	5
492.102	1	1
493.294	1	-2
494.486	1	0
495.678	1	-2
496.870	1	0
498.062	1	-8
499.254	1	4
500.446	1	-7
501.638	1	-8
502.829	1	-2
504.021	1	6
505.213	1	-2
506.404	1	4
507.596	1	5
508.788	1	7
509.979	1	-2
511.171	1	10
512.362	1	11
513.553	1	2
514.745	1	8
515.936	1	-7
517.127	1	15
518.319	1	-2
519.510	1	-10
520.701	1	0
521.892	1	9
523.083	1	1
524.274	1	8
525.465	1	8
526.656	1	4
527.847	1	-3
529.038	1	-2
530.229	1	9
531.419	1	8
532.610	1	5
533.801	1	4
534.991	1	-2
536.182	1	1
537.373	1	-6
538.563	1	-6
539.754	1	-4
540.944	1	0
542.134	1	0
543.325	1	7
544.515	1	5
545.705	1	1
546.896	1	10
548.086	1	3
549.276	1	6
550.466	1	1
551.656	1	-2
552.846	1	3
554.036	1	3
555.226	1	0
556.416	1	4
557.606	1	-6
558.796	1	-7
559.986	1	-1
561.175	1	-5
562.365	1	-2
563.555	1	5
564.744	1	6
565.934	1	13
567.123	1	-4
568.313	1	6
569.502	1	5
570.692	1	8
571.881	1	1
573.070	1	5
574.260	1	2
575.449	1	-8
576.638	1	9
577.827	1	-3
579.016	1	-1
580.205	1	2
581.394	1	6
582.583	1	6
583.772	1	4
584.961	1	3
586.150	1	8
587.339	1	3
588.528	1	-4
589.717	1	2
590.905	1	1
592.094	1	5
593.283	1	12
594.471	1	-5
595.660	1	8
596.848	1	5
598.037	1	7
599.225	1	3
600.413	1	0
601.602	1	8
602.790	1	0
603.978	1	12
605.166	1	9
606.355	1	-10
607.543	1	5
608.731	1	-9
609.919	1	-8
611.107	1	7
612.295	1	0
613.483	1	1
614.671	1	-2
615.858	1	-7
617.046	1	1
618.234	1	-4
619.422	1	14
620.609	1	-4
621.797	1	0
622.985	1	-4
624.172	1	-6
625.360	1	-2
626.547	1	-4
627.735	1	2
628.922	1	3
630.109	1	-1
631.297	1	1
632.484	1	18
633.671	1	9
634.858	1	-1
636.045	1	-3
637.232	1	5
638.419	1	-8
639.606	1	5
640.793	1	6
641.980	1	6
643.167	1	1
644.354	1	11
645.541	1	-2
646.728	1	0
647.914	1	-1
649.101	1	11
650.288	1	1
651.474	1	3
652.661	1	3
653.847	1	2
655.034	1	-7
656.220	1	7
657.406	1	-2
658.593	1	2
659.779	1	12
660.965	1	9
662.152	1	4
663.338	1	4
664.524	1	6
665.710	1	-5
666.896	1	8
668.082	1	5
669.268	1	-8
670.454	1	6
671.640	1	11
672.826	1	0
674.011	1	8
675.197	1	4
676.383	1	1
677.569	1	9
678.754	1	-1
679.940	1	-8
681.125	1	-1
682.311	1	10
683.496	1	-3
684.682	1	10
685.867	1	5
687.053	1	21
688.238	1	7
688.746	1	-4

File: GaN_sample D_spot15_UVVIS_150 K_200um_450 ms 2x2mm1_329.txt
340.368	1	4
341.565	1	0
342.763	1	5
343.960	1	-2
345.157	1	8
346.354	1	10
347.552	1	9
348.749	1	4
349.946	1	-13
351.143	1	10
352.340	1	1
353.537	1	-4
354.734	1	8
355.931	1	1
357.127	1	10
358.324	1	3
359.521	1	10
360.718	1	3
361.914	1	6
363.111	1	-2
364.308	1	10
365.504	1	1
366.701	1	13
367.897	1	4
369.093	1	12
370.290	1	13
371.486	1	17
372.682	1	3
373.879	1	7
375.075	1	-3
376.271	1	7
377.467	1	10
378.663	1	6
379.859	1	3
381.055	1	1
382.251	1	-8
383.447	1	-6
384.643	1	2
385.839	1	3
387.035	1	6
388.230	1	5
389.426	1	1
390.622	1	2
391.817	1	-1
393.013	1	13
394.208	1	-4
395.404	1	-1
396.599	1	-4
397.795	1	5
398.990	1	5
400.186	1	0
401.381	1	1
402.576	1	0
403.771	1	-2
404.967	1	-4
406.162	1	-7
407.357	1	7
408.552	1	-1
409.747	1	6
410.942	1	10
412.137	1	2
413.332	1	1
414.526	1	-7
415.721	1	8
416.916	1	-8
418.111	1	8
419.305	1	11
420.500	1	5
421.695	1	7
422.889	1	12
424.084	1	6
425.278	1	-10
426.472	1	7
427.667	1	-1
428.861	1	6
430.055	1	6
431.250	1	6
432.444	1	3
433.638	1	8
434.832	1	-2
436.026	1	-7
437.220	1	6
438.414	1	4
439.608	1	-6
440.802	1	6
441.996	1	-5
443.190	1	3
444.384	1	3
445.578	1	-1
446.771	1	-1
447.965	1	7
449.159	1	-9
450.352	1	-3
451.546	1	-5
452.739	1	8
453.933	1	-3
455.126	1	3
456.320	1	8
457.513	1	-6
458.706	1	13
459.899	1	4
461.093	1	0
462.286	1	2
463.479	1	4
464.672	1	-4
465.865	1	1
467.058	1	9
468.251	1	-4
469.444	1	14
470.637	1	0
471.830	1	-8
473.023	1	10
474.215	1	2
475.408	1	0
476.601	1	5
477.793	1	-8
478.986	1	10
480.179	1	11
481.371	1	-5
482.564	1	3
483.756	1	11
484.948	1	7
486.141	1	-1
487.333	1	-4
488.525	1	1
489.718	1	-15
490.910	1	-1
492.102	1	6
493.294	1	-13
494.486	1	-3
495.678	1	3
496.870	1	1
498.062	1	-4
499.254	1	-2
500.446	1	-1
501.638	1	3
502.829	1	4
504.021	1	-7
505.213	1	-10
506.404	1	1
507.596	1	8
508.788	1	0
509.979	1	-7
511.171	1	2
512.362	1	5
513.553	1	8
514.745	1	6
515.936	1	-2
517.127	1	12
518.319	1	-1
519.510	1	-10
520.701	1	6
521.892	1	-2
523.083	1	1
524.274	1	5
525.465	1	4
526.656	1	9
527.847	1	-8
529.038	1	6
530.229	1	9
531.419	1	8
532.610	1	6
533.801	1	6
534.991	1	2
536.182	1	-5
537.373	1	-3
538.563	1	7
539.754	1	2
540.944	1	10
542.134	1	9
543.325	1	6
544.515	1	0
545.705	1	3
546.896	1	10
548.086	1	6
549.276	1	12
550.466	1	-7
551.656	1	-3
552.846	1	3
554.036	1	13
555.226	1	-1
556.416	1	4
557.606	1	-9
558.796	1	8
559.986	1	4
561.175	1	0
562.365	1	-4
563.555	1	5
564.744	1	4
565.934	1	9
567.123	1	4
568.313	1	-2
569.502	1	3
570.692	1	3
571.881	1	-6
573.070	1	4
574.260	1	5
575.449	1	-1
576.638	1	6
577.827	1	-7
579.016	1	0
580.205	1	0
581.394	1	-2
582.583	1	10
583.772	1	11
584.961	1	1
586.150	1	5
587.339	1	5
588.528	1	-3
589.717	1	0
590.905	1	-4
592.094	1	8
593.283	1	2
594.471	1	-5
595.660	1	2
596.848	1	1
598.037	1	-4
599.225	1	-1
600.413	1	4
601.602	1	0
602.790	1	9
603.978	1	1
605.166	1	1
606.355	1	-18
607.543	1	-1
608.731	1	-7
609.919	1	-12
611.107	1	6
612.295	1	-3
613.483	1	-3
614.671	1	0
615.858	1	-3
617.046	1	2
618.234	1	-3
619.422	1	18
620.609	1	-2
621.797	1	7
622.985	1	-4
624.172	1	2
625.360	1	-4
626.547	1	-4
627.735	1	2
628.922	1	6
630.109	1	-12
631.297	1	0
632.484	1	11
633.671	1	9
634.858	1	6
636.045	1	-6
637.232	1	-6
638.419	1	-1
639.606	1	4
640.793	1	-5
641.980	1	16
643.167	1	0
644.354	1	3
645.541	1	0
646.728	1	6
647.914	1	0
649.101	1	2
650.288	1	4
651.474	1	6
652.661	1	6
653.847	1	12
655.034	1	5
656.220	1	6
657.406	1	-10
658.593	1	4
659.779	1	0
660.965	1	-4
662.152	1	1
663.338	1	-3
664.524	1	10
665.710	1	1
666.896	1	6
668.082	1	2
669.268	1	4
670.454	1	8
671.640	1	2
672.826	1	4
674.011	1	6
675.197	1	3
676.383	1	2
677.569	1	7
678.754	1	2
679.940	1	-2
681.125	1	-5
682.311	1	7
683.496	1	2
684.682	1	2
685.867	1	-6
687.053	1	23
688.238	1	12
688.746	1	-4

File: GaN_sample D_spot15_UVVIS_150 K_200um_450 ms 2x2mm1_330.txt
340.368	1	0
341.565	1	3
342.763	1	-7
343.960	1	6
345.157	1	19
346.354	1	9
347.552	1	14
348.749	1	-1
349.946	1	3
351.143	1	11
352.340	1	4
353.537	1	-3
354.734	1	0
355.931	1	10
357.127	1	7
358.324	1	2
359.521	1	7
360.718	1	-6
361.914	1	14
363.111	1	2
364.308	1	13
365.504	1	7
366.701	1	-2
367.897	1	10
369.093	1	12
370.290	1	17
371.486	1	15
372.682	1	13
373.879	1	8
375.075	1	-3
376.271	1	1
377.467	1	19
378.663	1	5
379.859	1	0
381.055	1	-2
382.251	1	0
383.447	1	12
384.643	1	-6
385.839	1	4
387.035	1	1
388.230	1	1
389.426	1	7
390.622	1	-1
391.817	1	-11
393.013	1	-2
394.208	1	7
395.404	1	4
396.599	1	-8
397.795	1	-8
398.990	1	9
400.186	1	-5
401.381	1	3
402.576	1	9
403.771	1	-4
404.967	1	11
406.162	1	-2
407.357	1	0
408.552	1	0
409.747	1	-3
410.942	1	3
412.137	1	4
413.332	1	1
414.526	1	-9
415.721	1	15
416.916	1	5
418.111	1	6
419.305	1	4
420.500	1	1
421.695	1	0
422.889	1	2
424.084	1	8
425.278	1	-1
426.472	1	3
427.667	1	-6
428.861	1	4
430.055	1	7
431.250	1	-1
432.444	1	5
433.638	1	14
434.832	1	-1
436.026	1	-10
437.220	1	5
438.414	1	12
439.608	1	-5
440.802	1	4
441.996	1	-2
443.190	1	13
444.384	1	4
445.578	1	2
446.771	1	4
447.965	1	2
449.159	1	0
450.352	1	-7
451.546	1	-1
452.739	1	1
453.933	1	-2
455.126	1	-1
456.320	1	9
457.513	1	2
458.706	1	7
459.899	1	-8
461.093	1	4
462.286	1	-6
463.479	1	-2
464.672	1	2
465.865	1	-1
467.058	1	-1
468.251	1	-3
469.444	1	4
470.637	1	6
471.830	1	4
473.023	1	6
474.215	1	3
475.408	1	4
476.601	1	2
477.793	1	4
478.986	1	9
480.179	1	5
481.371	1	-14
482.564	1	10
483.756	1	6
484.948	1	5
486.141	1	3
487.333	1	0
488.525	1	-7
489.718	1	-7
490.910	1	4
492.102	1	-1
493.294	1	-7
494.486	1	3
495.678	1	1
496.870	1	4
498.062	1	2
499.254	1	6
500.446	1	-7
501.638	1	0
502.829	1	0
504.021	1	0
505.213	1	0
506.404	1	1
507.596	1	7
508.788	1	-1
509.979	1	6
511.171	1	3
512.362	1	9
513.553	1	2
514.745	1	0
515.936	1	-1
517.127	1	0
518.319	1	2
519.510	1	1
520.701	1	6
521.892	1	6
523.083	1	-5
524.274	1	4
525.465	1	11
526.656	1	12
527.847	1	-7
529.038	1	-3
530.229	1	11
531.419	1	2
532.610	1	8
533.801	1	4
534.991	1	-1
536.182	1	-6
537.373	1	1
538.563	1	-2
539.754	1	4
540.944	1	3
542.134	1	7
543.325	1	9
544.515	1	-5
545.705	1	-1
546.896	1	-2
548.086	1	-2
549.276	1	7
550.466	1	-4
551.656	1	3
552.846	1	4
554.036	1	11
555.226	1	9
556.416	1	10
557.606	1	-15
558.796	1	5
559.986	1	-4
561.175	1	1
562.365	1	-4
563.555	1	2
564.744	1	8
565.934	1	10
567.123	1	-6
568.313	1	-5
569.502	1	9
570.692	1	-3
571.881	1	-5
573.070	1	6
574.260	1	7
575.449	1	0
576.638	1	7
577.827	1	0
579.016	1	0
580.205	1	6
581.394	1	0
582.583	1	2
583.772	1	4
584.961	1	-12
586.150	1	9
587.339	1	-6
588.528	1	-8
589.717	1	2
590.905	1	-5
592.094	1	8
593.283	1	4
594.471	1	0
595.660	1	12
596.848	1	-9
598.037	1	5
599.225	1	10
600.413	1	0
601.602	1	8
602.790	1	4
603.978	1	4
605.166	1	4
606.355	1	-11
607.543	1	7
608.731	1	-8
609.919	1	-6
611.107	1	10
612.295	1	9
613.483	1	12
614.671	1	1
615.858	1	-6
617.046	1	2
618.234	1	2
619.422	1	17
620.609	1	-2
621.797	1	5
622.985	1	-5
624.172	1	7
625.360	1	-1
626.547	1	1
627.735	1	3
628.922	1	6
630.109	1	-7
631.297	1	3
632.484	1	3
633.671	1	3
634.858	1	-1
636.045	1	-4
637.232	1	2
638.419	1	-3
639.606	1	8
640.793	1	-1
641.980	1	6
643.167	1	2
644.354	1	3
645.541	1	1
646.728	1	3
647.914	1	-3
649.101	1	-11
650.288	1	-2
651.474	1	0
652.661	1	8
653.847	1	3
655.034	1	-5
656.220	1	0
657.406	1	-2
658.593	1	-4
659.779	1	6
660.965	1	2
662.152	1	9
663.338	1	-8
664.524	1	4
665.710	1	0
666.896	1	12
668.082	1	-1
669.268	1	-4
670.454	1	6
671.640	1	4
672.826	1	7
674.011	1	7
675.197	1	11
676.383	1	0
677.569	1	8
678.754	1	-2
679.940	1	-4
681.125	1	-6
682.311	1	-2
683.496	1	3
684.682	1	14
685.867	1	-2
687.053	1	8
688.238	1	15
688.746	1	-2

File: GaN_sample D_spot15_UVVIS_150 K_200um_450 ms 2x2mm1_331.txt
340.368	1	4
341.565	1	7
342.763	1	7
343.960	1	10
345.157	1	7
346.354	1	-1
347.552	1	20
348.749	1	14
349.946	1	-7
351.143	1	8
352.340	1	6
353.537	1	2
354.734	1	0
355.931	1	11
357.127	1	6
358.324	1	-5
359.521	1	8
360.718	1	10
361.914	1	-2
363.111	1	-6
364.308	1	10
365.504	1	-2
366.701	1	2
367.897	1	3
369.093	1	10
370.290	1	11
371.486	1	13
372.682	1	9
373.879	1	3
375.075	1	-11
376.271	1	6
377.467	1	14
378.663	1	6
379.859	1	-6
381.055	1	6
382.251	1	-10
383.447	1	-5
384.643	1	1
385.839	1	2
387.035	1	7
388.230	1	-1
389.426	1	-3
390.622	1	-2
391.817	1	-3
393.013	1	6
394.208	1	-1
395.404	1	16
396.599	1	-2
397.795	1	0
398.990	1	4
400.186	1	7
401.381	1	-5
402.576	1	1
403.771	1	-14
404.967	1	2
406.162	1	-2
407.357	1	4
408.552	1	-6
409.747	1	-10
410.942	1	4
412.137	1	6
413.332	1	8
414.526	1	0
415.721	1	3
416.916	1	-4
418.111	1	9
419.305	1	0
420.500	1	6
421.695	1	10
422.889	1	7
424.084	1	6
425.278	1	5
426.472	1	9
427.667	1	-1
428.861	1	7
430.055	1	7
431.250	1	7
432.444	1	5
433.638	1	1
434.832	1	3
436.026	1	-6
437.220	1	11
438.414	1	5
439.608	1	-4
440.802	1	1
441.996	1	1
443.190	1	3
444.384	1	12
445.578	1	-13
446.771	1	-11
447.965	1	1
449.159	1	-10
450.352	1	-1
451.546	1	-2
452.739	1	2
453.933	1	-5
455.126	1	0
456.320	1	2
457.513	1	0
458.706	1	8
459.899	1	6
461.093	1	8
462.286	1	-1
463.479	1	-6
464.672	1	7
465.865	1	10
467.058	1	6
468.251	1	-5
469.444	1	1
470.637	1	2
471.830	1	5
473.023	1	4
474.215	1	8
475.408	1	0
476.601	1	5
477.793	1	0
478.986	1	4
480.179	1	4
481.371	1	-14
482.564	1	11
483.756	1	6
484.948	1	0
486.141	1	7
487.333	1	-9
488.525	1	-7
489.718	1	-8
490.910	1	3
492.102	1	-1
493.294	1	-7
494.486	1	-1
495.678	1	4
496.870	1	3
498.062	1	1
499.254	1	-12
500.446	1	-4
501.638	1	-1
502.829	1	-9
504.021	1	-1
505.213	1	-2
506.404	1	6
507.596	1	9
508.788	1	2
509.979	1	-3
511.171	1	11
512.362	1	6
513.553	1	5
514.745	1	0
515.936	1	-2
517.127	1	15
518.319	1	6
519.510	1	-1
520.701	1	14
521.892	1	-7
523.083	1	2
524.274	1	-8
525.465	1	3
526.656	1	0
527.847	1	-7
529.038	1	2
530.229	1	0
531.419	1	4
532.610	1	-1
533.801	1	4
534.991	1	-6
536.182	1	-3
537.373	1	2
538.563	1	0
539.754	1	4
540.944	1	5
542.134	1	3
543.325	1	15
544.515	1	9
545.705	1	3
546.896	1	5
548.086	1	3
549.276	1	2
550.466	1	1
551.656	1	-1
552.846	1	-1
554.036	1	12
555.226	1	2
556.416	1	-4
557.606	1	-10
558.796	1	11
559.986	1	9
561.175	1	5
562.365	1	6
563.555	1	5
564.744	1	6
565.934	1	17
567.123	1	-5
568.313	1	-1
569.502	1	-1
570.692	1	2
571.881	1	-2
573.070	1	-1
574.260	1	5
575.449	1	-9
576.638	1	3
577.827	1	-1
579.016	1	7
580.205	1	3
581.394	1	4
582.583	1	5
583.772	1	0
584.961	1	-8
586.150	1	2
587.339	1	4
588.528	1	12
589.717	1	1
590.905	1	6
592.094	1	10
593.283	1	2
594.471	1	-7
595.660	1	8
596.848	1	1
598.037	1	-7
599.225	1	-1
600.413	1	4
601.602	1	9
602.790	1	1
603.978	1	1
605.166	1	-9
606.355	1	-5
607.543	1	0
608.731	1	-12
609.919	1	-8
611.107	1	10
612.295	1	0
613.483	1	2
614.671	1	-3
615.858	1	-10
617.046	1	-2
618.234	1	-11
619.422	1	9
620.609	1	-13
621.797	1	4
622.985	1	3
624.172	1	6
625.360	1	0
626.547	1	-1
627.735	1	1
628.922	1	6
630.109	1	-2
631.297	1	3
632.484	1	12
633.671	1	-1
634.858	1	3
636.045	1	0
637.232	1	7
638.419	1	10
639.606	1	1
640.793	1	4
641.980	1	14
643.167	1	0
644.354	1	8
645.541	1	5
646.728	1	-3
647.914	1	16
649.101	1	1
650.288	1	7
651.474	1	0
652.661	1	4
653.847	1	8
655.034	1	-7
656.220	1	3
657.406	1	-6
658.593	1	7
659.779	1	6
660.965	1	1
662.152	1	4
663.338	1	-5
664.524	1	7
665.710	1	2
666.896	1	4
668.082	1	0
669.268	1	6
670.454	1	4
671.640	1	-2
672.826	1	6
674.011	1	7
675.197	1	13
676.383	1	2
677.569	1	13
678.754	1	9
679.940	1	-11
681.125	1	-1
682.311	1	11
683.496	1	-7
684.682	1	9
685.867	1	1
687.053	1	16
688.238	1	8
688.746	1	4

File: GaN_sample D_spot15_UVVIS_150 K_200um_450 ms 2x2mm1_332.txt
340.368	1	6
341.565	1	3
342.763	1	0
343.960	1	3
345.157	1	15
346.354	1	4
347.552	1	9
348.749	1	7
349.946	1	-1
351.143	1	0
352.340	1	11
353.537	1	-9
354.734	1	5
355.931	1	6
357.127	1	8
358.324	1	4
359.521	1	15
360.718	1	-3
361.914	1	10
363.111	1	-5
364.308	1	17
365.504	1	5
366.701	1	2
367.897	1	12
369.093	1	13
370.290	1	14
371.486	1	11
372.682	1	-1
373.879	1	1
375.075	1	-1
376.271	1	-2
377.467	1	9
378.663	1	7
379.859	1	2
381.055	1	1
382.251	1	1
383.447	1	-2
384.643	1	-5
385.839	1	-5
387.035	1	7
388.230	1	1
389.426	1	0
390.622	1	-5
391.817	1	-5
393.013	1	3
394.208	1	-2
395.404	1	4
396.599	1	5
397.795	1	3
398.990	1	14
400.186	1	3
401.381	1	-3
402.576	1	-2
403.771	1	-12
404.967	1	-1
406.162	1	-3
407.357	1	9
408.552	1	-5
409.747	1	4
410.942	1	5
412.137	1	5
413.332	1	0
414.526	1	-4
415.721	1	7
416.916	1	1
418.111	1	0
419.305	1	7
420.500	1	1
421.695	1	1
422.889	1	3
424.084	1	-1
425.278	1	3
426.472	1	16
427.667	1	-6
428.861	1	6
430.055	1	7
431.250	1	2
432.444	1	10
433.638	1	3
434.832	1	-4
436.026	1	-6
437.220	1	1
438.414	1	7
439.608	1	-6
440.802	1	1
441.996	1	5
443.190	1	13
444.384	1	1
445.578	1	-9
446.771	1	2
447.965	1	-3
449.159	1	-6
450.352	1	3
451.546	1	6
452.739	1	1
453.933	1	-13
455.126	1	4
456.320	1	7
457.513	1	-9
458.706	1	5
459.899	1	1
461.093	1	6
462.286	1	-6
463.479	1	-2
464.672	1	2
465.865	1	4
467.058	1	1
468.251	1	-2
469.444	1	-3
470.637	1	7
471.830	1	-6
473.023	1	6
474.215	1	6
475.408	1	1
476.601	1	-8
477.793	1	0
478.986	1	8
480.179	1	0
481.371	1	0
482.564	1	3
483.756	1	7
484.948	1	2
486.141	1	5
487.333	1	-8
488.525	1	-7
489.718	1	-10
490.910	1	2
492.102	1	0
493.294	1	-4
494.486	1	2
495.678	1	-7
496.870	1	1
498.062	1	-2
499.254	1	-6
500.446	1	-8
501.638	1	3
502.829	1	-1
504.021	1	4
505.213	1	-6
506.404	1	3
507.596	1	9
508.788	1	6
509.979	1	-4
511.171	1	6
512.362	1	4
513.553	1	-1
514.745	1	-2
515.936	1	-2
517.127	1	8
518.319	1	1
519.510	1	-5
520.701	1	2
521.892	1	10
523.083	1	-7
524.274	1	1
525.465	1	0
526.656	1	7
527.847	1	-12
529.038	1	-3
530.229	1	7
531.419	1	-1
532.610	1	-2
533.801	1	1
534.991	1	-3
536.182	1	1
537.373	1	-1
538.563	1	5
539.754	1	7
540.944	1	-6
542.134	1	0
543.325	1	7
544.515	1	4
545.705	1	1
546.896	1	0
548.086	1	2
549.276	1	-6
550.466	1	4
551.656	1	1
552.846	1	8
554.036	1	7
555.226	1	2
556.416	1	16
557.606	1	-3
558.796	1	6
559.986	1	7
561.175	1	-3
562.365	1	-6
563.555	1	3
564.744	1	13
565.934	1	8
567.123	1	-1
568.313	1	-10
569.502	1	11
570.692	1	4
571.881	1	-2
573.070	1	7
574.260	1	9
575.449	1	-8
576.638	1	14
577.827	1	-2
579.016	1	3
580.205	1	4
581.394	1	-3
582.583	1	-2
583.772	1	1
584.961	1	-11
586.150	1	2
587.339	1	-4
588.528	1	0
589.717	1	5
590.905	1	-7
592.094	1	4
593.283	1	1
594.471	1	-6
595.660	1	0
596.848	1	2
598.037	1	6
599.225	1	2
600.413	1	-1
601.602	1	8
602.790	1	4
603.978	1	0
605.166	1	4
606.355	1	-13
607.543	1	3
608.731	1	-6
609.919	1	-13
611.107	1	10
612.295	1	3
613.483	1	-3
614.671	1	5
615.858	1	-9
617.046	1	0
618.234	1	-8
619.422	1	6
620.609	1	0
621.797	1	2
622.985	1	-1
624.172	1	-4
625.360	1	-1
626.547	1	-3
627.735	1	5
628.922	1	6
630.109	1	-14
631.297	1	4
632.484	1	12
633.671	1	11
634.858	1	2
636.045	1	2
637.232	1	-2
638.419	1	-2
639.606	1	6
640.793	1	-2
641.980	1	9
643.167	1	-1
644.354	1	0
645.541	1	-5
646.728	1	-3
647.914	1	5
649.101	1	-8
650.288	1	2
651.474	1	3
652.661	1	6
653.847	1	0
655.034	1	-3
656.220	1	8
657.406	1	-8
658.593	1	8
659.779	1	9
660.965	1	2
662.152	1	2
663.338	1	5
664.524	1	8
665.710	1	1
666.896	1	7
668.082	1	-5
669.268	1	-9
670.454	1	1
671.640	1	0
672.826	1	5
674.011	1	5
675.197	1	10
676.383	1	7
677.569	1	9
678.754	1	-6
679.940	1	-6
681.125	1	2
682.311	1	5
683.496	1	2
684.682	1	8
685.867	1	2
687.053	1	22
688.238	1	9
688.746	1	-12