Folder: cryo-il_analysis/Data/GaN_130K_350ms (part 8)

File: GaN_sample F_spot6_UVVIS_130 K_200um_350 ms 2x2mm1_138.txt
340.368	1	4
341.565	1	-3
342.763	1	5
343.960	1	-6
345.157	1	-9
346.354	1	3
347.552	1	0
348.749	1	7
349.946	1	5
351.143	1	8
352.340	1	14
353.537	1	1
354.734	1	-3
355.931	1	11
357.127	1	10
358.324	1	4
359.521	1	7
360.718	1	10
361.914	1	15
363.111	1	35
364.308	1	39
365.504	1	37
366.701	1	40
367.897	1	40
369.093	1	42
370.290	1	45
371.486	1	46
372.682	1	32
373.879	1	42
375.075	1	40
376.271	1	19
377.467	1	24
378.663	1	26
379.859	1	12
381.055	1	11
382.251	1	13
383.447	1	14
384.643	1	13
385.839	1	12
387.035	1	20
388.230	1	10
389.426	1	23
390.622	1	8
391.817	1	14
393.013	1	13
394.208	1	4
395.404	1	5
396.599	1	18
397.795	1	8
398.990	1	16
400.186	1	-1
401.381	1	18
402.576	1	8
403.771	1	21
404.967	1	5
406.162	1	10
407.357	1	12
408.552	1	-1
409.747	1	-3
410.942	1	15
412.137	1	3
413.332	1	0
414.526	1	7
415.721	1	6
416.916	1	8
418.111	1	13
419.305	1	3
420.500	1	6
421.695	1	6
422.889	1	1
424.084	1	2
425.278	1	1
426.472	1	2
427.667	1	19
428.861	1	1
430.055	1	6
431.250	1	10
432.444	1	11
433.638	1	7
434.832	1	2
436.026	1	3
437.220	1	3
438.414	1	6
439.608	1	14
440.802	1	-10
441.996	1	10
443.190	1	1
444.384	1	-4
445.578	1	5
446.771	1	4
447.965	1	1
449.159	1	5
450.352	1	10
451.546	1	10
452.739	1	1
453.933	1	2
455.126	1	-12
456.320	1	-2
457.513	1	-3
458.706	1	12
459.899	1	9
461.093	1	6
462.286	1	10
463.479	1	8
464.672	1	7
465.865	1	-5
467.058	1	13
468.251	1	10
469.444	1	1
470.637	1	2
471.830	1	3
473.023	1	5
474.215	1	5
475.408	1	0
476.601	1	-1
477.793	1	-2
478.986	1	3
480.179	1	0
481.371	1	14
482.564	1	-2
483.756	1	-1
484.948	1	1
486.141	1	-5
487.333	1	2
488.525	1	7
489.718	1	13
490.910	1	-2
492.102	1	15
493.294	1	14
494.486	1	15
495.678	1	-3
496.870	1	4
498.062	1	-2
499.254	1	17
500.446	1	12
501.638	1	7
502.829	1	-1
504.021	1	14
505.213	1	12
506.404	1	4
507.596	1	4
508.788	1	8
509.979	1	22
511.171	1	13
512.362	1	7
513.553	1	21
514.745	1	10
515.936	1	37
517.127	1	15
518.319	1	3
519.510	1	5
520.701	1	9
521.892	1	24
523.083	1	12
524.274	1	9
525.465	1	19
526.656	1	17
527.847	1	29
529.038	1	8
530.229	1	17
531.419	1	18
532.610	1	14
533.801	1	25
534.991	1	20
536.182	1	21
537.373	1	17
538.563	1	28
539.754	1	18
540.944	1	16
542.134	1	13
543.325	1	13
544.515	1	21
545.705	1	14
546.896	1	14
548.086	1	3
549.276	1	4
550.466	1	18
551.656	1	3
552.846	1	13
554.036	1	3
555.226	1	15
556.416	1	10
557.606	1	14
558.796	1	15
559.986	1	10
561.175	1	11
562.365	1	20
563.555	1	14
564.744	1	10
565.934	1	13
567.123	1	7
568.313	1	12
569.502	1	6
570.692	1	16
571.881	1	7
573.070	1	9
574.260	1	6
575.449	1	12
576.638	1	3
577.827	1	-1
579.016	1	0
580.205	1	-1
581.394	1	10
582.583	1	20
583.772	1	16
584.961	1	7
586.150	1	7
587.339	1	6
588.528	1	12
589.717	1	9
590.905	1	11
592.094	1	8
593.283	1	4
594.471	1	7
595.660	1	12
596.848	1	2
598.037	1	14
599.225	1	7
600.413	1	13
601.602	1	4
602.790	1	-3
603.978	1	2
605.166	1	9
606.355	1	6
607.543	1	11
608.731	1	7
609.919	1	8
611.107	1	11
612.295	1	11
613.483	1	-5
614.671	1	11
615.858	1	-2
617.046	1	12
618.234	1	3
619.422	1	4
620.609	1	3
621.797	1	1
622.985	1	20
624.172	1	1
625.360	1	16
626.547	1	6
627.735	1	16
628.922	1	-8
630.109	1	7
631.297	1	5
632.484	1	-3
633.671	1	-11
634.858	1	6
636.045	1	10
637.232	1	-5
638.419	1	10
639.606	1	7
640.793	1	-3
641.980	1	12
643.167	1	12
644.354	1	-8
645.541	1	1
646.728	1	10
647.914	1	-8
649.101	1	6
650.288	1	5
651.474	1	-3
652.661	1	-5
653.847	1	-2
655.034	1	6
656.220	1	4
657.406	1	-5
658.593	1	9
659.779	1	8
660.965	1	6
662.152	1	6
663.338	1	-3
664.524	1	-8
665.710	1	5
666.896	1	2
668.082	1	8
669.268	1	-5
670.454	1	5
671.640	1	-3
672.826	1	2
674.011	1	-2
675.197	1	2
676.383	1	2
677.569	1	3
678.754	1	11
679.940	1	-3
681.125	1	11
682.311	1	-1
683.496	1	-1
684.682	1	0
685.867	1	1
687.053	1	6
688.238	1	16
688.746	1	11

File: GaN_sample F_spot6_UVVIS_130 K_200um_350 ms 2x2mm1_139.txt
340.368	1	10
341.565	1	-5
342.763	1	8
343.960	1	-11
345.157	1	-9
346.354	1	4
347.552	1	12
348.749	1	4
349.946	1	17
351.143	1	5
352.340	1	22
353.537	1	5
354.734	1	5
355.931	1	9
357.127	1	24
358.324	1	9
359.521	1	2
360.718	1	23
361.914	1	20
363.111	1	40
364.308	1	36
365.504	1	39
366.701	1	45
367.897	1	43
369.093	1	48
370.290	1	42
371.486	1	31
372.682	1	31
373.879	1	16
375.075	1	41
376.271	1	26
377.467	1	24
378.663	1	15
379.859	1	17
381.055	1	14
382.251	1	13
383.447	1	18
384.643	1	12
385.839	1	16
387.035	1	14
388.230	1	15
389.426	1	7
390.622	1	6
391.817	1	13
393.013	1	8
394.208	1	5
395.404	1	10
396.599	1	16
397.795	1	2
398.990	1	9
400.186	1	4
401.381	1	10
402.576	1	14
403.771	1	9
404.967	1	3
406.162	1	11
407.357	1	17
408.552	1	-5
409.747	1	1
410.942	1	6
412.137	1	7
413.332	1	5
414.526	1	2
415.721	1	6
416.916	1	8
418.111	1	6
419.305	1	11
420.500	1	10
421.695	1	5
422.889	1	1
424.084	1	15
425.278	1	5
426.472	1	2
427.667	1	13
428.861	1	1
430.055	1	6
431.250	1	12
432.444	1	5
433.638	1	5
434.832	1	10
436.026	1	13
437.220	1	-6
438.414	1	6
439.608	1	20
440.802	1	8
441.996	1	10
443.190	1	12
444.384	1	1
445.578	1	-7
446.771	1	13
447.965	1	4
449.159	1	3
450.352	1	17
451.546	1	23
452.739	1	10
453.933	1	1
455.126	1	-2
456.320	1	6
457.513	1	-3
458.706	1	13
459.899	1	3
461.093	1	15
462.286	1	12
463.479	1	10
464.672	1	13
465.865	1	-5
467.058	1	13
468.251	1	2
469.444	1	-2
470.637	1	8
471.830	1	3
473.023	1	10
474.215	1	1
475.408	1	6
476.601	1	-5
477.793	1	4
478.986	1	-11
480.179	1	0
481.371	1	13
482.564	1	0
483.756	1	11
484.948	1	1
486.141	1	7
487.333	1	7
488.525	1	12
489.718	1	11
490.910	1	4
492.102	1	8
493.294	1	11
494.486	1	19
495.678	1	4
496.870	1	8
498.062	1	-2
499.254	1	15
500.446	1	16
501.638	1	8
502.829	1	6
504.021	1	6
505.213	1	14
506.404	1	12
507.596	1	-1
508.788	1	13
509.979	1	10
511.171	1	23
512.362	1	5
513.553	1	21
514.745	1	16
515.936	1	14
517.127	1	13
518.319	1	11
519.510	1	14
520.701	1	17
521.892	1	27
523.083	1	22
524.274	1	7
525.465	1	17
526.656	1	18
527.847	1	14
529.038	1	12
530.229	1	19
531.419	1	22
532.610	1	8
533.801	1	28
534.991	1	11
536.182	1	19
537.373	1	19
538.563	1	21
539.754	1	16
540.944	1	21
542.134	1	11
543.325	1	9
544.515	1	17
545.705	1	8
546.896	1	15
548.086	1	6
549.276	1	8
550.466	1	16
551.656	1	16
552.846	1	14
554.036	1	12
555.226	1	22
556.416	1	20
557.606	1	7
558.796	1	12
559.986	1	17
561.175	1	13
562.365	1	17
563.555	1	20
564.744	1	14
565.934	1	-2
567.123	1	3
568.313	1	12
569.502	1	3
570.692	1	12
571.881	1	4
573.070	1	7
574.260	1	10
575.449	1	1
576.638	1	2
577.827	1	-1
579.016	1	-4
580.205	1	-8
581.394	1	3
582.583	1	16
583.772	1	12
584.961	1	13
586.150	1	16
587.339	1	9
588.528	1	15
589.717	1	2
590.905	1	14
592.094	1	-2
593.283	1	-1
594.471	1	6
595.660	1	9
596.848	1	5
598.037	1	5
599.225	1	9
600.413	1	20
601.602	1	-4
602.790	1	1
603.978	1	4
605.166	1	14
606.355	1	6
607.543	1	-2
608.731	1	11
609.919	1	5
611.107	1	7
612.295	1	13
613.483	1	4
614.671	1	5
615.858	1	2
617.046	1	9
618.234	1	4
619.422	1	1
620.609	1	-9
621.797	1	4
622.985	1	6
624.172	1	-2
625.360	1	-1
626.547	1	2
627.735	1	12
628.922	1	-3
630.109	1	-2
631.297	1	0
632.484	1	-6
633.671	1	-7
634.858	1	15
636.045	1	15
637.232	1	4
638.419	1	-5
639.606	1	3
640.793	1	-7
641.980	1	-4
643.167	1	7
644.354	1	3
645.541	1	3
646.728	1	8
647.914	1	3
649.101	1	5
650.288	1	8
651.474	1	7
652.661	1	-5
653.847	1	1
655.034	1	3
656.220	1	2
657.406	1	6
658.593	1	-5
659.779	1	7
660.965	1	8
662.152	1	3
663.338	1	0
664.524	1	-3
665.710	1	10
666.896	1	6
668.082	1	11
669.268	1	-3
670.454	1	5
671.640	1	-10
672.826	1	6
674.011	1	1
675.197	1	-3
676.383	1	3
677.569	1	6
678.754	1	10
679.940	1	-5
681.125	1	18
682.311	1	-2
683.496	1	-2
684.682	1	1
685.867	1	8
687.053	1	2
688.238	1	16
688.746	1	6

File: GaN_sample F_spot6_UVVIS_130 K_200um_350 ms 2x2mm1_140.txt
340.368	1	2
341.565	1	2
342.763	1	2
343.960	1	1
345.157	1	-5
346.354	1	4
347.552	1	4
348.749	1	10
349.946	1	10
351.143	1	11
352.340	1	16
353.537	1	3
354.734	1	4
355.931	1	10
357.127	1	20
358.324	1	10
359.521	1	-9
360.718	1	19
361.914	1	19
363.111	1	28
364.308	1	36
365.504	1	37
366.701	1	46
367.897	1	47
369.093	1	51
370.290	1	46
371.486	1	32
372.682	1	31
373.879	1	38
375.075	1	24
376.271	1	26
377.467	1	24
378.663	1	11
379.859	1	16
381.055	1	19
382.251	1	19
383.447	1	22
384.643	1	17
385.839	1	11
387.035	1	21
388.230	1	2
389.426	1	20
390.622	1	0
391.817	1	14
393.013	1	14
394.208	1	0
395.404	1	5
396.599	1	15
397.795	1	3
398.990	1	3
400.186	1	-1
401.381	1	11
402.576	1	8
403.771	1	9
404.967	1	2
406.162	1	4
407.357	1	3
408.552	1	2
409.747	1	16
410.942	1	9
412.137	1	7
413.332	1	-2
414.526	1	2
415.721	1	-1
416.916	1	4
418.111	1	14
419.305	1	5
420.500	1	9
421.695	1	0
422.889	1	1
424.084	1	13
425.278	1	1
426.472	1	2
427.667	1	4
428.861	1	4
430.055	1	6
431.250	1	5
432.444	1	16
433.638	1	-1
434.832	1	2
436.026	1	13
437.220	1	3
438.414	1	2
439.608	1	20
440.802	1	-2
441.996	1	10
443.190	1	8
444.384	1	8
445.578	1	5
446.771	1	8
447.965	1	13
449.159	1	7
450.352	1	13
451.546	1	5
452.739	1	1
453.933	1	9
455.126	1	-3
456.320	1	-2
457.513	1	-9
458.706	1	11
459.899	1	-1
461.093	1	12
462.286	1	8
463.479	1	10
464.672	1	12
465.865	1	-5
467.058	1	8
468.251	1	5
469.444	1	6
470.637	1	4
471.830	1	2
473.023	1	3
474.215	1	-9
475.408	1	1
476.601	1	7
477.793	1	0
478.986	1	1
480.179	1	-1
481.371	1	9
482.564	1	-2
483.756	1	-1
484.948	1	0
486.141	1	7
487.333	1	0
488.525	1	13
489.718	1	8
490.910	1	-7
492.102	1	14
493.294	1	10
494.486	1	17
495.678	1	4
496.870	1	7
498.062	1	-1
499.254	1	4
500.446	1	7
501.638	1	13
502.829	1	1
504.021	1	16
505.213	1	13
506.404	1	2
507.596	1	2
508.788	1	14
509.979	1	14
511.171	1	10
512.362	1	12
513.553	1	10
514.745	1	21
515.936	1	25
517.127	1	22
518.319	1	10
519.510	1	12
520.701	1	19
521.892	1	17
523.083	1	21
524.274	1	10
525.465	1	20
526.656	1	15
527.847	1	8
529.038	1	12
530.229	1	17
531.419	1	24
532.610	1	17
533.801	1	32
534.991	1	22
536.182	1	22
537.373	1	20
538.563	1	19
539.754	1	14
540.944	1	17
542.134	1	7
543.325	1	19
544.515	1	19
545.705	1	10
546.896	1	13
548.086	1	8
549.276	1	3
550.466	1	19
551.656	1	15
552.846	1	12
554.036	1	7
555.226	1	9
556.416	1	13
557.606	1	2
558.796	1	12
559.986	1	9
561.175	1	17
562.365	1	15
563.555	1	12
564.744	1	8
565.934	1	8
567.123	1	11
568.313	1	1
569.502	1	15
570.692	1	21
571.881	1	13
573.070	1	7
574.260	1	7
575.449	1	13
576.638	1	9
577.827	1	8
579.016	1	15
580.205	1	-1
581.394	1	10
582.583	1	22
583.772	1	14
584.961	1	12
586.150	1	11
587.339	1	10
588.528	1	23
589.717	1	4
590.905	1	10
592.094	1	2
593.283	1	-4
594.471	1	1
595.660	1	0
596.848	1	9
598.037	1	4
599.225	1	9
600.413	1	5
601.602	1	13
602.790	1	5
603.978	1	10
605.166	1	8
606.355	1	6
607.543	1	14
608.731	1	6
609.919	1	10
611.107	1	10
612.295	1	12
613.483	1	-7
614.671	1	1
615.858	1	-5
617.046	1	12
618.234	1	2
619.422	1	6
620.609	1	-5
621.797	1	8
622.985	1	2
624.172	1	5
625.360	1	8
626.547	1	7
627.735	1	15
628.922	1	-1
630.109	1	13
631.297	1	-11
632.484	1	-11
633.671	1	-6
634.858	1	12
636.045	1	13
637.232	1	-7
638.419	1	6
639.606	1	8
640.793	1	-7
641.980	1	-2
643.167	1	5
644.354	1	-2
645.541	1	3
646.728	1	7
647.914	1	-4
649.101	1	0
650.288	1	11
651.474	1	-4
652.661	1	-2
653.847	1	4
655.034	1	0
656.220	1	2
657.406	1	2
658.593	1	-1
659.779	1	0
660.965	1	2
662.152	1	12
663.338	1	7
664.524	1	-4
665.710	1	5
666.896	1	9
668.082	1	5
669.268	1	8
670.454	1	-6
671.640	1	2
672.826	1	4
674.011	1	6
675.197	1	0
676.383	1	5
677.569	1	1
678.754	1	16
679.940	1	0
681.125	1	11
682.311	1	2
683.496	1	-5
684.682	1	6
685.867	1	6
687.053	1	-1
688.238	1	7
688.746	1	6

File: GaN_sample F_spot6_UVVIS_130 K_200um_350 ms 2x2mm1_141.txt
340.368	1	8
341.565	1	7
342.763	1	3
343.960	1	-9
345.157	1	-5
346.354	1	-8
347.552	1	0
348.749	1	7
349.946	1	3
351.143	1	-5
352.340	1	15
353.537	1	6
354.734	1	-1
355.931	1	14
357.127	1	4
358.324	1	3
359.521	1	5
360.718	1	13
361.914	1	16
363.111	1	37
364.308	1	41
365.504	1	35
366.701	1	42
367.897	1	41
369.093	1	43
370.290	1	41
371.486	1	35
372.682	1	31
373.879	1	37
375.075	1	28
376.271	1	20
377.467	1	24
378.663	1	25
379.859	1	13
381.055	1	14
382.251	1	14
383.447	1	11
384.643	1	22
385.839	1	9
387.035	1	17
388.230	1	3
389.426	1	11
390.622	1	11
391.817	1	19
393.013	1	18
394.208	1	4
395.404	1	-6
396.599	1	16
397.795	1	4
398.990	1	8
400.186	1	8
401.381	1	17
402.576	1	10
403.771	1	10
404.967	1	6
406.162	1	4
407.357	1	15
408.552	1	7
409.747	1	8
410.942	1	11
412.137	1	7
413.332	1	2
414.526	1	9
415.721	1	4
416.916	1	4
418.111	1	1
419.305	1	3
420.500	1	6
421.695	1	10
422.889	1	10
424.084	1	14
425.278	1	6
426.472	1	6
427.667	1	8
428.861	1	9
430.055	1	5
431.250	1	14
432.444	1	9
433.638	1	8
434.832	1	4
436.026	1	18
437.220	1	9
438.414	1	8
439.608	1	8
440.802	1	8
441.996	1	14
443.190	1	6
444.384	1	0
445.578	1	0
446.771	1	12
447.965	1	8
449.159	1	11
450.352	1	12
451.546	1	12
452.739	1	4
453.933	1	6
455.126	1	2
456.320	1	2
457.513	1	-2
458.706	1	13
459.899	1	3
461.093	1	11
462.286	1	6
463.479	1	12
464.672	1	11
465.865	1	-6
467.058	1	12
468.251	1	9
469.444	1	4
470.637	1	11
471.830	1	4
473.023	1	6
474.215	1	5
475.408	1	2
476.601	1	0
477.793	1	1
478.986	1	8
480.179	1	0
481.371	1	8
482.564	1	0
483.756	1	-1
484.948	1	13
486.141	1	1
487.333	1	-8
488.525	1	10
489.718	1	9
490.910	1	3
492.102	1	17
493.294	1	19
494.486	1	12
495.678	1	13
496.870	1	12
498.062	1	1
499.254	1	7
500.446	1	8
501.638	1	1
502.829	1	13
504.021	1	13
505.213	1	3
506.404	1	8
507.596	1	2
508.788	1	11
509.979	1	5
511.171	1	13
512.362	1	13
513.553	1	22
514.745	1	14
515.936	1	16
517.127	1	16
518.319	1	6
519.510	1	12
520.701	1	13
521.892	1	35
523.083	1	8
524.274	1	6
525.465	1	22
526.656	1	21
527.847	1	12
529.038	1	13
530.229	1	10
531.419	1	19
532.610	1	4
533.801	1	26
534.991	1	14
536.182	1	15
537.373	1	13
538.563	1	23
539.754	1	9
540.944	1	17
542.134	1	12
543.325	1	12
544.515	1	11
545.705	1	14
546.896	1	18
548.086	1	8
549.276	1	4
550.466	1	13
551.656	1	18
552.846	1	3
554.036	1	7
555.226	1	6
556.416	1	22
557.606	1	19
558.796	1	21
559.986	1	12
561.175	1	16
562.365	1	15
563.555	1	18
564.744	1	13
565.934	1	8
567.123	1	11
568.313	1	4
569.502	1	7
570.692	1	2
571.881	1	10
573.070	1	10
574.260	1	5
575.449	1	2
576.638	1	-3
577.827	1	-8
579.016	1	3
580.205	1	4
581.394	1	1
582.583	1	14
583.772	1	1
584.961	1	5
586.150	1	8
587.339	1	3
588.528	1	18
589.717	1	4
590.905	1	10
592.094	1	4
593.283	1	-2
594.471	1	11
595.660	1	9
596.848	1	4
598.037	1	7
599.225	1	12
600.413	1	9
601.602	1	0
602.790	1	1
603.978	1	0
605.166	1	8
606.355	1	5
607.543	1	8
608.731	1	2
609.919	1	6
611.107	1	7
612.295	1	17
613.483	1	-2
614.671	1	2
615.858	1	-1
617.046	1	12
618.234	1	3
619.422	1	7
620.609	1	-7
621.797	1	-1
622.985	1	6
624.172	1	4
625.360	1	8
626.547	1	4
627.735	1	10
628.922	1	-7
630.109	1	2
631.297	1	2
632.484	1	1
633.671	1	0
634.858	1	6
636.045	1	21
637.232	1	0
638.419	1	-6
639.606	1	9
640.793	1	-6
641.980	1	0
643.167	1	5
644.354	1	0
645.541	1	4
646.728	1	-2
647.914	1	-3
649.101	1	2
650.288	1	4
651.474	1	2
652.661	1	3
653.847	1	5
655.034	1	2
656.220	1	5
657.406	1	5
658.593	1	-1
659.779	1	-3
660.965	1	6
662.152	1	8
663.338	1	1
664.524	1	3
665.710	1	5
666.896	1	16
668.082	1	3
669.268	1	1
670.454	1	2
671.640	1	-15
672.826	1	9
674.011	1	3
675.197	1	1
676.383	1	10
677.569	1	3
678.754	1	18
679.940	1	-1
681.125	1	11
682.311	1	-6
683.496	1	3
684.682	1	-2
685.867	1	5
687.053	1	-5
688.238	1	13
688.746	1	6

File: GaN_sample F_spot6_UVVIS_130 K_200um_350 ms 2x2mm1_142.txt
340.368	1	13
341.565	1	-2
342.763	1	5
343.960	1	-7
345.157	1	-9
346.354	1	2
347.552	1	-3
348.749	1	6
349.946	1	-3
351.143	1	3
352.340	1	6
353.537	1	3
354.734	1	8
355.931	1	10
357.127	1	9
358.324	1	2
359.521	1	6
360.718	1	22
361.914	1	21
363.111	1	29
364.308	1	35
365.504	1	28
366.701	1	41
367.897	1	43
369.093	1	49
370.290	1	43
371.486	1	28
372.682	1	29
373.879	1	36
375.075	1	37
376.271	1	22
377.467	1	36
378.663	1	18
379.859	1	18
381.055	1	13
382.251	1	21
383.447	1	14
384.643	1	11
385.839	1	14
387.035	1	18
388.230	1	6
389.426	1	19
390.622	1	9
391.817	1	15
393.013	1	11
394.208	1	2
395.404	1	5
396.599	1	13
397.795	1	1
398.990	1	-1
400.186	1	12
401.381	1	9
402.576	1	8
403.771	1	14
404.967	1	14
406.162	1	7
407.357	1	6
408.552	1	2
409.747	1	12
410.942	1	15
412.137	1	1
413.332	1	-5
414.526	1	2
415.721	1	0
416.916	1	2
418.111	1	9
419.305	1	3
420.500	1	10
421.695	1	7
422.889	1	0
424.084	1	11
425.278	1	-9
426.472	1	2
427.667	1	14
428.861	1	2
430.055	1	1
431.250	1	8
432.444	1	14
433.638	1	9
434.832	1	-2
436.026	1	3
437.220	1	-2
438.414	1	-4
439.608	1	15
440.802	1	-4
441.996	1	16
443.190	1	4
444.384	1	5
445.578	1	0
446.771	1	6
447.965	1	4
449.159	1	11
450.352	1	16
451.546	1	16
452.739	1	7
453.933	1	5
455.126	1	-2
456.320	1	10
457.513	1	-4
458.706	1	10
459.899	1	7
461.093	1	9
462.286	1	8
463.479	1	7
464.672	1	0
465.865	1	-9
467.058	1	1
468.251	1	4
469.444	1	-6
470.637	1	5
471.830	1	0
473.023	1	11
474.215	1	1
475.408	1	4
476.601	1	6
477.793	1	4
478.986	1	3
480.179	1	-4
481.371	1	8
482.564	1	-1
483.756	1	6
484.948	1	11
486.141	1	-1
487.333	1	0
488.525	1	7
489.718	1	9
490.910	1	-2
492.102	1	17
493.294	1	5
494.486	1	8
495.678	1	0
496.870	1	9
498.062	1	-3
499.254	1	13
500.446	1	12
501.638	1	-2
502.829	1	5
504.021	1	6
505.213	1	0
506.404	1	14
507.596	1	9
508.788	1	18
509.979	1	-1
511.171	1	14
512.362	1	7
513.553	1	22
514.745	1	13
515.936	1	22
517.127	1	12
518.319	1	5
519.510	1	1
520.701	1	10
521.892	1	22
523.083	1	14
524.274	1	11
525.465	1	13
526.656	1	20
527.847	1	20
529.038	1	3
530.229	1	20
531.419	1	13
532.610	1	14
533.801	1	31
534.991	1	19
536.182	1	17
537.373	1	20
538.563	1	14
539.754	1	16
540.944	1	20
542.134	1	14
543.325	1	18
544.515	1	10
545.705	1	8
546.896	1	11
548.086	1	3
549.276	1	2
550.466	1	17
551.656	1	17
552.846	1	10
554.036	1	4
555.226	1	14
556.416	1	15
557.606	1	7
558.796	1	19
559.986	1	19
561.175	1	18
562.365	1	10
563.555	1	14
564.744	1	7
565.934	1	9
567.123	1	11
568.313	1	3
569.502	1	5
570.692	1	13
571.881	1	9
573.070	1	4
574.260	1	13
575.449	1	10
576.638	1	6
577.827	1	2
579.016	1	4
580.205	1	1
581.394	1	3
582.583	1	20
583.772	1	8
584.961	1	0
586.150	1	1
587.339	1	7
588.528	1	11
589.717	1	-5
590.905	1	7
592.094	1	6
593.283	1	2
594.471	1	4
595.660	1	1
596.848	1	7
598.037	1	7
599.225	1	-1
600.413	1	7
601.602	1	-9
602.790	1	8
603.978	1	9
605.166	1	9
606.355	1	15
607.543	1	2
608.731	1	-3
609.919	1	15
611.107	1	5
612.295	1	8
613.483	1	7
614.671	1	13
615.858	1	-2
617.046	1	8
618.234	1	4
619.422	1	8
620.609	1	6
621.797	1	3
622.985	1	10
624.172	1	5
625.360	1	8
626.547	1	7
627.735	1	6
628.922	1	0
630.109	1	8
631.297	1	6
632.484	1	-3
633.671	1	-4
634.858	1	8
636.045	1	6
637.232	1	2
638.419	1	5
639.606	1	9
640.793	1	-8
641.980	1	2
643.167	1	3
644.354	1	-1
645.541	1	-1
646.728	1	3
647.914	1	-11
649.101	1	-1
650.288	1	13
651.474	1	-7
652.661	1	14
653.847	1	4
655.034	1	8
656.220	1	2
657.406	1	15
658.593	1	11
659.779	1	6
660.965	1	2
662.152	1	8
663.338	1	-1
664.524	1	-3
665.710	1	0
666.896	1	7
668.082	1	-1
669.268	1	0
670.454	1	3
671.640	1	-4
672.826	1	5
674.011	1	2
675.197	1	-7
676.383	1	10
677.569	1	4
678.754	1	2
679.940	1	-3
681.125	1	5
682.311	1	-2
683.496	1	-3
684.682	1	-3
685.867	1	9
687.053	1	-4
688.238	1	6
688.746	1	10

File: GaN_sample F_spot6_UVVIS_130 K_200um_350 ms 2x2mm1_143.txt
340.368	1	4
341.565	1	-5
342.763	1	3
343.960	1	-3
345.157	1	-5
346.354	1	2
347.552	1	4
348.749	1	10
349.946	1	9
351.143	1	8
352.340	1	22
353.537	1	-6
354.734	1	1
355.931	1	10
357.127	1	17
358.324	1	5
359.521	1	8
360.718	1	23
361.914	1	15
363.111	1	23
364.308	1	32
365.504	1	37
366.701	1	34
367.897	1	34
369.093	1	39
370.290	1	40
371.486	1	26
372.682	1	27
373.879	1	28
375.075	1	29
376.271	1	27
377.467	1	23
378.663	1	21
379.859	1	10
381.055	1	15
382.251	1	11
383.447	1	5
384.643	1	14
385.839	1	16
387.035	1	8
388.230	1	9
389.426	1	13
390.622	1	8
391.817	1	9
393.013	1	1
394.208	1	7
395.404	1	-1
396.599	1	9
397.795	1	-6
398.990	1	6
400.186	1	3
401.381	1	12
402.576	1	3
403.771	1	13
404.967	1	2
406.162	1	11
407.357	1	5
408.552	1	5
409.747	1	10
410.942	1	9
412.137	1	10
413.332	1	6
414.526	1	-2
415.721	1	7
416.916	1	2
418.111	1	17
419.305	1	12
420.500	1	7
421.695	1	8
422.889	1	6
424.084	1	7
425.278	1	-1
426.472	1	6
427.667	1	6
428.861	1	6
430.055	1	2
431.250	1	16
432.444	1	7
433.638	1	-1
434.832	1	9
436.026	1	11
437.220	1	-2
438.414	1	3
439.608	1	9
440.802	1	-2
441.996	1	18
443.190	1	4
444.384	1	-2
445.578	1	7
446.771	1	15
447.965	1	5
449.159	1	3
450.352	1	9
451.546	1	12
452.739	1	14
453.933	1	5
455.126	1	-10
456.320	1	2
457.513	1	3
458.706	1	9
459.899	1	-2
461.093	1	7
462.286	1	5
463.479	1	17
464.672	1	8
465.865	1	-2
467.058	1	13
468.251	1	1
469.444	1	1
470.637	1	3
471.830	1	2
473.023	1	13
474.215	1	6
475.408	1	14
476.601	1	3
477.793	1	-3
478.986	1	6
480.179	1	4
481.371	1	12
482.564	1	-4
483.756	1	6
484.948	1	11
486.141	1	11
487.333	1	5
488.525	1	13
489.718	1	7
490.910	1	-5
492.102	1	7
493.294	1	18
494.486	1	24
495.678	1	5
496.870	1	8
498.062	1	12
499.254	1	15
500.446	1	8
501.638	1	6
502.829	1	4
504.021	1	-2
505.213	1	13
506.404	1	1
507.596	1	5
508.788	1	2
509.979	1	14
511.171	1	26
512.362	1	13
513.553	1	8
514.745	1	7
515.936	1	15
517.127	1	10
518.319	1	6
519.510	1	4
520.701	1	17
521.892	1	22
523.083	1	18
524.274	1	7
525.465	1	22
526.656	1	18
527.847	1	15
529.038	1	15
530.229	1	17
531.419	1	13
532.610	1	7
533.801	1	28
534.991	1	16
536.182	1	21
537.373	1	15
538.563	1	20
539.754	1	10
540.944	1	22
542.134	1	8
543.325	1	7
544.515	1	15
545.705	1	10
546.896	1	20
548.086	1	5
549.276	1	12
550.466	1	28
551.656	1	19
552.846	1	8
554.036	1	9
555.226	1	14
556.416	1	13
557.606	1	14
558.796	1	24
559.986	1	8
561.175	1	11
562.365	1	6
563.555	1	14
564.744	1	15
565.934	1	7
567.123	1	3
568.313	1	11
569.502	1	5
570.692	1	17
571.881	1	7
573.070	1	16
574.260	1	12
575.449	1	13
576.638	1	1
577.827	1	-4
579.016	1	5
580.205	1	2
581.394	1	7
582.583	1	11
583.772	1	15
584.961	1	5
586.150	1	13
587.339	1	4
588.528	1	25
589.717	1	5
590.905	1	13
592.094	1	15
593.283	1	-7
594.471	1	5
595.660	1	9
596.848	1	13
598.037	1	7
599.225	1	7
600.413	1	5
601.602	1	9
602.790	1	2
603.978	1	7
605.166	1	14
606.355	1	8
607.543	1	-1
608.731	1	7
609.919	1	6
611.107	1	19
612.295	1	6
613.483	1	-1
614.671	1	7
615.858	1	1
617.046	1	10
618.234	1	2
619.422	1	-1
620.609	1	-3
621.797	1	-3
622.985	1	7
624.172	1	-6
625.360	1	7
626.547	1	-1
627.735	1	5
628.922	1	0
630.109	1	1
631.297	1	6
632.484	1	1
633.671	1	-9
634.858	1	8
636.045	1	17
637.232	1	0
638.419	1	4
639.606	1	5
640.793	1	-4
641.980	1	-5
643.167	1	5
644.354	1	3
645.541	1	-2
646.728	1	2
647.914	1	-7
649.101	1	0
650.288	1	3
651.474	1	-4
652.661	1	-1
653.847	1	8
655.034	1	4
656.220	1	8
657.406	1	5
658.593	1	5
659.779	1	7
660.965	1	0
662.152	1	5
663.338	1	-4
664.524	1	-9
665.710	1	4
666.896	1	6
668.082	1	6
669.268	1	-6
670.454	1	2
671.640	1	-15
672.826	1	6
674.011	1	11
675.197	1	-3
676.383	1	6
677.569	1	-1
678.754	1	5
679.940	1	6
681.125	1	3
682.311	1	2
683.496	1	9
684.682	1	0
685.867	1	4
687.053	1	5
688.238	1	9
688.746	1	-2