Folder: cryo-il_analysis/Data/GaN_130K_350ms (part 12)

File: GaN_sample F_spot6_UVVIS_130 K_200um_350 ms 2x2mm1_168.txt
340.368	1	2
341.565	1	1
342.763	1	9
343.960	1	-5
345.157	1	-3
346.354	1	1
347.552	1	2
348.749	1	4
349.946	1	5
351.143	1	1
352.340	1	8
353.537	1	8
354.734	1	2
355.931	1	9
357.127	1	11
358.324	1	10
359.521	1	1
360.718	1	14
361.914	1	11
363.111	1	28
364.308	1	23
365.504	1	28
366.701	1	23
367.897	1	26
369.093	1	44
370.290	1	26
371.486	1	20
372.682	1	24
373.879	1	21
375.075	1	15
376.271	1	10
377.467	1	21
378.663	1	10
379.859	1	6
381.055	1	9
382.251	1	7
383.447	1	4
384.643	1	12
385.839	1	17
387.035	1	24
388.230	1	7
389.426	1	12
390.622	1	10
391.817	1	11
393.013	1	7
394.208	1	1
395.404	1	-4
396.599	1	15
397.795	1	3
398.990	1	13
400.186	1	3
401.381	1	3
402.576	1	3
403.771	1	11
404.967	1	8
406.162	1	4
407.357	1	6
408.552	1	3
409.747	1	-1
410.942	1	8
412.137	1	-1
413.332	1	7
414.526	1	10
415.721	1	4
416.916	1	4
418.111	1	1
419.305	1	4
420.500	1	5
421.695	1	3
422.889	1	9
424.084	1	7
425.278	1	4
426.472	1	10
427.667	1	11
428.861	1	-4
430.055	1	1
431.250	1	10
432.444	1	14
433.638	1	10
434.832	1	9
436.026	1	11
437.220	1	-2
438.414	1	0
439.608	1	13
440.802	1	-7
441.996	1	14
443.190	1	14
444.384	1	-5
445.578	1	6
446.771	1	9
447.965	1	9
449.159	1	5
450.352	1	9
451.546	1	11
452.739	1	6
453.933	1	-3
455.126	1	-4
456.320	1	11
457.513	1	1
458.706	1	5
459.899	1	-2
461.093	1	5
462.286	1	8
463.479	1	10
464.672	1	1
465.865	1	-6
467.058	1	4
468.251	1	5
469.444	1	2
470.637	1	16
471.830	1	6
473.023	1	7
474.215	1	5
475.408	1	9
476.601	1	6
477.793	1	-2
478.986	1	2
480.179	1	3
481.371	1	8
482.564	1	2
483.756	1	-1
484.948	1	4
486.141	1	6
487.333	1	2
488.525	1	6
489.718	1	8
490.910	1	-6
492.102	1	4
493.294	1	7
494.486	1	16
495.678	1	-1
496.870	1	4
498.062	1	1
499.254	1	14
500.446	1	4
501.638	1	10
502.829	1	3
504.021	1	5
505.213	1	9
506.404	1	8
507.596	1	7
508.788	1	2
509.979	1	2
511.171	1	13
512.362	1	5
513.553	1	10
514.745	1	8
515.936	1	8
517.127	1	12
518.319	1	8
519.510	1	-2
520.701	1	3
521.892	1	11
523.083	1	6
524.274	1	7
525.465	1	8
526.656	1	8
527.847	1	6
529.038	1	7
530.229	1	8
531.419	1	12
532.610	1	11
533.801	1	25
534.991	1	7
536.182	1	16
537.373	1	12
538.563	1	20
539.754	1	8
540.944	1	8
542.134	1	1
543.325	1	8
544.515	1	14
545.705	1	8
546.896	1	10
548.086	1	6
549.276	1	10
550.466	1	13
551.656	1	9
552.846	1	14
554.036	1	6
555.226	1	19
556.416	1	11
557.606	1	5
558.796	1	6
559.986	1	17
561.175	1	10
562.365	1	15
563.555	1	17
564.744	1	2
565.934	1	7
567.123	1	5
568.313	1	8
569.502	1	8
570.692	1	26
571.881	1	12
573.070	1	3
574.260	1	9
575.449	1	10
576.638	1	5
577.827	1	8
579.016	1	-5
580.205	1	2
581.394	1	7
582.583	1	9
583.772	1	2
584.961	1	3
586.150	1	5
587.339	1	-1
588.528	1	12
589.717	1	0
590.905	1	9
592.094	1	2
593.283	1	-4
594.471	1	3
595.660	1	6
596.848	1	3
598.037	1	8
599.225	1	5
600.413	1	10
601.602	1	13
602.790	1	-2
603.978	1	2
605.166	1	11
606.355	1	9
607.543	1	11
608.731	1	11
609.919	1	12
611.107	1	7
612.295	1	10
613.483	1	-2
614.671	1	5
615.858	1	2
617.046	1	2
618.234	1	-5
619.422	1	7
620.609	1	-7
621.797	1	2
622.985	1	4
624.172	1	1
625.360	1	3
626.547	1	5
627.735	1	17
628.922	1	-2
630.109	1	13
631.297	1	0
632.484	1	-8
633.671	1	1
634.858	1	4
636.045	1	10
637.232	1	-9
638.419	1	4
639.606	1	14
640.793	1	-13
641.980	1	4
643.167	1	0
644.354	1	-2
645.541	1	6
646.728	1	9
647.914	1	-7
649.101	1	-4
650.288	1	6
651.474	1	3
652.661	1	0
653.847	1	5
655.034	1	6
656.220	1	1
657.406	1	13
658.593	1	-2
659.779	1	-2
660.965	1	4
662.152	1	-3
663.338	1	0
664.524	1	0
665.710	1	7
666.896	1	13
668.082	1	4
669.268	1	-1
670.454	1	6
671.640	1	-8
672.826	1	2
674.011	1	5
675.197	1	10
676.383	1	3
677.569	1	5
678.754	1	8
679.940	1	3
681.125	1	6
682.311	1	-9
683.496	1	1
684.682	1	-5
685.867	1	-4
687.053	1	12
688.238	1	9
688.746	1	5

File: GaN_sample F_spot6_UVVIS_130 K_200um_350 ms 2x2mm1_169.txt
340.368	1	4
341.565	1	3
342.763	1	-4
343.960	1	-2
345.157	1	-11
346.354	1	14
347.552	1	6
348.749	1	3
349.946	1	4
351.143	1	4
352.340	1	14
353.537	1	-1
354.734	1	-6
355.931	1	1
357.127	1	11
358.324	1	1
359.521	1	-3
360.718	1	14
361.914	1	6
363.111	1	19
364.308	1	19
365.504	1	22
366.701	1	25
367.897	1	12
369.093	1	26
370.290	1	35
371.486	1	17
372.682	1	14
373.879	1	13
375.075	1	20
376.271	1	24
377.467	1	17
378.663	1	21
379.859	1	6
381.055	1	6
382.251	1	4
383.447	1	12
384.643	1	6
385.839	1	13
387.035	1	14
388.230	1	7
389.426	1	11
390.622	1	10
391.817	1	11
393.013	1	8
394.208	1	-3
395.404	1	-7
396.599	1	7
397.795	1	-3
398.990	1	12
400.186	1	7
401.381	1	9
402.576	1	8
403.771	1	12
404.967	1	5
406.162	1	0
407.357	1	9
408.552	1	3
409.747	1	5
410.942	1	3
412.137	1	10
413.332	1	-2
414.526	1	11
415.721	1	6
416.916	1	0
418.111	1	10
419.305	1	7
420.500	1	5
421.695	1	5
422.889	1	3
424.084	1	7
425.278	1	7
426.472	1	8
427.667	1	12
428.861	1	-2
430.055	1	-1
431.250	1	5
432.444	1	13
433.638	1	12
434.832	1	12
436.026	1	5
437.220	1	-2
438.414	1	1
439.608	1	18
440.802	1	3
441.996	1	10
443.190	1	3
444.384	1	5
445.578	1	-2
446.771	1	12
447.965	1	-3
449.159	1	1
450.352	1	13
451.546	1	14
452.739	1	7
453.933	1	2
455.126	1	-10
456.320	1	-7
457.513	1	-3
458.706	1	9
459.899	1	7
461.093	1	9
462.286	1	3
463.479	1	13
464.672	1	8
465.865	1	1
467.058	1	8
468.251	1	5
469.444	1	1
470.637	1	8
471.830	1	1
473.023	1	7
474.215	1	0
475.408	1	5
476.601	1	2
477.793	1	-4
478.986	1	6
480.179	1	-5
481.371	1	15
482.564	1	-5
483.756	1	-3
484.948	1	2
486.141	1	1
487.333	1	-6
488.525	1	13
489.718	1	11
490.910	1	-6
492.102	1	10
493.294	1	11
494.486	1	8
495.678	1	0
496.870	1	8
498.062	1	-6
499.254	1	10
500.446	1	6
501.638	1	0
502.829	1	2
504.021	1	-2
505.213	1	9
506.404	1	-1
507.596	1	-3
508.788	1	12
509.979	1	4
511.171	1	17
512.362	1	11
513.553	1	9
514.745	1	2
515.936	1	27
517.127	1	6
518.319	1	2
519.510	1	9
520.701	1	10
521.892	1	13
523.083	1	10
524.274	1	-6
525.465	1	12
526.656	1	9
527.847	1	6
529.038	1	1
530.229	1	8
531.419	1	15
532.610	1	6
533.801	1	21
534.991	1	1
536.182	1	15
537.373	1	10
538.563	1	11
539.754	1	5
540.944	1	9
542.134	1	6
543.325	1	5
544.515	1	12
545.705	1	4
546.896	1	3
548.086	1	2
549.276	1	0
550.466	1	10
551.656	1	7
552.846	1	-2
554.036	1	-2
555.226	1	10
556.416	1	13
557.606	1	7
558.796	1	11
559.986	1	3
561.175	1	13
562.365	1	14
563.555	1	15
564.744	1	3
565.934	1	-2
567.123	1	1
568.313	1	-3
569.502	1	10
570.692	1	12
571.881	1	-2
573.070	1	6
574.260	1	1
575.449	1	9
576.638	1	-5
577.827	1	6
579.016	1	0
580.205	1	3
581.394	1	4
582.583	1	10
583.772	1	6
584.961	1	-2
586.150	1	12
587.339	1	7
588.528	1	4
589.717	1	-5
590.905	1	13
592.094	1	7
593.283	1	-10
594.471	1	2
595.660	1	5
596.848	1	8
598.037	1	3
599.225	1	3
600.413	1	7
601.602	1	-6
602.790	1	9
603.978	1	4
605.166	1	9
606.355	1	2
607.543	1	0
608.731	1	2
609.919	1	14
611.107	1	11
612.295	1	9
613.483	1	0
614.671	1	12
615.858	1	3
617.046	1	13
618.234	1	6
619.422	1	0
620.609	1	-4
621.797	1	-3
622.985	1	2
624.172	1	2
625.360	1	9
626.547	1	8
627.735	1	9
628.922	1	-4
630.109	1	12
631.297	1	-1
632.484	1	-6
633.671	1	-10
634.858	1	11
636.045	1	13
637.232	1	-5
638.419	1	4
639.606	1	0
640.793	1	-17
641.980	1	6
643.167	1	7
644.354	1	-2
645.541	1	6
646.728	1	4
647.914	1	-5
649.101	1	5
650.288	1	10
651.474	1	0
652.661	1	3
653.847	1	4
655.034	1	9
656.220	1	0
657.406	1	11
658.593	1	0
659.779	1	9
660.965	1	6
662.152	1	3
663.338	1	-4
664.524	1	-4
665.710	1	5
666.896	1	3
668.082	1	13
669.268	1	-6
670.454	1	2
671.640	1	-2
672.826	1	-2
674.011	1	7
675.197	1	2
676.383	1	0
677.569	1	-4
678.754	1	5
679.940	1	3
681.125	1	9
682.311	1	-14
683.496	1	3
684.682	1	2
685.867	1	2
687.053	1	2
688.238	1	9
688.746	1	0

File: GaN_sample F_spot6_UVVIS_130 K_200um_350 ms 2x2mm1_170.txt
340.368	1	6
341.565	1	3
342.763	1	5
343.960	1	-14
345.157	1	-15
346.354	1	10
347.552	1	4
348.749	1	4
349.946	1	8
351.143	1	3
352.340	1	17
353.537	1	5
354.734	1	-1
355.931	1	0
357.127	1	15
358.324	1	-6
359.521	1	-1
360.718	1	12
361.914	1	12
363.111	1	17
364.308	1	28
365.504	1	22
366.701	1	29
367.897	1	29
369.093	1	50
370.290	1	39
371.486	1	20
372.682	1	20
373.879	1	23
375.075	1	17
376.271	1	17
377.467	1	20
378.663	1	14
379.859	1	10
381.055	1	7
382.251	1	10
383.447	1	6
384.643	1	14
385.839	1	9
387.035	1	26
388.230	1	3
389.426	1	19
390.622	1	9
391.817	1	14
393.013	1	4
394.208	1	-2
395.404	1	5
396.599	1	6
397.795	1	8
398.990	1	4
400.186	1	-7
401.381	1	11
402.576	1	3
403.771	1	8
404.967	1	1
406.162	1	-1
407.357	1	8
408.552	1	-8
409.747	1	1
410.942	1	11
412.137	1	-2
413.332	1	-7
414.526	1	2
415.721	1	3
416.916	1	-2
418.111	1	9
419.305	1	10
420.500	1	9
421.695	1	4
422.889	1	11
424.084	1	7
425.278	1	-1
426.472	1	2
427.667	1	6
428.861	1	7
430.055	1	5
431.250	1	5
432.444	1	7
433.638	1	4
434.832	1	0
436.026	1	0
437.220	1	4
438.414	1	4
439.608	1	19
440.802	1	-3
441.996	1	17
443.190	1	2
444.384	1	-3
445.578	1	2
446.771	1	3
447.965	1	5
449.159	1	16
450.352	1	1
451.546	1	9
452.739	1	10
453.933	1	2
455.126	1	1
456.320	1	3
457.513	1	-2
458.706	1	10
459.899	1	5
461.093	1	4
462.286	1	9
463.479	1	17
464.672	1	5
465.865	1	3
467.058	1	8
468.251	1	3
469.444	1	-3
470.637	1	14
471.830	1	9
473.023	1	16
474.215	1	6
475.408	1	6
476.601	1	-2
477.793	1	5
478.986	1	-5
480.179	1	-3
481.371	1	12
482.564	1	1
483.756	1	-2
484.948	1	8
486.141	1	5
487.333	1	2
488.525	1	10
489.718	1	4
490.910	1	-6
492.102	1	7
493.294	1	9
494.486	1	15
495.678	1	5
496.870	1	6
498.062	1	5
499.254	1	10
500.446	1	7
501.638	1	3
502.829	1	-3
504.021	1	0
505.213	1	2
506.404	1	8
507.596	1	-3
508.788	1	1
509.979	1	10
511.171	1	18
512.362	1	6
513.553	1	17
514.745	1	7
515.936	1	25
517.127	1	10
518.319	1	2
519.510	1	3
520.701	1	6
521.892	1	18
523.083	1	8
524.274	1	15
525.465	1	16
526.656	1	12
527.847	1	10
529.038	1	8
530.229	1	18
531.419	1	14
532.610	1	2
533.801	1	19
534.991	1	7
536.182	1	19
537.373	1	16
538.563	1	22
539.754	1	7
540.944	1	18
542.134	1	2
543.325	1	8
544.515	1	9
545.705	1	6
546.896	1	10
548.086	1	2
549.276	1	-1
550.466	1	14
551.656	1	4
552.846	1	2
554.036	1	9
555.226	1	4
556.416	1	13
557.606	1	-1
558.796	1	23
559.986	1	5
561.175	1	18
562.365	1	14
563.555	1	15
564.744	1	10
565.934	1	3
567.123	1	4
568.313	1	1
569.502	1	12
570.692	1	9
571.881	1	14
573.070	1	2
574.260	1	6
575.449	1	12
576.638	1	3
577.827	1	2
579.016	1	3
580.205	1	4
581.394	1	7
582.583	1	16
583.772	1	7
584.961	1	-1
586.150	1	8
587.339	1	0
588.528	1	12
589.717	1	0
590.905	1	8
592.094	1	6
593.283	1	2
594.471	1	6
595.660	1	1
596.848	1	13
598.037	1	2
599.225	1	12
600.413	1	16
601.602	1	-2
602.790	1	7
603.978	1	12
605.166	1	17
606.355	1	7
607.543	1	3
608.731	1	8
609.919	1	7
611.107	1	1
612.295	1	-4
613.483	1	-8
614.671	1	3
615.858	1	-4
617.046	1	5
618.234	1	-3
619.422	1	3
620.609	1	-5
621.797	1	-4
622.985	1	1
624.172	1	5
625.360	1	1
626.547	1	6
627.735	1	7
628.922	1	-7
630.109	1	9
631.297	1	8
632.484	1	-4
633.671	1	-1
634.858	1	5
636.045	1	13
637.232	1	-8
638.419	1	8
639.606	1	3
640.793	1	-11
641.980	1	4
643.167	1	1
644.354	1	-3
645.541	1	1
646.728	1	4
647.914	1	2
649.101	1	-2
650.288	1	12
651.474	1	4
652.661	1	2
653.847	1	0
655.034	1	-1
656.220	1	-1
657.406	1	4
658.593	1	8
659.779	1	-1
660.965	1	0
662.152	1	3
663.338	1	-3
664.524	1	-13
665.710	1	-1
666.896	1	17
668.082	1	3
669.268	1	-8
670.454	1	6
671.640	1	-7
672.826	1	0
674.011	1	3
675.197	1	1
676.383	1	2
677.569	1	7
678.754	1	6
679.940	1	3
681.125	1	14
682.311	1	-11
683.496	1	0
684.682	1	7
685.867	1	1
687.053	1	-1
688.238	1	11
688.746	1	2

File: GaN_sample F_spot6_UVVIS_130 K_200um_350 ms 2x2mm1_172.txt
340.368	1	1
341.565	1	5
342.763	1	5
343.960	1	-5
345.157	1	-9
346.354	1	5
347.552	1	-1
348.749	1	5
349.946	1	9
351.143	1	0
352.340	1	7
353.537	1	5
354.734	1	-3
355.931	1	11
357.127	1	4
358.324	1	1
359.521	1	2
360.718	1	9
361.914	1	12
363.111	1	14
364.308	1	22
365.504	1	16
366.701	1	27
367.897	1	26
369.093	1	29
370.290	1	30
371.486	1	18
372.682	1	23
373.879	1	21
375.075	1	13
376.271	1	17
377.467	1	16
378.663	1	11
379.859	1	11
381.055	1	4
382.251	1	6
383.447	1	3
384.643	1	13
385.839	1	7
387.035	1	21
388.230	1	3
389.426	1	13
390.622	1	5
391.817	1	11
393.013	1	6
394.208	1	2
395.404	1	-7
396.599	1	8
397.795	1	-3
398.990	1	6
400.186	1	9
401.381	1	3
402.576	1	7
403.771	1	10
404.967	1	7
406.162	1	0
407.357	1	4
408.552	1	0
409.747	1	5
410.942	1	11
412.137	1	0
413.332	1	3
414.526	1	7
415.721	1	5
416.916	1	10
418.111	1	13
419.305	1	0
420.500	1	1
421.695	1	2
422.889	1	7
424.084	1	5
425.278	1	3
426.472	1	12
427.667	1	9
428.861	1	-2
430.055	1	4
431.250	1	8
432.444	1	10
433.638	1	3
434.832	1	-3
436.026	1	8
437.220	1	-2
438.414	1	3
439.608	1	14
440.802	1	-6
441.996	1	12
443.190	1	12
444.384	1	-1
445.578	1	-3
446.771	1	10
447.965	1	-3
449.159	1	10
450.352	1	12
451.546	1	9
452.739	1	6
453.933	1	1
455.126	1	2
456.320	1	2
457.513	1	1
458.706	1	0
459.899	1	-2
461.093	1	3
462.286	1	11
463.479	1	8
464.672	1	5
465.865	1	-11
467.058	1	6
468.251	1	4
469.444	1	0
470.637	1	0
471.830	1	-1
473.023	1	8
474.215	1	9
475.408	1	10
476.601	1	4
477.793	1	2
478.986	1	-4
480.179	1	0
481.371	1	9
482.564	1	1
483.756	1	3
484.948	1	-2
486.141	1	6
487.333	1	2
488.525	1	12
489.718	1	5
490.910	1	-7
492.102	1	12
493.294	1	14
494.486	1	10
495.678	1	-6
496.870	1	3
498.062	1	-6
499.254	1	8
500.446	1	5
501.638	1	5
502.829	1	0
504.021	1	3
505.213	1	4
506.404	1	-6
507.596	1	9
508.788	1	8
509.979	1	5
511.171	1	20
512.362	1	2
513.553	1	15
514.745	1	-4
515.936	1	22
517.127	1	9
518.319	1	3
519.510	1	2
520.701	1	11
521.892	1	12
523.083	1	10
524.274	1	0
525.465	1	9
526.656	1	13
527.847	1	11
529.038	1	7
530.229	1	14
531.419	1	9
532.610	1	7
533.801	1	24
534.991	1	10
536.182	1	12
537.373	1	15
538.563	1	14
539.754	1	-9
540.944	1	8
542.134	1	11
543.325	1	11
544.515	1	13
545.705	1	7
546.896	1	15
548.086	1	2
549.276	1	2
550.466	1	11
551.656	1	9
552.846	1	3
554.036	1	13
555.226	1	12
556.416	1	10
557.606	1	6
558.796	1	10
559.986	1	4
561.175	1	17
562.365	1	8
563.555	1	18
564.744	1	10
565.934	1	12
567.123	1	12
568.313	1	-2
569.502	1	9
570.692	1	4
571.881	1	6
573.070	1	7
574.260	1	-2
575.449	1	11
576.638	1	6
577.827	1	-1
579.016	1	4
580.205	1	-1
581.394	1	1
582.583	1	6
583.772	1	4
584.961	1	-2
586.150	1	5
587.339	1	7
588.528	1	17
589.717	1	2
590.905	1	9
592.094	1	4
593.283	1	-4
594.471	1	6
595.660	1	3
596.848	1	9
598.037	1	-1
599.225	1	5
600.413	1	9
601.602	1	3
602.790	1	2
603.978	1	-5
605.166	1	9
606.355	1	9
607.543	1	1
608.731	1	4
609.919	1	14
611.107	1	2
612.295	1	3
613.483	1	-11
614.671	1	-7
615.858	1	1
617.046	1	11
618.234	1	-1
619.422	1	5
620.609	1	-4
621.797	1	2
622.985	1	5
624.172	1	6
625.360	1	11
626.547	1	8
627.735	1	13
628.922	1	2
630.109	1	7
631.297	1	0
632.484	1	-5
633.671	1	3
634.858	1	5
636.045	1	15
637.232	1	-4
638.419	1	10
639.606	1	4
640.793	1	-5
641.980	1	-6
643.167	1	4
644.354	1	-1
645.541	1	3
646.728	1	9
647.914	1	5
649.101	1	-2
650.288	1	5
651.474	1	-5
652.661	1	6
653.847	1	9
655.034	1	-8
656.220	1	7
657.406	1	9
658.593	1	7
659.779	1	-4
660.965	1	1
662.152	1	6
663.338	1	3
664.524	1	2
665.710	1	4
666.896	1	5
668.082	1	3
669.268	1	2
670.454	1	5
671.640	1	-14
672.826	1	3
674.011	1	3
675.197	1	-8
676.383	1	-2
677.569	1	-3
678.754	1	0
679.940	1	-7
681.125	1	13
682.311	1	-3
683.496	1	-2
684.682	1	-2
685.867	1	4
687.053	1	9
688.238	1	9
688.746	1	2

File: GaN_sample F_spot6_UVVIS_130 K_200um_350 ms 2x2mm1_174.txt
340.368	1	8
341.565	1	1
342.763	1	-3
343.960	1	-1
345.157	1	-10
346.354	1	-1
347.552	1	-1
348.749	1	0
349.946	1	7
351.143	1	4
352.340	1	9
353.537	1	0
354.734	1	3
355.931	1	11
357.127	1	7
358.324	1	3
359.521	1	-7
360.718	1	11
361.914	1	7
363.111	1	23
364.308	1	28
365.504	1	21
366.701	1	24
367.897	1	28
369.093	1	17
370.290	1	26
371.486	1	27
372.682	1	11
373.879	1	26
375.075	1	25
376.271	1	24
377.467	1	17
378.663	1	20
379.859	1	10
381.055	1	8
382.251	1	3
383.447	1	6
384.643	1	22
385.839	1	8
387.035	1	14
388.230	1	8
389.426	1	11
390.622	1	12
391.817	1	13
393.013	1	16
394.208	1	-4
395.404	1	-12
396.599	1	14
397.795	1	6
398.990	1	8
400.186	1	3
401.381	1	8
402.576	1	8
403.771	1	14
404.967	1	13
406.162	1	6
407.357	1	5
408.552	1	7
409.747	1	4
410.942	1	11
412.137	1	14
413.332	1	3
414.526	1	0
415.721	1	8
416.916	1	2
418.111	1	8
419.305	1	7
420.500	1	6
421.695	1	2
422.889	1	13
424.084	1	11
425.278	1	-8
426.472	1	7
427.667	1	5
428.861	1	2
430.055	1	5
431.250	1	4
432.444	1	5
433.638	1	13
434.832	1	5
436.026	1	8
437.220	1	-2
438.414	1	2
439.608	1	11
440.802	1	0
441.996	1	9
443.190	1	8
444.384	1	-10
445.578	1	3
446.771	1	0
447.965	1	4
449.159	1	11
450.352	1	4
451.546	1	9
452.739	1	14
453.933	1	6
455.126	1	-6
456.320	1	-2
457.513	1	-1
458.706	1	3
459.899	1	1
461.093	1	14
462.286	1	11
463.479	1	23
464.672	1	2
465.865	1	-6
467.058	1	15
468.251	1	2
469.444	1	5
470.637	1	2
471.830	1	-1
473.023	1	5
474.215	1	2
475.408	1	15
476.601	1	-2
477.793	1	2
478.986	1	4
480.179	1	4
481.371	1	12
482.564	1	2
483.756	1	6
484.948	1	1
486.141	1	7
487.333	1	1
488.525	1	8
489.718	1	13
490.910	1	-3
492.102	1	6
493.294	1	6
494.486	1	13
495.678	1	2
496.870	1	4
498.062	1	-2
499.254	1	4
500.446	1	8
501.638	1	9
502.829	1	5
504.021	1	-1
505.213	1	5
506.404	1	2
507.596	1	0
508.788	1	-1
509.979	1	7
511.171	1	5
512.362	1	9
513.553	1	10
514.745	1	-2
515.936	1	20
517.127	1	15
518.319	1	-1
519.510	1	9
520.701	1	5
521.892	1	14
523.083	1	2
524.274	1	1
525.465	1	15
526.656	1	8
527.847	1	2
529.038	1	8
530.229	1	9
531.419	1	15
532.610	1	11
533.801	1	22
534.991	1	7
536.182	1	10
537.373	1	14
538.563	1	15
539.754	1	6
540.944	1	3
542.134	1	10
543.325	1	6
544.515	1	11
545.705	1	9
546.896	1	3
548.086	1	-2
549.276	1	-4
550.466	1	17
551.656	1	7
552.846	1	-3
554.036	1	6
555.226	1	7
556.416	1	8
557.606	1	12
558.796	1	13
559.986	1	7
561.175	1	9
562.365	1	21
563.555	1	16
564.744	1	11
565.934	1	1
567.123	1	3
568.313	1	9
569.502	1	7
570.692	1	11
571.881	1	4
573.070	1	8
574.260	1	9
575.449	1	14
576.638	1	3
577.827	1	0
579.016	1	2
580.205	1	-2
581.394	1	7
582.583	1	14
583.772	1	6
584.961	1	5
586.150	1	6
587.339	1	1
588.528	1	13
589.717	1	2
590.905	1	9
592.094	1	1
593.283	1	-9
594.471	1	6
595.660	1	7
596.848	1	11
598.037	1	2
599.225	1	8
600.413	1	5
601.602	1	-2
602.790	1	3
603.978	1	-2
605.166	1	10
606.355	1	13
607.543	1	14
608.731	1	2
609.919	1	2
611.107	1	20
612.295	1	19
613.483	1	-2
614.671	1	-3
615.858	1	-4
617.046	1	8
618.234	1	9
619.422	1	10
620.609	1	-14
621.797	1	2
622.985	1	-4
624.172	1	3
625.360	1	1
626.547	1	2
627.735	1	1
628.922	1	-3
630.109	1	10
631.297	1	-5
632.484	1	-8
633.671	1	-4
634.858	1	5
636.045	1	10
637.232	1	-1
638.419	1	10
639.606	1	15
640.793	1	-8
641.980	1	1
643.167	1	2
644.354	1	-2
645.541	1	-6
646.728	1	8
647.914	1	-1
649.101	1	-4
650.288	1	7
651.474	1	7
652.661	1	2
653.847	1	3
655.034	1	-2
656.220	1	0
657.406	1	-1
658.593	1	3
659.779	1	9
660.965	1	10
662.152	1	7
663.338	1	10
664.524	1	4
665.710	1	11
666.896	1	4
668.082	1	1
669.268	1	-3
670.454	1	5
671.640	1	-6
672.826	1	9
674.011	1	3
675.197	1	0
676.383	1	-2
677.569	1	8
678.754	1	5
679.940	1	1
681.125	1	11
682.311	1	-2
683.496	1	-9
684.682	1	3
685.867	1	-2
687.053	1	-2
688.238	1	6
688.746	1	3

File: GaN_sample F_spot6_UVVIS_130 K_200um_350 ms 2x2mm1_175.txt
340.368	1	6
341.565	1	1
342.763	1	5
343.960	1	-4
345.157	1	-8
346.354	1	-2
347.552	1	9
348.749	1	4
349.946	1	1
351.143	1	1
352.340	1	11
353.537	1	-5
354.734	1	10
355.931	1	8
357.127	1	5
358.324	1	0
359.521	1	1
360.718	1	6
361.914	1	7
363.111	1	14
364.308	1	14
365.504	1	14
366.701	1	35
367.897	1	28
369.093	1	27
370.290	1	27
371.486	1	25
372.682	1	20
373.879	1	19
375.075	1	17
376.271	1	16
377.467	1	21
378.663	1	15
379.859	1	5
381.055	1	9
382.251	1	10
383.447	1	11
384.643	1	4
385.839	1	7
387.035	1	15
388.230	1	1
389.426	1	9
390.622	1	7
391.817	1	15
393.013	1	10
394.208	1	3
395.404	1	-3
396.599	1	10
397.795	1	1
398.990	1	10
400.186	1	0
401.381	1	3
402.576	1	7
403.771	1	5
404.967	1	2
406.162	1	4
407.357	1	14
408.552	1	8
409.747	1	11
410.942	1	13
412.137	1	-6
413.332	1	-4
414.526	1	6
415.721	1	3
416.916	1	1
418.111	1	13
419.305	1	12
420.500	1	5
421.695	1	5
422.889	1	7
424.084	1	9
425.278	1	4
426.472	1	7
427.667	1	6
428.861	1	8
430.055	1	-1
431.250	1	1
432.444	1	6
433.638	1	15
434.832	1	1
436.026	1	10
437.220	1	7
438.414	1	-5
439.608	1	17
440.802	1	-1
441.996	1	12
443.190	1	7
444.384	1	-3
445.578	1	7
446.771	1	8
447.965	1	6
449.159	1	14
450.352	1	10
451.546	1	9
452.739	1	10
453.933	1	7
455.126	1	-1
456.320	1	4
457.513	1	-6
458.706	1	8
459.899	1	10
461.093	1	13
462.286	1	10
463.479	1	11
464.672	1	13
465.865	1	-7
467.058	1	8
468.251	1	7
469.444	1	0
470.637	1	5
471.830	1	5
473.023	1	8
474.215	1	5
475.408	1	4
476.601	1	1
477.793	1	10
478.986	1	0
480.179	1	-4
481.371	1	14
482.564	1	-8
483.756	1	4
484.948	1	-2
486.141	1	1
487.333	1	-6
488.525	1	9
489.718	1	6
490.910	1	3
492.102	1	12
493.294	1	14
494.486	1	14
495.678	1	2
496.870	1	5
498.062	1	-3
499.254	1	5
500.446	1	3
501.638	1	9
502.829	1	3
504.021	1	7
505.213	1	11
506.404	1	6
507.596	1	-3
508.788	1	2
509.979	1	6
511.171	1	13
512.362	1	0
513.553	1	16
514.745	1	-1
515.936	1	16
517.127	1	7
518.319	1	8
519.510	1	8
520.701	1	4
521.892	1	15
523.083	1	8
524.274	1	-1
525.465	1	15
526.656	1	9
527.847	1	15
529.038	1	-7
530.229	1	7
531.419	1	17
532.610	1	6
533.801	1	24
534.991	1	15
536.182	1	13
537.373	1	9
538.563	1	6
539.754	1	8
540.944	1	13
542.134	1	10
543.325	1	11
544.515	1	7
545.705	1	2
546.896	1	11
548.086	1	-8
549.276	1	0
550.466	1	18
551.656	1	5
552.846	1	6
554.036	1	4
555.226	1	9
556.416	1	4
557.606	1	6
558.796	1	10
559.986	1	12
561.175	1	11
562.365	1	13
563.555	1	23
564.744	1	8
565.934	1	-1
567.123	1	8
568.313	1	0
569.502	1	10
570.692	1	13
571.881	1	-6
573.070	1	6
574.260	1	5
575.449	1	9
576.638	1	-7
577.827	1	2
579.016	1	6
580.205	1	-1
581.394	1	-2
582.583	1	10
583.772	1	2
584.961	1	-1
586.150	1	15
587.339	1	5
588.528	1	12
589.717	1	5
590.905	1	14
592.094	1	2
593.283	1	1
594.471	1	3
595.660	1	4
596.848	1	17
598.037	1	8
599.225	1	7
600.413	1	11
601.602	1	3
602.790	1	6
603.978	1	6
605.166	1	11
606.355	1	11
607.543	1	9
608.731	1	5
609.919	1	6
611.107	1	3
612.295	1	14
613.483	1	7
614.671	1	5
615.858	1	0
617.046	1	2
618.234	1	3
619.422	1	4
620.609	1	-8
621.797	1	7
622.985	1	-4
624.172	1	-10
625.360	1	2
626.547	1	7
627.735	1	9
628.922	1	-5
630.109	1	10
631.297	1	-2
632.484	1	-10
633.671	1	-3
634.858	1	15
636.045	1	6
637.232	1	-5
638.419	1	-2
639.606	1	4
640.793	1	-9
641.980	1	0
643.167	1	2
644.354	1	1
645.541	1	3
646.728	1	15
647.914	1	2
649.101	1	2
650.288	1	3
651.474	1	0
652.661	1	4
653.847	1	2
655.034	1	-3
656.220	1	-1
657.406	1	1
658.593	1	1
659.779	1	1
660.965	1	0
662.152	1	0
663.338	1	1
664.524	1	2
665.710	1	1
666.896	1	1
668.082	1	7
669.268	1	9
670.454	1	-2
671.640	1	-4
672.826	1	-5
674.011	1	4
675.197	1	-3
676.383	1	5
677.569	1	3
678.754	1	8
679.940	1	4
681.125	1	4
682.311	1	-3
683.496	1	-4
684.682	1	3
685.867	1	4
687.053	1	-4
688.238	1	12
688.746	1	6