Folder: cryo-il_analysis/Data/GaN_130K_350ms (part 5)

File: GaN_sample F_spot6_UVVIS_130 K_200um_350 ms 2x2mm1_118.txt
340.368	1	4
341.565	1	-2
342.763	1	7
343.960	1	-12
345.157	1	-8
346.354	1	4
347.552	1	1
348.749	1	6
349.946	1	12
351.143	1	9
352.340	1	16
353.537	1	2
354.734	1	-3
355.931	1	9
357.127	1	17
358.324	1	13
359.521	1	14
360.718	1	18
361.914	1	32
363.111	1	37
364.308	1	45
365.504	1	51
366.701	1	64
367.897	1	68
369.093	1	70
370.290	1	67
371.486	1	57
372.682	1	41
373.879	1	54
375.075	1	46
376.271	1	29
377.467	1	33
378.663	1	29
379.859	1	23
381.055	1	14
382.251	1	21
383.447	1	21
384.643	1	18
385.839	1	27
387.035	1	28
388.230	1	16
389.426	1	21
390.622	1	9
391.817	1	26
393.013	1	15
394.208	1	12
395.404	1	0
396.599	1	4
397.795	1	6
398.990	1	4
400.186	1	7
401.381	1	13
402.576	1	6
403.771	1	15
404.967	1	15
406.162	1	6
407.357	1	15
408.552	1	5
409.747	1	6
410.942	1	13
412.137	1	-1
413.332	1	5
414.526	1	5
415.721	1	9
416.916	1	5
418.111	1	11
419.305	1	15
420.500	1	9
421.695	1	9
422.889	1	7
424.084	1	5
425.278	1	6
426.472	1	8
427.667	1	16
428.861	1	9
430.055	1	13
431.250	1	13
432.444	1	12
433.638	1	20
434.832	1	5
436.026	1	13
437.220	1	-1
438.414	1	-4
439.608	1	10
440.802	1	-3
441.996	1	16
443.190	1	13
444.384	1	-1
445.578	1	-3
446.771	1	4
447.965	1	5
449.159	1	16
450.352	1	14
451.546	1	10
452.739	1	2
453.933	1	5
455.126	1	1
456.320	1	2
457.513	1	-3
458.706	1	7
459.899	1	-1
461.093	1	13
462.286	1	7
463.479	1	1
464.672	1	12
465.865	1	4
467.058	1	7
468.251	1	8
469.444	1	-4
470.637	1	15
471.830	1	13
473.023	1	0
474.215	1	0
475.408	1	5
476.601	1	14
477.793	1	5
478.986	1	3
480.179	1	6
481.371	1	15
482.564	1	-1
483.756	1	5
484.948	1	8
486.141	1	2
487.333	1	-2
488.525	1	14
489.718	1	11
490.910	1	4
492.102	1	23
493.294	1	17
494.486	1	26
495.678	1	11
496.870	1	21
498.062	1	4
499.254	1	20
500.446	1	8
501.638	1	14
502.829	1	22
504.021	1	13
505.213	1	17
506.404	1	20
507.596	1	14
508.788	1	12
509.979	1	10
511.171	1	21
512.362	1	14
513.553	1	20
514.745	1	15
515.936	1	31
517.127	1	23
518.319	1	15
519.510	1	29
520.701	1	24
521.892	1	27
523.083	1	24
524.274	1	19
525.465	1	24
526.656	1	18
527.847	1	22
529.038	1	11
530.229	1	20
531.419	1	35
532.610	1	22
533.801	1	32
534.991	1	29
536.182	1	27
537.373	1	27
538.563	1	42
539.754	1	18
540.944	1	31
542.134	1	22
543.325	1	22
544.515	1	25
545.705	1	24
546.896	1	36
548.086	1	12
549.276	1	8
550.466	1	27
551.656	1	26
552.846	1	21
554.036	1	16
555.226	1	26
556.416	1	31
557.606	1	16
558.796	1	23
559.986	1	17
561.175	1	21
562.365	1	20
563.555	1	20
564.744	1	12
565.934	1	14
567.123	1	8
568.313	1	6
569.502	1	4
570.692	1	18
571.881	1	9
573.070	1	16
574.260	1	15
575.449	1	11
576.638	1	11
577.827	1	8
579.016	1	12
580.205	1	-2
581.394	1	3
582.583	1	15
583.772	1	14
584.961	1	14
586.150	1	19
587.339	1	8
588.528	1	24
589.717	1	6
590.905	1	8
592.094	1	4
593.283	1	-6
594.471	1	14
595.660	1	5
596.848	1	16
598.037	1	6
599.225	1	2
600.413	1	10
601.602	1	5
602.790	1	3
603.978	1	10
605.166	1	10
606.355	1	10
607.543	1	11
608.731	1	1
609.919	1	16
611.107	1	13
612.295	1	9
613.483	1	-1
614.671	1	15
615.858	1	2
617.046	1	15
618.234	1	8
619.422	1	3
620.609	1	4
621.797	1	-2
622.985	1	14
624.172	1	3
625.360	1	4
626.547	1	11
627.735	1	10
628.922	1	-3
630.109	1	8
631.297	1	7
632.484	1	2
633.671	1	-1
634.858	1	11
636.045	1	10
637.232	1	-3
638.419	1	9
639.606	1	9
640.793	1	-6
641.980	1	-1
643.167	1	6
644.354	1	1
645.541	1	-3
646.728	1	14
647.914	1	3
649.101	1	0
650.288	1	4
651.474	1	-2
652.661	1	7
653.847	1	5
655.034	1	3
656.220	1	-1
657.406	1	11
658.593	1	10
659.779	1	11
660.965	1	8
662.152	1	9
663.338	1	8
664.524	1	-3
665.710	1	0
666.896	1	5
668.082	1	9
669.268	1	5
670.454	1	1
671.640	1	-1
672.826	1	7
674.011	1	0
675.197	1	-2
676.383	1	11
677.569	1	-5
678.754	1	11
679.940	1	1
681.125	1	2
682.311	1	-8
683.496	1	5
684.682	1	-3
685.867	1	5
687.053	1	-1
688.238	1	13
688.746	1	6

File: GaN_sample F_spot6_UVVIS_130 K_200um_350 ms 2x2mm1_119.txt
340.368	1	4
341.565	1	2
342.763	1	3
343.960	1	-3
345.157	1	-7
346.354	1	-2
347.552	1	1
348.749	1	8
349.946	1	2
351.143	1	2
352.340	1	17
353.537	1	2
354.734	1	17
355.931	1	9
357.127	1	15
358.324	1	14
359.521	1	14
360.718	1	21
361.914	1	18
363.111	1	34
364.308	1	48
365.504	1	55
366.701	1	65
367.897	1	64
369.093	1	65
370.290	1	64
371.486	1	54
372.682	1	40
373.879	1	45
375.075	1	42
376.271	1	30
377.467	1	37
378.663	1	23
379.859	1	18
381.055	1	19
382.251	1	18
383.447	1	18
384.643	1	15
385.839	1	17
387.035	1	26
388.230	1	10
389.426	1	22
390.622	1	12
391.817	1	26
393.013	1	17
394.208	1	6
395.404	1	9
396.599	1	8
397.795	1	-5
398.990	1	11
400.186	1	5
401.381	1	18
402.576	1	3
403.771	1	16
404.967	1	16
406.162	1	5
407.357	1	18
408.552	1	0
409.747	1	6
410.942	1	6
412.137	1	7
413.332	1	6
414.526	1	14
415.721	1	9
416.916	1	-3
418.111	1	15
419.305	1	8
420.500	1	3
421.695	1	8
422.889	1	16
424.084	1	14
425.278	1	3
426.472	1	1
427.667	1	15
428.861	1	-1
430.055	1	1
431.250	1	17
432.444	1	17
433.638	1	11
434.832	1	7
436.026	1	14
437.220	1	4
438.414	1	7
439.608	1	11
440.802	1	-4
441.996	1	13
443.190	1	1
444.384	1	-11
445.578	1	-1
446.771	1	9
447.965	1	4
449.159	1	9
450.352	1	14
451.546	1	8
452.739	1	1
453.933	1	7
455.126	1	-3
456.320	1	8
457.513	1	10
458.706	1	13
459.899	1	8
461.093	1	9
462.286	1	5
463.479	1	14
464.672	1	9
465.865	1	-4
467.058	1	10
468.251	1	3
469.444	1	-8
470.637	1	10
471.830	1	7
473.023	1	11
474.215	1	2
475.408	1	5
476.601	1	3
477.793	1	9
478.986	1	-3
480.179	1	2
481.371	1	8
482.564	1	1
483.756	1	5
484.948	1	3
486.141	1	6
487.333	1	-6
488.525	1	8
489.718	1	11
490.910	1	-2
492.102	1	21
493.294	1	16
494.486	1	21
495.678	1	15
496.870	1	17
498.062	1	10
499.254	1	28
500.446	1	18
501.638	1	20
502.829	1	13
504.021	1	14
505.213	1	22
506.404	1	17
507.596	1	20
508.788	1	11
509.979	1	17
511.171	1	25
512.362	1	22
513.553	1	23
514.745	1	11
515.936	1	37
517.127	1	19
518.319	1	13
519.510	1	21
520.701	1	17
521.892	1	36
523.083	1	31
524.274	1	25
525.465	1	33
526.656	1	41
527.847	1	21
529.038	1	22
530.229	1	42
531.419	1	23
532.610	1	17
533.801	1	40
534.991	1	25
536.182	1	32
537.373	1	25
538.563	1	20
539.754	1	17
540.944	1	30
542.134	1	26
543.325	1	16
544.515	1	23
545.705	1	16
546.896	1	19
548.086	1	6
549.276	1	6
550.466	1	15
551.656	1	19
552.846	1	15
554.036	1	21
555.226	1	21
556.416	1	17
557.606	1	19
558.796	1	27
559.986	1	20
561.175	1	30
562.365	1	13
563.555	1	17
564.744	1	12
565.934	1	13
567.123	1	12
568.313	1	12
569.502	1	11
570.692	1	23
571.881	1	5
573.070	1	6
574.260	1	8
575.449	1	12
576.638	1	7
577.827	1	4
579.016	1	7
580.205	1	5
581.394	1	10
582.583	1	19
583.772	1	9
584.961	1	3
586.150	1	15
587.339	1	10
588.528	1	19
589.717	1	18
590.905	1	18
592.094	1	12
593.283	1	1
594.471	1	13
595.660	1	10
596.848	1	14
598.037	1	17
599.225	1	10
600.413	1	10
601.602	1	-2
602.790	1	-5
603.978	1	6
605.166	1	9
606.355	1	7
607.543	1	10
608.731	1	3
609.919	1	6
611.107	1	14
612.295	1	11
613.483	1	-2
614.671	1	11
615.858	1	-1
617.046	1	10
618.234	1	5
619.422	1	12
620.609	1	-1
621.797	1	0
622.985	1	19
624.172	1	2
625.360	1	1
626.547	1	13
627.735	1	6
628.922	1	3
630.109	1	9
631.297	1	5
632.484	1	-4
633.671	1	-5
634.858	1	2
636.045	1	18
637.232	1	-7
638.419	1	7
639.606	1	5
640.793	1	-1
641.980	1	0
643.167	1	13
644.354	1	-5
645.541	1	-1
646.728	1	9
647.914	1	1
649.101	1	-4
650.288	1	14
651.474	1	1
652.661	1	-13
653.847	1	6
655.034	1	4
656.220	1	0
657.406	1	9
658.593	1	4
659.779	1	9
660.965	1	5
662.152	1	-2
663.338	1	2
664.524	1	3
665.710	1	3
666.896	1	4
668.082	1	5
669.268	1	-6
670.454	1	3
671.640	1	-13
672.826	1	5
674.011	1	0
675.197	1	-9
676.383	1	10
677.569	1	5
678.754	1	10
679.940	1	4
681.125	1	8
682.311	1	-6
683.496	1	4
684.682	1	3
685.867	1	-2
687.053	1	7
688.238	1	9
688.746	1	7

File: GaN_sample F_spot6_UVVIS_130 K_200um_350 ms 2x2mm1_120.txt
340.368	1	7
341.565	1	-6
342.763	1	10
343.960	1	-3
345.157	1	-6
346.354	1	-1
347.552	1	5
348.749	1	14
349.946	1	11
351.143	1	5
352.340	1	11
353.537	1	2
354.734	1	5
355.931	1	12
357.127	1	8
358.324	1	8
359.521	1	9
360.718	1	27
361.914	1	22
363.111	1	40
364.308	1	49
365.504	1	50
366.701	1	66
367.897	1	67
369.093	1	64
370.290	1	57
371.486	1	47
372.682	1	40
373.879	1	45
375.075	1	35
376.271	1	33
377.467	1	38
378.663	1	26
379.859	1	18
381.055	1	16
382.251	1	11
383.447	1	16
384.643	1	21
385.839	1	16
387.035	1	26
388.230	1	14
389.426	1	21
390.622	1	25
391.817	1	18
393.013	1	19
394.208	1	8
395.404	1	11
396.599	1	15
397.795	1	0
398.990	1	11
400.186	1	2
401.381	1	17
402.576	1	14
403.771	1	9
404.967	1	8
406.162	1	6
407.357	1	11
408.552	1	1
409.747	1	4
410.942	1	19
412.137	1	4
413.332	1	0
414.526	1	8
415.721	1	7
416.916	1	6
418.111	1	16
419.305	1	0
420.500	1	9
421.695	1	10
422.889	1	1
424.084	1	15
425.278	1	-7
426.472	1	6
427.667	1	17
428.861	1	-3
430.055	1	-1
431.250	1	13
432.444	1	15
433.638	1	10
434.832	1	7
436.026	1	6
437.220	1	6
438.414	1	8
439.608	1	9
440.802	1	-1
441.996	1	8
443.190	1	3
444.384	1	4
445.578	1	0
446.771	1	9
447.965	1	7
449.159	1	12
450.352	1	11
451.546	1	14
452.739	1	13
453.933	1	6
455.126	1	4
456.320	1	-1
457.513	1	-7
458.706	1	14
459.899	1	3
461.093	1	5
462.286	1	10
463.479	1	10
464.672	1	16
465.865	1	-5
467.058	1	8
468.251	1	8
469.444	1	3
470.637	1	10
471.830	1	4
473.023	1	10
474.215	1	0
475.408	1	12
476.601	1	-2
477.793	1	8
478.986	1	14
480.179	1	-4
481.371	1	7
482.564	1	-1
483.756	1	-3
484.948	1	16
486.141	1	12
487.333	1	2
488.525	1	17
489.718	1	13
490.910	1	-3
492.102	1	7
493.294	1	9
494.486	1	23
495.678	1	7
496.870	1	12
498.062	1	11
499.254	1	16
500.446	1	12
501.638	1	12
502.829	1	11
504.021	1	14
505.213	1	17
506.404	1	16
507.596	1	16
508.788	1	19
509.979	1	19
511.171	1	25
512.362	1	16
513.553	1	23
514.745	1	18
515.936	1	30
517.127	1	22
518.319	1	19
519.510	1	20
520.701	1	27
521.892	1	37
523.083	1	24
524.274	1	19
525.465	1	29
526.656	1	26
527.847	1	25
529.038	1	16
530.229	1	20
531.419	1	20
532.610	1	22
533.801	1	37
534.991	1	24
536.182	1	21
537.373	1	20
538.563	1	25
539.754	1	24
540.944	1	22
542.134	1	19
543.325	1	26
544.515	1	21
545.705	1	23
546.896	1	28
548.086	1	18
549.276	1	17
550.466	1	32
551.656	1	29
552.846	1	15
554.036	1	25
555.226	1	24
556.416	1	11
557.606	1	16
558.796	1	25
559.986	1	11
561.175	1	16
562.365	1	24
563.555	1	25
564.744	1	14
565.934	1	9
567.123	1	9
568.313	1	5
569.502	1	15
570.692	1	21
571.881	1	6
573.070	1	10
574.260	1	15
575.449	1	1
576.638	1	3
577.827	1	5
579.016	1	6
580.205	1	6
581.394	1	2
582.583	1	23
583.772	1	9
584.961	1	-4
586.150	1	16
587.339	1	7
588.528	1	17
589.717	1	-3
590.905	1	16
592.094	1	8
593.283	1	2
594.471	1	9
595.660	1	6
596.848	1	13
598.037	1	12
599.225	1	13
600.413	1	9
601.602	1	1
602.790	1	0
603.978	1	4
605.166	1	9
606.355	1	16
607.543	1	-5
608.731	1	5
609.919	1	7
611.107	1	9
612.295	1	11
613.483	1	3
614.671	1	4
615.858	1	2
617.046	1	5
618.234	1	2
619.422	1	3
620.609	1	-3
621.797	1	2
622.985	1	12
624.172	1	-3
625.360	1	3
626.547	1	1
627.735	1	10
628.922	1	-3
630.109	1	11
631.297	1	5
632.484	1	-8
633.671	1	-5
634.858	1	7
636.045	1	13
637.232	1	1
638.419	1	11
639.606	1	3
640.793	1	-6
641.980	1	1
643.167	1	3
644.354	1	0
645.541	1	2
646.728	1	7
647.914	1	3
649.101	1	1
650.288	1	2
651.474	1	-6
652.661	1	0
653.847	1	8
655.034	1	5
656.220	1	-2
657.406	1	11
658.593	1	3
659.779	1	4
660.965	1	-1
662.152	1	5
663.338	1	2
664.524	1	3
665.710	1	13
666.896	1	4
668.082	1	1
669.268	1	8
670.454	1	0
671.640	1	-1
672.826	1	3
674.011	1	7
675.197	1	0
676.383	1	15
677.569	1	4
678.754	1	10
679.940	1	2
681.125	1	7
682.311	1	4
683.496	1	4
684.682	1	6
685.867	1	2
687.053	1	6
688.238	1	4
688.746	1	6

File: GaN_sample F_spot6_UVVIS_130 K_200um_350 ms 2x2mm1_121.txt
340.368	1	7
341.565	1	7
342.763	1	2
343.960	1	-12
345.157	1	-1
346.354	1	14
347.552	1	5
348.749	1	8
349.946	1	10
351.143	1	8
352.340	1	17
353.537	1	-1
354.734	1	11
355.931	1	9
357.127	1	2
358.324	1	7
359.521	1	13
360.718	1	28
361.914	1	27
363.111	1	38
364.308	1	50
365.504	1	53
366.701	1	62
367.897	1	65
369.093	1	66
370.290	1	64
371.486	1	50
372.682	1	46
373.879	1	32
375.075	1	44
376.271	1	40
377.467	1	36
378.663	1	19
379.859	1	20
381.055	1	13
382.251	1	13
383.447	1	19
384.643	1	16
385.839	1	24
387.035	1	24
388.230	1	10
389.426	1	17
390.622	1	9
391.817	1	15
393.013	1	12
394.208	1	5
395.404	1	-1
396.599	1	13
397.795	1	8
398.990	1	3
400.186	1	5
401.381	1	8
402.576	1	9
403.771	1	12
404.967	1	14
406.162	1	4
407.357	1	2
408.552	1	12
409.747	1	7
410.942	1	3
412.137	1	7
413.332	1	2
414.526	1	0
415.721	1	4
416.916	1	3
418.111	1	23
419.305	1	5
420.500	1	10
421.695	1	9
422.889	1	12
424.084	1	15
425.278	1	7
426.472	1	9
427.667	1	-1
428.861	1	3
430.055	1	6
431.250	1	9
432.444	1	10
433.638	1	6
434.832	1	7
436.026	1	11
437.220	1	1
438.414	1	-8
439.608	1	14
440.802	1	-4
441.996	1	12
443.190	1	11
444.384	1	6
445.578	1	3
446.771	1	18
447.965	1	8
449.159	1	11
450.352	1	8
451.546	1	5
452.739	1	11
453.933	1	11
455.126	1	-2
456.320	1	5
457.513	1	-7
458.706	1	14
459.899	1	2
461.093	1	16
462.286	1	10
463.479	1	14
464.672	1	6
465.865	1	-2
467.058	1	4
468.251	1	14
469.444	1	7
470.637	1	10
471.830	1	2
473.023	1	13
474.215	1	8
475.408	1	6
476.601	1	3
477.793	1	5
478.986	1	0
480.179	1	8
481.371	1	8
482.564	1	7
483.756	1	9
484.948	1	1
486.141	1	1
487.333	1	4
488.525	1	9
489.718	1	16
490.910	1	-3
492.102	1	11
493.294	1	12
494.486	1	23
495.678	1	2
496.870	1	9
498.062	1	4
499.254	1	14
500.446	1	11
501.638	1	13
502.829	1	13
504.021	1	16
505.213	1	25
506.404	1	12
507.596	1	18
508.788	1	25
509.979	1	22
511.171	1	19
512.362	1	17
513.553	1	27
514.745	1	24
515.936	1	25
517.127	1	22
518.319	1	17
519.510	1	21
520.701	1	16
521.892	1	26
523.083	1	16
524.274	1	10
525.465	1	30
526.656	1	29
527.847	1	22
529.038	1	16
530.229	1	29
531.419	1	36
532.610	1	20
533.801	1	37
534.991	1	22
536.182	1	26
537.373	1	24
538.563	1	34
539.754	1	17
540.944	1	39
542.134	1	25
543.325	1	19
544.515	1	28
545.705	1	25
546.896	1	25
548.086	1	20
549.276	1	21
550.466	1	31
551.656	1	17
552.846	1	22
554.036	1	17
555.226	1	17
556.416	1	21
557.606	1	14
558.796	1	26
559.986	1	12
561.175	1	15
562.365	1	24
563.555	1	21
564.744	1	3
565.934	1	18
567.123	1	11
568.313	1	10
569.502	1	5
570.692	1	14
571.881	1	9
573.070	1	17
574.260	1	16
575.449	1	16
576.638	1	4
577.827	1	-1
579.016	1	11
580.205	1	7
581.394	1	7
582.583	1	19
583.772	1	11
584.961	1	4
586.150	1	12
587.339	1	10
588.528	1	20
589.717	1	7
590.905	1	11
592.094	1	6
593.283	1	4
594.471	1	7
595.660	1	5
596.848	1	6
598.037	1	8
599.225	1	5
600.413	1	17
601.602	1	4
602.790	1	1
603.978	1	3
605.166	1	18
606.355	1	12
607.543	1	0
608.731	1	5
609.919	1	18
611.107	1	5
612.295	1	9
613.483	1	-1
614.671	1	4
615.858	1	-10
617.046	1	8
618.234	1	4
619.422	1	10
620.609	1	-4
621.797	1	4
622.985	1	6
624.172	1	2
625.360	1	11
626.547	1	5
627.735	1	10
628.922	1	7
630.109	1	10
631.297	1	-8
632.484	1	2
633.671	1	-4
634.858	1	6
636.045	1	22
637.232	1	-2
638.419	1	1
639.606	1	10
640.793	1	-11
641.980	1	3
643.167	1	11
644.354	1	-3
645.541	1	0
646.728	1	5
647.914	1	-6
649.101	1	0
650.288	1	11
651.474	1	-6
652.661	1	1
653.847	1	16
655.034	1	2
656.220	1	2
657.406	1	4
658.593	1	3
659.779	1	2
660.965	1	-1
662.152	1	2
663.338	1	4
664.524	1	2
665.710	1	2
666.896	1	1
668.082	1	4
669.268	1	8
670.454	1	-4
671.640	1	-10
672.826	1	9
674.011	1	11
675.197	1	-2
676.383	1	11
677.569	1	-6
678.754	1	5
679.940	1	4
681.125	1	11
682.311	1	-4
683.496	1	0
684.682	1	3
685.867	1	2
687.053	1	5
688.238	1	10
688.746	1	18

File: GaN_sample F_spot6_UVVIS_130 K_200um_350 ms 2x2mm1_122.txt
340.368	1	7
341.565	1	2
342.763	1	4
343.960	1	-4
345.157	1	-6
346.354	1	11
347.552	1	7
348.749	1	0
349.946	1	12
351.143	1	4
352.340	1	14
353.537	1	4
354.734	1	8
355.931	1	10
357.127	1	12
358.324	1	9
359.521	1	6
360.718	1	17
361.914	1	30
363.111	1	45
364.308	1	49
365.504	1	51
366.701	1	58
367.897	1	65
369.093	1	61
370.290	1	58
371.486	1	47
372.682	1	48
373.879	1	48
375.075	1	42
376.271	1	27
377.467	1	30
378.663	1	20
379.859	1	26
381.055	1	15
382.251	1	23
383.447	1	11
384.643	1	23
385.839	1	14
387.035	1	23
388.230	1	10
389.426	1	8
390.622	1	17
391.817	1	24
393.013	1	17
394.208	1	11
395.404	1	5
396.599	1	12
397.795	1	5
398.990	1	3
400.186	1	6
401.381	1	8
402.576	1	0
403.771	1	6
404.967	1	2
406.162	1	1
407.357	1	16
408.552	1	2
409.747	1	7
410.942	1	-1
412.137	1	-2
413.332	1	-3
414.526	1	8
415.721	1	1
416.916	1	12
418.111	1	9
419.305	1	-4
420.500	1	9
421.695	1	4
422.889	1	12
424.084	1	14
425.278	1	4
426.472	1	2
427.667	1	11
428.861	1	4
430.055	1	4
431.250	1	11
432.444	1	11
433.638	1	2
434.832	1	9
436.026	1	7
437.220	1	4
438.414	1	6
439.608	1	12
440.802	1	-1
441.996	1	12
443.190	1	8
444.384	1	2
445.578	1	6
446.771	1	10
447.965	1	3
449.159	1	11
450.352	1	7
451.546	1	12
452.739	1	11
453.933	1	9
455.126	1	-11
456.320	1	8
457.513	1	-4
458.706	1	8
459.899	1	0
461.093	1	5
462.286	1	7
463.479	1	10
464.672	1	-3
465.865	1	-1
467.058	1	15
468.251	1	7
469.444	1	2
470.637	1	-1
471.830	1	6
473.023	1	13
474.215	1	3
475.408	1	9
476.601	1	10
477.793	1	2
478.986	1	3
480.179	1	-2
481.371	1	0
482.564	1	6
483.756	1	8
484.948	1	0
486.141	1	4
487.333	1	5
488.525	1	17
489.718	1	8
490.910	1	3
492.102	1	17
493.294	1	16
494.486	1	15
495.678	1	3
496.870	1	7
498.062	1	3
499.254	1	11
500.446	1	13
501.638	1	14
502.829	1	18
504.021	1	21
505.213	1	14
506.404	1	16
507.596	1	14
508.788	1	7
509.979	1	15
511.171	1	29
512.362	1	8
513.553	1	23
514.745	1	22
515.936	1	26
517.127	1	23
518.319	1	17
519.510	1	23
520.701	1	23
521.892	1	24
523.083	1	39
524.274	1	13
525.465	1	21
526.656	1	24
527.847	1	27
529.038	1	9
530.229	1	26
531.419	1	21
532.610	1	25
533.801	1	42
534.991	1	28
536.182	1	30
537.373	1	24
538.563	1	25
539.754	1	14
540.944	1	17
542.134	1	18
543.325	1	29
544.515	1	32
545.705	1	12
546.896	1	18
548.086	1	14
549.276	1	13
550.466	1	18
551.656	1	22
552.846	1	11
554.036	1	14
555.226	1	17
556.416	1	20
557.606	1	11
558.796	1	26
559.986	1	15
561.175	1	21
562.365	1	17
563.555	1	26
564.744	1	24
565.934	1	13
567.123	1	13
568.313	1	15
569.502	1	9
570.692	1	18
571.881	1	4
573.070	1	4
574.260	1	10
575.449	1	17
576.638	1	9
577.827	1	4
579.016	1	9
580.205	1	8
581.394	1	9
582.583	1	17
583.772	1	6
584.961	1	4
586.150	1	15
587.339	1	5
588.528	1	10
589.717	1	6
590.905	1	9
592.094	1	7
593.283	1	0
594.471	1	13
595.660	1	7
596.848	1	1
598.037	1	10
599.225	1	3
600.413	1	9
601.602	1	0
602.790	1	5
603.978	1	4
605.166	1	5
606.355	1	19
607.543	1	6
608.731	1	10
609.919	1	9
611.107	1	-3
612.295	1	8
613.483	1	1
614.671	1	10
615.858	1	-3
617.046	1	1
618.234	1	7
619.422	1	7
620.609	1	-1
621.797	1	4
622.985	1	12
624.172	1	-1
625.360	1	9
626.547	1	6
627.735	1	15
628.922	1	-7
630.109	1	16
631.297	1	10
632.484	1	-1
633.671	1	-3
634.858	1	8
636.045	1	18
637.232	1	-4
638.419	1	3
639.606	1	11
640.793	1	-11
641.980	1	-4
643.167	1	3
644.354	1	-5
645.541	1	9
646.728	1	9
647.914	1	5
649.101	1	3
650.288	1	12
651.474	1	0
652.661	1	0
653.847	1	4
655.034	1	4
656.220	1	6
657.406	1	0
658.593	1	-7
659.779	1	12
660.965	1	5
662.152	1	5
663.338	1	-3
664.524	1	2
665.710	1	8
666.896	1	1
668.082	1	5
669.268	1	3
670.454	1	-6
671.640	1	-6
672.826	1	1
674.011	1	5
675.197	1	4
676.383	1	3
677.569	1	3
678.754	1	1
679.940	1	6
681.125	1	9
682.311	1	-1
683.496	1	6
684.682	1	-5
685.867	1	1
687.053	1	3
688.238	1	6
688.746	1	18

File: GaN_sample F_spot6_UVVIS_130 K_200um_350 ms 2x2mm1_123.txt
340.368	1	10
341.565	1	-3
342.763	1	3
343.960	1	-10
345.157	1	-13
346.354	1	5
347.552	1	-3
348.749	1	5
349.946	1	3
351.143	1	5
352.340	1	12
353.537	1	2
354.734	1	9
355.931	1	9
357.127	1	11
358.324	1	13
359.521	1	12
360.718	1	31
361.914	1	21
363.111	1	42
364.308	1	40
365.504	1	61
366.701	1	53
367.897	1	53
369.093	1	66
370.290	1	60
371.486	1	43
372.682	1	36
373.879	1	52
375.075	1	33
376.271	1	31
377.467	1	26
378.663	1	25
379.859	1	21
381.055	1	14
382.251	1	15
383.447	1	25
384.643	1	12
385.839	1	11
387.035	1	20
388.230	1	7
389.426	1	19
390.622	1	9
391.817	1	13
393.013	1	22
394.208	1	-3
395.404	1	5
396.599	1	23
397.795	1	4
398.990	1	8
400.186	1	7
401.381	1	8
402.576	1	4
403.771	1	11
404.967	1	6
406.162	1	14
407.357	1	7
408.552	1	8
409.747	1	3
410.942	1	15
412.137	1	-2
413.332	1	0
414.526	1	16
415.721	1	5
416.916	1	6
418.111	1	11
419.305	1	-1
420.500	1	9
421.695	1	5
422.889	1	7
424.084	1	14
425.278	1	4
426.472	1	4
427.667	1	7
428.861	1	8
430.055	1	4
431.250	1	16
432.444	1	14
433.638	1	13
434.832	1	3
436.026	1	10
437.220	1	0
438.414	1	5
439.608	1	15
440.802	1	1
441.996	1	14
443.190	1	8
444.384	1	3
445.578	1	5
446.771	1	4
447.965	1	-5
449.159	1	13
450.352	1	15
451.546	1	16
452.739	1	1
453.933	1	9
455.126	1	-2
456.320	1	4
457.513	1	2
458.706	1	6
459.899	1	10
461.093	1	12
462.286	1	6
463.479	1	11
464.672	1	19
465.865	1	-4
467.058	1	4
468.251	1	12
469.444	1	1
470.637	1	12
471.830	1	0
473.023	1	8
474.215	1	12
475.408	1	7
476.601	1	8
477.793	1	-2
478.986	1	2
480.179	1	1
481.371	1	7
482.564	1	10
483.756	1	3
484.948	1	9
486.141	1	6
487.333	1	1
488.525	1	4
489.718	1	10
490.910	1	1
492.102	1	17
493.294	1	14
494.486	1	14
495.678	1	9
496.870	1	6
498.062	1	2
499.254	1	18
500.446	1	16
501.638	1	15
502.829	1	11
504.021	1	15
505.213	1	13
506.404	1	10
507.596	1	18
508.788	1	13
509.979	1	14
511.171	1	26
512.362	1	13
513.553	1	26
514.745	1	15
515.936	1	24
517.127	1	27
518.319	1	9
519.510	1	27
520.701	1	23
521.892	1	21
523.083	1	19
524.274	1	21
525.465	1	27
526.656	1	22
527.847	1	15
529.038	1	12
530.229	1	24
531.419	1	22
532.610	1	23
533.801	1	39
534.991	1	16
536.182	1	36
537.373	1	30
538.563	1	32
539.754	1	23
540.944	1	20
542.134	1	10
543.325	1	22
544.515	1	23
545.705	1	25
546.896	1	25
548.086	1	18
549.276	1	17
550.466	1	22
551.656	1	12
552.846	1	8
554.036	1	17
555.226	1	12
556.416	1	26
557.606	1	12
558.796	1	21
559.986	1	12
561.175	1	23
562.365	1	18
563.555	1	17
564.744	1	14
565.934	1	10
567.123	1	15
568.313	1	10
569.502	1	7
570.692	1	23
571.881	1	9
573.070	1	6
574.260	1	12
575.449	1	7
576.638	1	-1
577.827	1	3
579.016	1	5
580.205	1	8
581.394	1	14
582.583	1	18
583.772	1	9
584.961	1	8
586.150	1	12
587.339	1	9
588.528	1	18
589.717	1	4
590.905	1	13
592.094	1	12
593.283	1	1
594.471	1	6
595.660	1	4
596.848	1	9
598.037	1	9
599.225	1	3
600.413	1	22
601.602	1	5
602.790	1	8
603.978	1	0
605.166	1	3
606.355	1	14
607.543	1	4
608.731	1	11
609.919	1	15
611.107	1	12
612.295	1	3
613.483	1	1
614.671	1	13
615.858	1	6
617.046	1	12
618.234	1	3
619.422	1	4
620.609	1	-3
621.797	1	1
622.985	1	6
624.172	1	0
625.360	1	5
626.547	1	4
627.735	1	-3
628.922	1	-9
630.109	1	10
631.297	1	2
632.484	1	-8
633.671	1	-3
634.858	1	10
636.045	1	18
637.232	1	-3
638.419	1	10
639.606	1	9
640.793	1	-8
641.980	1	-1
643.167	1	6
644.354	1	-5
645.541	1	6
646.728	1	10
647.914	1	2
649.101	1	2
650.288	1	2
651.474	1	4
652.661	1	2
653.847	1	-9
655.034	1	4
656.220	1	-5
657.406	1	6
658.593	1	7
659.779	1	2
660.965	1	2
662.152	1	-8
663.338	1	-3
664.524	1	3
665.710	1	7
666.896	1	9
668.082	1	11
669.268	1	-3
670.454	1	-3
671.640	1	-4
672.826	1	6
674.011	1	2
675.197	1	9
676.383	1	2
677.569	1	0
678.754	1	8
679.940	1	7
681.125	1	9
682.311	1	-6
683.496	1	-3
684.682	1	4
685.867	1	1
687.053	1	3
688.238	1	15
688.746	1	6