Folder: cryo-il_analysis/Data/GaN_200K_800ms (part 45)

File: GaN_sample F_spot 12_UVVIS_200 K_200um_800 ms 2x2mm1_541.txt
340.368	1	3
341.565	1	-8
342.763	1	2
343.960	1	-1
345.157	1	-7
346.354	1	3
347.552	1	-5
348.749	1	-5
349.946	1	-1
351.143	1	-4
352.340	1	1
353.537	1	2
354.734	1	-4
355.931	1	11
357.127	1	-2
358.324	1	-2
359.521	1	3
360.718	1	-4
361.914	1	-1
363.111	1	-7
364.308	1	4
365.504	1	7
366.701	1	-1
367.897	1	9
369.093	1	5
370.290	1	10
371.486	1	17
372.682	1	8
373.879	1	-1
375.075	1	-5
376.271	1	0
377.467	1	6
378.663	1	-3
379.859	1	1
381.055	1	5
382.251	1	-2
383.447	1	-6
384.643	1	11
385.839	1	-4
387.035	1	-6
388.230	1	7
389.426	1	2
390.622	1	-5
391.817	1	-5
393.013	1	-1
394.208	1	-7
395.404	1	-11
396.599	1	-6
397.795	1	7
398.990	1	-7
400.186	1	0
401.381	1	-5
402.576	1	2
403.771	1	-3
404.967	1	4
406.162	1	-1
407.357	1	-2
408.552	1	-9
409.747	1	-4
410.942	1	8
412.137	1	0
413.332	1	2
414.526	1	-9
415.721	1	8
416.916	1	-7
418.111	1	0
419.305	1	0
420.500	1	-4
421.695	1	-5
422.889	1	-4
424.084	1	-1
425.278	1	-1
426.472	1	-4
427.667	1	11
428.861	1	-2
430.055	1	-3
431.250	1	-8
432.444	1	8
433.638	1	3
434.832	1	-4
436.026	1	9
437.220	1	1
438.414	1	-9
439.608	1	-6
440.802	1	-5
441.996	1	5
443.190	1	5
444.384	1	-3
445.578	1	-5
446.771	1	8
447.965	1	-1
449.159	1	-7
450.352	1	2
451.546	1	-7
452.739	1	1
453.933	1	2
455.126	1	-14
456.320	1	-5
457.513	1	8
458.706	1	2
459.899	1	-5
461.093	1	1
462.286	1	5
463.479	1	0
464.672	1	2
465.865	1	-9
467.058	1	-3
468.251	1	2
469.444	1	-7
470.637	1	0
471.830	1	-7
473.023	1	2
474.215	1	8
475.408	1	-2
476.601	1	-1
477.793	1	0
478.986	1	-6
480.179	1	1
481.371	1	-3
482.564	1	-2
483.756	1	15
484.948	1	-1
486.141	1	-10
487.333	1	3
488.525	1	-3
489.718	1	4
490.910	1	-2
492.102	1	-3
493.294	1	-3
494.486	1	10
495.678	1	-1
496.870	1	9
498.062	1	-3
499.254	1	3
500.446	1	-11
501.638	1	-3
502.829	1	-1
504.021	1	-5
505.213	1	7
506.404	1	-4
507.596	1	-5
508.788	1	16
509.979	1	-9
511.171	1	-9
512.362	1	-6
513.553	1	-10
514.745	1	3
515.936	1	-4
517.127	1	0
518.319	1	-1
519.510	1	2
520.701	1	0
521.892	1	-3
523.083	1	0
524.274	1	2
525.465	1	3
526.656	1	-4
527.847	1	-2
529.038	1	1
530.229	1	-4
531.419	1	4
532.610	1	-4
533.801	1	13
534.991	1	-1
536.182	1	3
537.373	1	1
538.563	1	10
539.754	1	1
540.944	1	-1
542.134	1	1
543.325	1	-2
544.515	1	-3
545.705	1	2
546.896	1	-6
548.086	1	6
549.276	1	-1
550.466	1	0
551.656	1	-1
552.846	1	-2
554.036	1	-5
555.226	1	-5
556.416	1	-5
557.606	1	4
558.796	1	2
559.986	1	-13
561.175	1	-1
562.365	1	-3
563.555	1	-6
564.744	1	3
565.934	1	0
567.123	1	0
568.313	1	-1
569.502	1	-15
570.692	1	-2
571.881	1	14
573.070	1	-6
574.260	1	6
575.449	1	-10
576.638	1	-3
577.827	1	-9
579.016	1	10
580.205	1	2
581.394	1	8
582.583	1	9
583.772	1	1
584.961	1	0
586.150	1	-2
587.339	1	-4
588.528	1	8
589.717	1	-3
590.905	1	2
592.094	1	-4
593.283	1	-1
594.471	1	4
595.660	1	1
596.848	1	-3
598.037	1	-1
599.225	1	-11
600.413	1	6
601.602	1	10
602.790	1	0
603.978	1	0
605.166	1	0
606.355	1	4
607.543	1	-8
608.731	1	3
609.919	1	9
611.107	1	-12
612.295	1	-10
613.483	1	1
614.671	1	10
615.858	1	7
617.046	1	0
618.234	1	1
619.422	1	-7
620.609	1	9
621.797	1	0
622.985	1	-11
624.172	1	2
625.360	1	5
626.547	1	-1
627.735	1	6
628.922	1	1
630.109	1	-11
631.297	1	-1
632.484	1	-1
633.671	1	-12
634.858	1	-4
636.045	1	5
637.232	1	0
638.419	1	-7
639.606	1	5
640.793	1	-1
641.980	1	1
643.167	1	0
644.354	1	-3
645.541	1	-7
646.728	1	-6
647.914	1	-3
649.101	1	0
650.288	1	3
651.474	1	3
652.661	1	-7
653.847	1	-2
655.034	1	6
656.220	1	-6
657.406	1	-1
658.593	1	7
659.779	1	0
660.965	1	4
662.152	1	1
663.338	1	10
664.524	1	-5
665.710	1	-2
666.896	1	-11
668.082	1	8
669.268	1	-5
670.454	1	-1
671.640	1	5
672.826	1	-4
674.011	1	2
675.197	1	-9
676.383	1	2
677.569	1	-19
678.754	1	-13
679.940	1	1
681.125	1	0
682.311	1	4
683.496	1	-2
684.682	1	-14
685.867	1	5
687.053	1	0
688.238	1	7
688.746	1	-8

File: GaN_sample F_spot 12_UVVIS_200 K_200um_800 ms 2x2mm1_542.txt
340.368	1	-2
341.565	1	-5
342.763	1	-7
343.960	1	-2
345.157	1	0
346.354	1	-2
347.552	1	5
348.749	1	-3
349.946	1	-10
351.143	1	-2
352.340	1	-2
353.537	1	-1
354.734	1	10
355.931	1	-6
357.127	1	3
358.324	1	1
359.521	1	4
360.718	1	-6
361.914	1	2
363.111	1	-3
364.308	1	0
365.504	1	3
366.701	1	0
367.897	1	7
369.093	1	-6
370.290	1	13
371.486	1	18
372.682	1	15
373.879	1	-3
375.075	1	-3
376.271	1	9
377.467	1	-2
378.663	1	-4
379.859	1	7
381.055	1	8
382.251	1	-15
383.447	1	-4
384.643	1	9
385.839	1	-2
387.035	1	-1
388.230	1	5
389.426	1	1
390.622	1	-4
391.817	1	3
393.013	1	-11
394.208	1	1
395.404	1	-13
396.599	1	-7
397.795	1	-2
398.990	1	3
400.186	1	-4
401.381	1	-7
402.576	1	6
403.771	1	0
404.967	1	3
406.162	1	14
407.357	1	-5
408.552	1	-7
409.747	1	-7
410.942	1	5
412.137	1	15
413.332	1	-2
414.526	1	0
415.721	1	0
416.916	1	-7
418.111	1	-2
419.305	1	3
420.500	1	-1
421.695	1	-6
422.889	1	-9
424.084	1	4
425.278	1	18
426.472	1	-1
427.667	1	-1
428.861	1	1
430.055	1	0
431.250	1	-2
432.444	1	0
433.638	1	-1
434.832	1	-6
436.026	1	1
437.220	1	-6
438.414	1	-8
439.608	1	-9
440.802	1	-7
441.996	1	6
443.190	1	-5
444.384	1	-13
445.578	1	-5
446.771	1	14
447.965	1	-4
449.159	1	-9
450.352	1	0
451.546	1	-2
452.739	1	-2
453.933	1	-4
455.126	1	-4
456.320	1	2
457.513	1	9
458.706	1	4
459.899	1	11
461.093	1	3
462.286	1	-7
463.479	1	-6
464.672	1	1
465.865	1	1
467.058	1	-6
468.251	1	1
469.444	1	0
470.637	1	2
471.830	1	-2
473.023	1	4
474.215	1	5
475.408	1	0
476.601	1	-4
477.793	1	-9
478.986	1	-9
480.179	1	-7
481.371	1	-1
482.564	1	-5
483.756	1	-7
484.948	1	-6
486.141	1	-7
487.333	1	2
488.525	1	-3
489.718	1	3
490.910	1	-2
492.102	1	-6
493.294	1	-12
494.486	1	6
495.678	1	4
496.870	1	7
498.062	1	4
499.254	1	1
500.446	1	-8
501.638	1	-4
502.829	1	-4
504.021	1	4
505.213	1	-7
506.404	1	1
507.596	1	-1
508.788	1	11
509.979	1	-2
511.171	1	-11
512.362	1	-2
513.553	1	-19
514.745	1	-4
515.936	1	-4
517.127	1	3
518.319	1	-5
519.510	1	1
520.701	1	0
521.892	1	-3
523.083	1	-10
524.274	1	-9
525.465	1	12
526.656	1	-5
527.847	1	3
529.038	1	1
530.229	1	-4
531.419	1	14
532.610	1	-4
533.801	1	5
534.991	1	1
536.182	1	0
537.373	1	4
538.563	1	1
539.754	1	-4
540.944	1	-3
542.134	1	2
543.325	1	-4
544.515	1	-3
545.705	1	-8
546.896	1	-2
548.086	1	4
549.276	1	0
550.466	1	-4
551.656	1	11
552.846	1	6
554.036	1	0
555.226	1	-14
556.416	1	1
557.606	1	-3
558.796	1	4
559.986	1	-11
561.175	1	3
562.365	1	-4
563.555	1	-10
564.744	1	3
565.934	1	9
567.123	1	2
568.313	1	1
569.502	1	-12
570.692	1	3
571.881	1	5
573.070	1	-7
574.260	1	13
575.449	1	-3
576.638	1	-14
577.827	1	-7
579.016	1	10
580.205	1	-4
581.394	1	0
582.583	1	0
583.772	1	4
584.961	1	5
586.150	1	4
587.339	1	8
588.528	1	2
589.717	1	2
590.905	1	4
592.094	1	0
593.283	1	3
594.471	1	9
595.660	1	-7
596.848	1	-3
598.037	1	-2
599.225	1	-10
600.413	1	9
601.602	1	3
602.790	1	-7
603.978	1	4
605.166	1	4
606.355	1	2
607.543	1	-1
608.731	1	3
609.919	1	2
611.107	1	-9
612.295	1	-4
613.483	1	3
614.671	1	2
615.858	1	-3
617.046	1	7
618.234	1	-2
619.422	1	-9
620.609	1	7
621.797	1	-4
622.985	1	-2
624.172	1	-1
625.360	1	1
626.547	1	-5
627.735	1	3
628.922	1	-8
630.109	1	-16
631.297	1	-5
632.484	1	-12
633.671	1	-7
634.858	1	-2
636.045	1	14
637.232	1	-7
638.419	1	-4
639.606	1	2
640.793	1	0
641.980	1	3
643.167	1	0
644.354	1	1
645.541	1	-5
646.728	1	3
647.914	1	5
649.101	1	-2
650.288	1	9
651.474	1	-18
652.661	1	-5
653.847	1	7
655.034	1	0
656.220	1	-18
657.406	1	10
658.593	1	8
659.779	1	4
660.965	1	2
662.152	1	-5
663.338	1	11
664.524	1	3
665.710	1	-3
666.896	1	-10
668.082	1	6
669.268	1	-3
670.454	1	5
671.640	1	3
672.826	1	1
674.011	1	-6
675.197	1	-7
676.383	1	-3
677.569	1	8
678.754	1	-9
679.940	1	-8
681.125	1	11
682.311	1	6
683.496	1	1
684.682	1	-10
685.867	1	-1
687.053	1	-1
688.238	1	5
688.746	1	4

File: GaN_sample F_spot 12_UVVIS_200 K_200um_800 ms 2x2mm1_549.txt
340.368	1	14
341.565	1	-6
342.763	1	0
343.960	1	-2
345.157	1	-6
346.354	1	3
347.552	1	-11
348.749	1	-2
349.946	1	-14
351.143	1	1
352.340	1	1
353.537	1	-7
354.734	1	7
355.931	1	2
357.127	1	-1
358.324	1	-7
359.521	1	4
360.718	1	-2
361.914	1	-2
363.111	1	-9
364.308	1	-10
365.504	1	5
366.701	1	-2
367.897	1	0
369.093	1	0
370.290	1	-1
371.486	1	-4
372.682	1	0
373.879	1	-17
375.075	1	-16
376.271	1	7
377.467	1	-3
378.663	1	-9
379.859	1	-3
381.055	1	9
382.251	1	-6
383.447	1	-7
384.643	1	3
385.839	1	-2
387.035	1	-7
388.230	1	4
389.426	1	-10
390.622	1	-13
391.817	1	-3
393.013	1	-2
394.208	1	-7
395.404	1	-21
396.599	1	-11
397.795	1	0
398.990	1	2
400.186	1	0
401.381	1	-8
402.576	1	-8
403.771	1	-6
404.967	1	5
406.162	1	-3
407.357	1	-1
408.552	1	-2
409.747	1	-9
410.942	1	7
412.137	1	0
413.332	1	-2
414.526	1	-6
415.721	1	2
416.916	1	-3
418.111	1	-5
419.305	1	-6
420.500	1	3
421.695	1	-10
422.889	1	-14
424.084	1	-9
425.278	1	-2
426.472	1	-6
427.667	1	-3
428.861	1	-7
430.055	1	-9
431.250	1	-8
432.444	1	0
433.638	1	-7
434.832	1	-2
436.026	1	3
437.220	1	-6
438.414	1	-16
439.608	1	-5
440.802	1	-2
441.996	1	-3
443.190	1	-9
444.384	1	-10
445.578	1	-12
446.771	1	7
447.965	1	0
449.159	1	-14
450.352	1	-11
451.546	1	4
452.739	1	3
453.933	1	-2
455.126	1	-2
456.320	1	0
457.513	1	5
458.706	1	-2
459.899	1	-2
461.093	1	-5
462.286	1	-4
463.479	1	-4
464.672	1	-3
465.865	1	-8
467.058	1	-9
468.251	1	-7
469.444	1	-8
470.637	1	3
471.830	1	1
473.023	1	-2
474.215	1	-2
475.408	1	-1
476.601	1	4
477.793	1	-5
478.986	1	-5
480.179	1	-7
481.371	1	-14
482.564	1	0
483.756	1	-5
484.948	1	-7
486.141	1	-5
487.333	1	-3
488.525	1	-5
489.718	1	-4
490.910	1	-8
492.102	1	-1
493.294	1	-8
494.486	1	3
495.678	1	-8
496.870	1	4
498.062	1	1
499.254	1	-9
500.446	1	-11
501.638	1	-6
502.829	1	0
504.021	1	-4
505.213	1	10
506.404	1	0
507.596	1	-3
508.788	1	14
509.979	1	1
511.171	1	-10
512.362	1	-13
513.553	1	-7
514.745	1	1
515.936	1	-8
517.127	1	9
518.319	1	-2
519.510	1	-2
520.701	1	-7
521.892	1	0
523.083	1	-8
524.274	1	4
525.465	1	9
526.656	1	-2
527.847	1	-5
529.038	1	-6
530.229	1	-5
531.419	1	-2
532.610	1	-11
533.801	1	20
534.991	1	-5
536.182	1	-1
537.373	1	5
538.563	1	-2
539.754	1	-1
540.944	1	-9
542.134	1	1
543.325	1	-12
544.515	1	-2
545.705	1	-10
546.896	1	-8
548.086	1	-1
549.276	1	-6
550.466	1	-7
551.656	1	1
552.846	1	-6
554.036	1	-3
555.226	1	-8
556.416	1	-12
557.606	1	7
558.796	1	2
559.986	1	-1
561.175	1	11
562.365	1	0
563.555	1	-5
564.744	1	7
565.934	1	0
567.123	1	6
568.313	1	-5
569.502	1	-10
570.692	1	-1
571.881	1	3
573.070	1	1
574.260	1	6
575.449	1	-3
576.638	1	-6
577.827	1	-12
579.016	1	3
580.205	1	-4
581.394	1	-11
582.583	1	5
583.772	1	6
584.961	1	-4
586.150	1	-5
587.339	1	1
588.528	1	-7
589.717	1	-10
590.905	1	-12
592.094	1	-8
593.283	1	0
594.471	1	-1
595.660	1	-5
596.848	1	-3
598.037	1	-2
599.225	1	-12
600.413	1	-5
601.602	1	-5
602.790	1	-9
603.978	1	-4
605.166	1	5
606.355	1	-6
607.543	1	-9
608.731	1	-7
609.919	1	6
611.107	1	-8
612.295	1	-13
613.483	1	-2
614.671	1	-1
615.858	1	1
617.046	1	0
618.234	1	-8
619.422	1	-14
620.609	1	0
621.797	1	-7
622.985	1	-2
624.172	1	-4
625.360	1	1
626.547	1	-4
627.735	1	-5
628.922	1	5
630.109	1	-15
631.297	1	-2
632.484	1	-2
633.671	1	-10
634.858	1	0
636.045	1	6
637.232	1	-4
638.419	1	-8
639.606	1	6
640.793	1	4
641.980	1	9
643.167	1	-10
644.354	1	-1
645.541	1	-3
646.728	1	-7
647.914	1	-8
649.101	1	-3
650.288	1	-4
651.474	1	-2
652.661	1	-10
653.847	1	4
655.034	1	0
656.220	1	-9
657.406	1	0
658.593	1	9
659.779	1	-2
660.965	1	5
662.152	1	4
663.338	1	3
664.524	1	5
665.710	1	-5
666.896	1	-13
668.082	1	-7
669.268	1	-2
670.454	1	0
671.640	1	-5
672.826	1	-2
674.011	1	-7
675.197	1	-14
676.383	1	1
677.569	1	-11
678.754	1	-7
679.940	1	2
681.125	1	-2
682.311	1	2
683.496	1	0
684.682	1	-6
685.867	1	-10
687.053	1	3
688.238	1	-3
688.746	1	5