Folder: cryo-il_analysis/Data/GaN_170K_550ms (part 14)

File: GaN_sample D_spot 18_UVVIS_170 K_200um_550 ms 2x2mm1_149.txt
340.368	1	-2
341.565	1	1
342.763	1	4
343.960	1	-2
345.157	1	1
346.354	1	2
347.552	1	6
348.749	1	7
349.946	1	6
351.143	1	4
352.340	1	7
353.537	1	4
354.734	1	11
355.931	1	2
357.127	1	-2
358.324	1	10
359.521	1	10
360.718	1	7
361.914	1	15
363.111	1	19
364.308	1	19
365.504	1	32
366.701	1	35
367.897	1	34
369.093	1	27
370.290	1	25
371.486	1	25
372.682	1	31
373.879	1	26
375.075	1	16
376.271	1	13
377.467	1	14
378.663	1	16
379.859	1	9
381.055	1	5
382.251	1	7
383.447	1	19
384.643	1	6
385.839	1	2
387.035	1	9
388.230	1	2
389.426	1	12
390.622	1	2
391.817	1	9
393.013	1	4
394.208	1	9
395.404	1	6
396.599	1	9
397.795	1	0
398.990	1	1
400.186	1	0
401.381	1	2
402.576	1	-4
403.771	1	7
404.967	1	3
406.162	1	7
407.357	1	4
408.552	1	5
409.747	1	-4
410.942	1	7
412.137	1	-4
413.332	1	-1
414.526	1	3
415.721	1	2
416.916	1	3
418.111	1	11
419.305	1	1
420.500	1	3
421.695	1	-3
422.889	1	0
424.084	1	17
425.278	1	1
426.472	1	-1
427.667	1	6
428.861	1	4
430.055	1	-4
431.250	1	12
432.444	1	0
433.638	1	1
434.832	1	6
436.026	1	0
437.220	1	9
438.414	1	-10
439.608	1	-3
440.802	1	15
441.996	1	-3
443.190	1	1
444.384	1	-4
445.578	1	10
446.771	1	-2
447.965	1	0
449.159	1	6
450.352	1	3
451.546	1	4
452.739	1	6
453.933	1	3
455.126	1	11
456.320	1	2
457.513	1	5
458.706	1	9
459.899	1	2
461.093	1	14
462.286	1	1
463.479	1	1
464.672	1	-5
465.865	1	1
467.058	1	3
468.251	1	8
469.444	1	2
470.637	1	4
471.830	1	-2
473.023	1	1
474.215	1	5
475.408	1	0
476.601	1	6
477.793	1	6
478.986	1	3
480.179	1	-5
481.371	1	2
482.564	1	-2
483.756	1	1
484.948	1	-3
486.141	1	7
487.333	1	2
488.525	1	17
489.718	1	2
490.910	1	11
492.102	1	7
493.294	1	4
494.486	1	7
495.678	1	3
496.870	1	-4
498.062	1	6
499.254	1	10
500.446	1	-9
501.638	1	-2
502.829	1	6
504.021	1	11
505.213	1	3
506.404	1	3
507.596	1	3
508.788	1	3
509.979	1	8
511.171	1	8
512.362	1	-4
513.553	1	5
514.745	1	3
515.936	1	-1
517.127	1	13
518.319	1	11
519.510	1	6
520.701	1	10
521.892	1	8
523.083	1	9
524.274	1	9
525.465	1	13
526.656	1	8
527.847	1	10
529.038	1	3
530.229	1	16
531.419	1	11
532.610	1	8
533.801	1	4
534.991	1	1
536.182	1	8
537.373	1	6
538.563	1	0
539.754	1	5
540.944	1	3
542.134	1	10
543.325	1	6
544.515	1	7
545.705	1	8
546.896	1	10
548.086	1	9
549.276	1	12
550.466	1	4
551.656	1	7
552.846	1	0
554.036	1	6
555.226	1	-8
556.416	1	0
557.606	1	15
558.796	1	8
559.986	1	9
561.175	1	-6
562.365	1	8
563.555	1	7
564.744	1	12
565.934	1	8
567.123	1	-1
568.313	1	3
569.502	1	2
570.692	1	11
571.881	1	-7
573.070	1	2
574.260	1	2
575.449	1	8
576.638	1	3
577.827	1	9
579.016	1	9
580.205	1	-2
581.394	1	5
582.583	1	0
583.772	1	-4
584.961	1	-4
586.150	1	0
587.339	1	-6
588.528	1	3
589.717	1	11
590.905	1	4
592.094	1	10
593.283	1	2
594.471	1	14
595.660	1	0
596.848	1	-1
598.037	1	-3
599.225	1	-1
600.413	1	-3
601.602	1	9
602.790	1	9
603.978	1	11
605.166	1	10
606.355	1	1
607.543	1	7
608.731	1	0
609.919	1	-7
611.107	1	4
612.295	1	5
613.483	1	-1
614.671	1	13
615.858	1	-1
617.046	1	-8
618.234	1	13
619.422	1	-7
620.609	1	6
621.797	1	7
622.985	1	4
624.172	1	1
625.360	1	0
626.547	1	-8
627.735	1	-1
628.922	1	-9
630.109	1	5
631.297	1	7
632.484	1	0
633.671	1	11
634.858	1	2
636.045	1	5
637.232	1	8
638.419	1	-1
639.606	1	-3
640.793	1	6
641.980	1	-12
643.167	1	6
644.354	1	1
645.541	1	4
646.728	1	0
647.914	1	6
649.101	1	0
650.288	1	-6
651.474	1	-1
652.661	1	5
653.847	1	3
655.034	1	0
656.220	1	8
657.406	1	-1
658.593	1	-3
659.779	1	5
660.965	1	12
662.152	1	-1
663.338	1	5
664.524	1	8
665.710	1	3
666.896	1	2
668.082	1	10
669.268	1	-1
670.454	1	-9
671.640	1	5
672.826	1	2
674.011	1	6
675.197	1	7
676.383	1	3
677.569	1	-1
678.754	1	1
679.940	1	6
681.125	1	-1
682.311	1	4
683.496	1	7
684.682	1	-2
685.867	1	5
687.053	1	-3
688.238	1	5
688.746	1	-3

File: GaN_sample D_spot 18_UVVIS_170 K_200um_550 ms 2x2mm1_150.txt
340.368	1	-5
341.565	1	-1
342.763	1	9
343.960	1	7
345.157	1	1
346.354	1	-1
347.552	1	6
348.749	1	5
349.946	1	12
351.143	1	0
352.340	1	11
353.537	1	12
354.734	1	5
355.931	1	5
357.127	1	8
358.324	1	11
359.521	1	11
360.718	1	9
361.914	1	15
363.111	1	33
364.308	1	12
365.504	1	19
366.701	1	25
367.897	1	21
369.093	1	35
370.290	1	34
371.486	1	32
372.682	1	39
373.879	1	27
375.075	1	28
376.271	1	22
377.467	1	21
378.663	1	11
379.859	1	12
381.055	1	10
382.251	1	12
383.447	1	17
384.643	1	7
385.839	1	-4
387.035	1	4
388.230	1	1
389.426	1	10
390.622	1	5
391.817	1	11
393.013	1	3
394.208	1	9
395.404	1	9
396.599	1	1
397.795	1	-5
398.990	1	-6
400.186	1	-8
401.381	1	6
402.576	1	9
403.771	1	4
404.967	1	5
406.162	1	3
407.357	1	-3
408.552	1	0
409.747	1	4
410.942	1	7
412.137	1	-3
413.332	1	-4
414.526	1	6
415.721	1	2
416.916	1	3
418.111	1	4
419.305	1	0
420.500	1	-2
421.695	1	-4
422.889	1	-6
424.084	1	15
425.278	1	0
426.472	1	5
427.667	1	9
428.861	1	-2
430.055	1	-1
431.250	1	9
432.444	1	8
433.638	1	15
434.832	1	6
436.026	1	-8
437.220	1	5
438.414	1	0
439.608	1	-2
440.802	1	12
441.996	1	0
443.190	1	-3
444.384	1	0
445.578	1	0
446.771	1	-10
447.965	1	1
449.159	1	-3
450.352	1	-2
451.546	1	-12
452.739	1	-4
453.933	1	-6
455.126	1	18
456.320	1	1
457.513	1	11
458.706	1	10
459.899	1	2
461.093	1	9
462.286	1	-9
463.479	1	-9
464.672	1	-1
465.865	1	5
467.058	1	5
468.251	1	-1
469.444	1	6
470.637	1	2
471.830	1	5
473.023	1	7
474.215	1	9
475.408	1	-7
476.601	1	6
477.793	1	2
478.986	1	-8
480.179	1	0
481.371	1	-4
482.564	1	0
483.756	1	4
484.948	1	1
486.141	1	13
487.333	1	1
488.525	1	7
489.718	1	5
490.910	1	9
492.102	1	-3
493.294	1	-2
494.486	1	16
495.678	1	9
496.870	1	1
498.062	1	2
499.254	1	5
500.446	1	0
501.638	1	-2
502.829	1	6
504.021	1	7
505.213	1	5
506.404	1	4
507.596	1	8
508.788	1	-4
509.979	1	10
511.171	1	7
512.362	1	-1
513.553	1	3
514.745	1	6
515.936	1	3
517.127	1	5
518.319	1	-2
519.510	1	0
520.701	1	7
521.892	1	1
523.083	1	18
524.274	1	8
525.465	1	4
526.656	1	15
527.847	1	4
529.038	1	3
530.229	1	14
531.419	1	9
532.610	1	5
533.801	1	12
534.991	1	8
536.182	1	4
537.373	1	-3
538.563	1	5
539.754	1	2
540.944	1	-4
542.134	1	4
543.325	1	4
544.515	1	0
545.705	1	7
546.896	1	12
548.086	1	7
549.276	1	0
550.466	1	5
551.656	1	6
552.846	1	-5
554.036	1	8
555.226	1	-7
556.416	1	-3
557.606	1	6
558.796	1	-1
559.986	1	5
561.175	1	6
562.365	1	3
563.555	1	1
564.744	1	2
565.934	1	11
567.123	1	3
568.313	1	3
569.502	1	5
570.692	1	8
571.881	1	2
573.070	1	0
574.260	1	14
575.449	1	7
576.638	1	10
577.827	1	2
579.016	1	1
580.205	1	-6
581.394	1	11
582.583	1	7
583.772	1	-1
584.961	1	6
586.150	1	3
587.339	1	-4
588.528	1	-3
589.717	1	7
590.905	1	9
592.094	1	11
593.283	1	18
594.471	1	11
595.660	1	2
596.848	1	5
598.037	1	0
599.225	1	3
600.413	1	-2
601.602	1	3
602.790	1	10
603.978	1	8
605.166	1	6
606.355	1	8
607.543	1	14
608.731	1	4
609.919	1	6
611.107	1	-8
612.295	1	3
613.483	1	1
614.671	1	1
615.858	1	2
617.046	1	6
618.234	1	3
619.422	1	-2
620.609	1	2
621.797	1	0
622.985	1	3
624.172	1	8
625.360	1	8
626.547	1	-4
627.735	1	-8
628.922	1	-5
630.109	1	1
631.297	1	0
632.484	1	-2
633.671	1	9
634.858	1	-2
636.045	1	7
637.232	1	6
638.419	1	-6
639.606	1	3
640.793	1	-1
641.980	1	-5
643.167	1	5
644.354	1	7
645.541	1	9
646.728	1	8
647.914	1	12
649.101	1	2
650.288	1	5
651.474	1	3
652.661	1	3
653.847	1	3
655.034	1	5
656.220	1	-1
657.406	1	-3
658.593	1	1
659.779	1	8
660.965	1	9
662.152	1	4
663.338	1	10
664.524	1	2
665.710	1	6
666.896	1	-1
668.082	1	7
669.268	1	-10
670.454	1	-9
671.640	1	7
672.826	1	3
674.011	1	13
675.197	1	2
676.383	1	4
677.569	1	-9
678.754	1	10
679.940	1	8
681.125	1	8
682.311	1	2
683.496	1	3
684.682	1	9
685.867	1	4
687.053	1	-2
688.238	1	0
688.746	1	-6

File: GaN_sample D_spot 18_UVVIS_170 K_200um_550 ms 2x2mm1_151.txt
340.368	1	2
341.565	1	4
342.763	1	3
343.960	1	5
345.157	1	9
346.354	1	-4
347.552	1	11
348.749	1	7
349.946	1	7
351.143	1	-2
352.340	1	6
353.537	1	11
354.734	1	10
355.931	1	-1
357.127	1	-2
358.324	1	14
359.521	1	10
360.718	1	11
361.914	1	10
363.111	1	19
364.308	1	15
365.504	1	18
366.701	1	33
367.897	1	29
369.093	1	37
370.290	1	24
371.486	1	18
372.682	1	26
373.879	1	22
375.075	1	19
376.271	1	28
377.467	1	17
378.663	1	19
379.859	1	15
381.055	1	16
382.251	1	10
383.447	1	10
384.643	1	6
385.839	1	2
387.035	1	3
388.230	1	-1
389.426	1	4
390.622	1	-1
391.817	1	-2
393.013	1	0
394.208	1	15
395.404	1	8
396.599	1	-2
397.795	1	-2
398.990	1	-7
400.186	1	-7
401.381	1	10
402.576	1	-1
403.771	1	7
404.967	1	0
406.162	1	-5
407.357	1	-4
408.552	1	1
409.747	1	1
410.942	1	1
412.137	1	-5
413.332	1	-4
414.526	1	2
415.721	1	-6
416.916	1	-4
418.111	1	11
419.305	1	-2
420.500	1	-1
421.695	1	-5
422.889	1	2
424.084	1	21
425.278	1	4
426.472	1	0
427.667	1	4
428.861	1	4
430.055	1	7
431.250	1	12
432.444	1	7
433.638	1	13
434.832	1	3
436.026	1	-3
437.220	1	1
438.414	1	-2
439.608	1	-5
440.802	1	8
441.996	1	5
443.190	1	1
444.384	1	1
445.578	1	9
446.771	1	-2
447.965	1	6
449.159	1	-1
450.352	1	-5
451.546	1	-8
452.739	1	2
453.933	1	-6
455.126	1	11
456.320	1	-9
457.513	1	11
458.706	1	4
459.899	1	2
461.093	1	14
462.286	1	-6
463.479	1	-2
464.672	1	-9
465.865	1	5
467.058	1	5
468.251	1	0
469.444	1	-2
470.637	1	5
471.830	1	-2
473.023	1	0
474.215	1	1
475.408	1	-2
476.601	1	7
477.793	1	0
478.986	1	-1
480.179	1	0
481.371	1	-8
482.564	1	1
483.756	1	6
484.948	1	3
486.141	1	17
487.333	1	-5
488.525	1	6
489.718	1	5
490.910	1	-4
492.102	1	1
493.294	1	1
494.486	1	17
495.678	1	-2
496.870	1	4
498.062	1	-10
499.254	1	7
500.446	1	-2
501.638	1	-9
502.829	1	3
504.021	1	9
505.213	1	0
506.404	1	7
507.596	1	5
508.788	1	-5
509.979	1	3
511.171	1	5
512.362	1	-3
513.553	1	3
514.745	1	3
515.936	1	9
517.127	1	6
518.319	1	14
519.510	1	12
520.701	1	6
521.892	1	7
523.083	1	1
524.274	1	6
525.465	1	15
526.656	1	2
527.847	1	5
529.038	1	-2
530.229	1	15
531.419	1	-1
532.610	1	13
533.801	1	11
534.991	1	2
536.182	1	5
537.373	1	2
538.563	1	4
539.754	1	0
540.944	1	-3
542.134	1	12
543.325	1	9
544.515	1	0
545.705	1	6
546.896	1	13
548.086	1	12
549.276	1	12
550.466	1	5
551.656	1	10
552.846	1	12
554.036	1	4
555.226	1	-7
556.416	1	9
557.606	1	5
558.796	1	4
559.986	1	7
561.175	1	-4
562.365	1	6
563.555	1	10
564.744	1	7
565.934	1	9
567.123	1	3
568.313	1	-2
569.502	1	4
570.692	1	12
571.881	1	0
573.070	1	3
574.260	1	10
575.449	1	9
576.638	1	11
577.827	1	8
579.016	1	-1
580.205	1	-5
581.394	1	12
582.583	1	2
583.772	1	3
584.961	1	3
586.150	1	-3
587.339	1	3
588.528	1	0
589.717	1	4
590.905	1	-1
592.094	1	8
593.283	1	6
594.471	1	12
595.660	1	-1
596.848	1	4
598.037	1	-6
599.225	1	3
600.413	1	-6
601.602	1	8
602.790	1	11
603.978	1	1
605.166	1	6
606.355	1	8
607.543	1	8
608.731	1	3
609.919	1	-4
611.107	1	-1
612.295	1	3
613.483	1	-1
614.671	1	9
615.858	1	-4
617.046	1	-7
618.234	1	8
619.422	1	-5
620.609	1	0
621.797	1	10
622.985	1	2
624.172	1	1
625.360	1	6
626.547	1	-3
627.735	1	-9
628.922	1	-5
630.109	1	1
631.297	1	-8
632.484	1	-2
633.671	1	15
634.858	1	3
636.045	1	5
637.232	1	3
638.419	1	-2
639.606	1	-1
640.793	1	1
641.980	1	-4
643.167	1	5
644.354	1	3
645.541	1	9
646.728	1	5
647.914	1	3
649.101	1	-2
650.288	1	2
651.474	1	15
652.661	1	3
653.847	1	4
655.034	1	0
656.220	1	-4
657.406	1	1
658.593	1	4
659.779	1	4
660.965	1	14
662.152	1	-2
663.338	1	2
664.524	1	3
665.710	1	4
666.896	1	-3
668.082	1	7
669.268	1	-5
670.454	1	-3
671.640	1	3
672.826	1	4
674.011	1	6
675.197	1	5
676.383	1	4
677.569	1	-7
678.754	1	-7
679.940	1	10
681.125	1	14
682.311	1	-4
683.496	1	8
684.682	1	8
685.867	1	8
687.053	1	-8
688.238	1	4
688.746	1	-8

File: GaN_sample D_spot 18_UVVIS_170 K_200um_550 ms 2x2mm1_152.txt
340.368	1	-3
341.565	1	1
342.763	1	12
343.960	1	-2
345.157	1	2
346.354	1	-9
347.552	1	18
348.749	1	7
349.946	1	9
351.143	1	-5
352.340	1	2
353.537	1	5
354.734	1	6
355.931	1	1
357.127	1	9
358.324	1	13
359.521	1	10
360.718	1	8
361.914	1	16
363.111	1	25
364.308	1	20
365.504	1	20
366.701	1	38
367.897	1	34
369.093	1	26
370.290	1	38
371.486	1	25
372.682	1	36
373.879	1	29
375.075	1	25
376.271	1	21
377.467	1	12
378.663	1	18
379.859	1	11
381.055	1	16
382.251	1	6
383.447	1	10
384.643	1	3
385.839	1	-10
387.035	1	-2
388.230	1	10
389.426	1	5
390.622	1	4
391.817	1	3
393.013	1	11
394.208	1	11
395.404	1	6
396.599	1	-3
397.795	1	5
398.990	1	-11
400.186	1	-3
401.381	1	15
402.576	1	-5
403.771	1	3
404.967	1	2
406.162	1	2
407.357	1	2
408.552	1	2
409.747	1	3
410.942	1	5
412.137	1	-9
413.332	1	-4
414.526	1	6
415.721	1	1
416.916	1	-3
418.111	1	12
419.305	1	-1
420.500	1	-3
421.695	1	-7
422.889	1	3
424.084	1	13
425.278	1	5
426.472	1	5
427.667	1	1
428.861	1	6
430.055	1	10
431.250	1	8
432.444	1	0
433.638	1	11
434.832	1	6
436.026	1	3
437.220	1	6
438.414	1	-5
439.608	1	1
440.802	1	10
441.996	1	-10
443.190	1	-6
444.384	1	8
445.578	1	5
446.771	1	-11
447.965	1	2
449.159	1	2
450.352	1	-6
451.546	1	-11
452.739	1	-1
453.933	1	-1
455.126	1	2
456.320	1	11
457.513	1	6
458.706	1	6
459.899	1	-2
461.093	1	6
462.286	1	-7
463.479	1	0
464.672	1	-2
465.865	1	4
467.058	1	5
468.251	1	4
469.444	1	5
470.637	1	-3
471.830	1	2
473.023	1	5
474.215	1	8
475.408	1	-9
476.601	1	-7
477.793	1	2
478.986	1	0
480.179	1	1
481.371	1	6
482.564	1	-3
483.756	1	9
484.948	1	5
486.141	1	11
487.333	1	-6
488.525	1	1
489.718	1	1
490.910	1	-2
492.102	1	4
493.294	1	0
494.486	1	7
495.678	1	2
496.870	1	-1
498.062	1	-2
499.254	1	11
500.446	1	6
501.638	1	-10
502.829	1	8
504.021	1	11
505.213	1	0
506.404	1	8
507.596	1	13
508.788	1	-3
509.979	1	6
511.171	1	5
512.362	1	-4
513.553	1	10
514.745	1	6
515.936	1	-3
517.127	1	4
518.319	1	1
519.510	1	4
520.701	1	4
521.892	1	-3
523.083	1	6
524.274	1	0
525.465	1	13
526.656	1	9
527.847	1	8
529.038	1	-1
530.229	1	14
531.419	1	15
532.610	1	11
533.801	1	-1
534.991	1	-2
536.182	1	3
537.373	1	2
538.563	1	0
539.754	1	6
540.944	1	2
542.134	1	4
543.325	1	3
544.515	1	5
545.705	1	7
546.896	1	7
548.086	1	10
549.276	1	9
550.466	1	-6
551.656	1	9
552.846	1	8
554.036	1	4
555.226	1	-9
556.416	1	3
557.606	1	-6
558.796	1	5
559.986	1	4
561.175	1	-7
562.365	1	3
563.555	1	-1
564.744	1	2
565.934	1	2
567.123	1	7
568.313	1	0
569.502	1	3
570.692	1	2
571.881	1	5
573.070	1	11
574.260	1	2
575.449	1	2
576.638	1	1
577.827	1	-1
579.016	1	4
580.205	1	-1
581.394	1	0
582.583	1	5
583.772	1	-6
584.961	1	-2
586.150	1	1
587.339	1	5
588.528	1	2
589.717	1	0
590.905	1	18
592.094	1	8
593.283	1	7
594.471	1	8
595.660	1	5
596.848	1	4
598.037	1	1
599.225	1	5
600.413	1	-9
601.602	1	10
602.790	1	13
603.978	1	8
605.166	1	6
606.355	1	0
607.543	1	11
608.731	1	-4
609.919	1	2
611.107	1	3
612.295	1	5
613.483	1	-9
614.671	1	6
615.858	1	2
617.046	1	-1
618.234	1	4
619.422	1	-14
620.609	1	-5
621.797	1	3
622.985	1	1
624.172	1	1
625.360	1	-2
626.547	1	-2
627.735	1	-3
628.922	1	-1
630.109	1	-1
631.297	1	-4
632.484	1	-1
633.671	1	9
634.858	1	3
636.045	1	7
637.232	1	4
638.419	1	-5
639.606	1	-7
640.793	1	1
641.980	1	-5
643.167	1	-9
644.354	1	-2
645.541	1	2
646.728	1	0
647.914	1	3
649.101	1	5
650.288	1	-6
651.474	1	14
652.661	1	8
653.847	1	-4
655.034	1	0
656.220	1	2
657.406	1	-3
658.593	1	6
659.779	1	4
660.965	1	9
662.152	1	-7
663.338	1	7
664.524	1	6
665.710	1	7
666.896	1	-1
668.082	1	19
669.268	1	2
670.454	1	-6
671.640	1	6
672.826	1	4
674.011	1	-3
675.197	1	5
676.383	1	6
677.569	1	-4
678.754	1	6
679.940	1	9
681.125	1	12
682.311	1	5
683.496	1	10
684.682	1	9
685.867	1	7
687.053	1	8
688.238	1	-4
688.746	1	1

File: GaN_sample D_spot 18_UVVIS_170 K_200um_550 ms 2x2mm1_154.txt
340.368	1	-5
341.565	1	1
342.763	1	-3
343.960	1	-2
345.157	1	3
346.354	1	-1
347.552	1	8
348.749	1	3
349.946	1	20
351.143	1	2
352.340	1	5
353.537	1	11
354.734	1	5
355.931	1	1
357.127	1	15
358.324	1	4
359.521	1	11
360.718	1	5
361.914	1	12
363.111	1	24
364.308	1	21
365.504	1	23
366.701	1	40
367.897	1	32
369.093	1	25
370.290	1	31
371.486	1	21
372.682	1	30
373.879	1	23
375.075	1	23
376.271	1	15
377.467	1	2
378.663	1	9
379.859	1	8
381.055	1	4
382.251	1	13
383.447	1	22
384.643	1	12
385.839	1	4
387.035	1	11
388.230	1	-3
389.426	1	6
390.622	1	-7
391.817	1	1
393.013	1	2
394.208	1	7
395.404	1	6
396.599	1	-3
397.795	1	0
398.990	1	1
400.186	1	1
401.381	1	15
402.576	1	3
403.771	1	6
404.967	1	7
406.162	1	0
407.357	1	7
408.552	1	0
409.747	1	-2
410.942	1	-4
412.137	1	3
413.332	1	-5
414.526	1	2
415.721	1	-1
416.916	1	-4
418.111	1	10
419.305	1	-1
420.500	1	1
421.695	1	-7
422.889	1	0
424.084	1	16
425.278	1	2
426.472	1	5
427.667	1	8
428.861	1	3
430.055	1	1
431.250	1	12
432.444	1	5
433.638	1	16
434.832	1	12
436.026	1	-1
437.220	1	6
438.414	1	-2
439.608	1	-4
440.802	1	6
441.996	1	3
443.190	1	6
444.384	1	-2
445.578	1	14
446.771	1	-8
447.965	1	8
449.159	1	6
450.352	1	-1
451.546	1	-14
452.739	1	9
453.933	1	16
455.126	1	17
456.320	1	8
457.513	1	16
458.706	1	10
459.899	1	6
461.093	1	3
462.286	1	-11
463.479	1	-3
464.672	1	-1
465.865	1	-5
467.058	1	1
468.251	1	1
469.444	1	3
470.637	1	6
471.830	1	-1
473.023	1	10
474.215	1	8
475.408	1	1
476.601	1	7
477.793	1	10
478.986	1	3
480.179	1	-10
481.371	1	4
482.564	1	4
483.756	1	1
484.948	1	9
486.141	1	6
487.333	1	-7
488.525	1	11
489.718	1	12
490.910	1	5
492.102	1	4
493.294	1	2
494.486	1	9
495.678	1	12
496.870	1	4
498.062	1	-2
499.254	1	6
500.446	1	4
501.638	1	-1
502.829	1	8
504.021	1	8
505.213	1	-11
506.404	1	3
507.596	1	11
508.788	1	-3
509.979	1	10
511.171	1	11
512.362	1	-1
513.553	1	7
514.745	1	12
515.936	1	7
517.127	1	1
518.319	1	6
519.510	1	7
520.701	1	11
521.892	1	6
523.083	1	2
524.274	1	9
525.465	1	9
526.656	1	14
527.847	1	10
529.038	1	3
530.229	1	12
531.419	1	17
532.610	1	8
533.801	1	7
534.991	1	0
536.182	1	0
537.373	1	-1
538.563	1	5
539.754	1	10
540.944	1	2
542.134	1	2
543.325	1	6
544.515	1	6
545.705	1	5
546.896	1	9
548.086	1	10
549.276	1	4
550.466	1	-1
551.656	1	18
552.846	1	0
554.036	1	6
555.226	1	6
556.416	1	5
557.606	1	-2
558.796	1	7
559.986	1	4
561.175	1	-8
562.365	1	9
563.555	1	0
564.744	1	-2
565.934	1	4
567.123	1	0
568.313	1	-1
569.502	1	3
570.692	1	0
571.881	1	1
573.070	1	6
574.260	1	8
575.449	1	7
576.638	1	10
577.827	1	5
579.016	1	4
580.205	1	2
581.394	1	2
582.583	1	4
583.772	1	-3
584.961	1	1
586.150	1	-5
587.339	1	-2
588.528	1	0
589.717	1	5
590.905	1	9
592.094	1	5
593.283	1	3
594.471	1	13
595.660	1	0
596.848	1	2
598.037	1	5
599.225	1	8
600.413	1	-3
601.602	1	5
602.790	1	14
603.978	1	16
605.166	1	10
606.355	1	2
607.543	1	8
608.731	1	2
609.919	1	-4
611.107	1	1
612.295	1	6
613.483	1	-4
614.671	1	14
615.858	1	-5
617.046	1	-8
618.234	1	-1
619.422	1	-5
620.609	1	1
621.797	1	-1
622.985	1	0
624.172	1	1
625.360	1	3
626.547	1	2
627.735	1	-5
628.922	1	-7
630.109	1	-2
631.297	1	-4
632.484	1	2
633.671	1	7
634.858	1	6
636.045	1	9
637.232	1	4
638.419	1	-10
639.606	1	-6
640.793	1	-6
641.980	1	-3
643.167	1	-2
644.354	1	4
645.541	1	2
646.728	1	12
647.914	1	-2
649.101	1	-4
650.288	1	1
651.474	1	11
652.661	1	2
653.847	1	7
655.034	1	3
656.220	1	6
657.406	1	3
658.593	1	2
659.779	1	-1
660.965	1	12
662.152	1	-1
663.338	1	8
664.524	1	4
665.710	1	0
666.896	1	1
668.082	1	9
669.268	1	-1
670.454	1	-3
671.640	1	1
672.826	1	2
674.011	1	8
675.197	1	8
676.383	1	1
677.569	1	-5
678.754	1	8
679.940	1	5
681.125	1	6
682.311	1	3
683.496	1	4
684.682	1	5
685.867	1	5
687.053	1	-7
688.238	1	-4
688.746	1	-2

File: GaN_sample D_spot 18_UVVIS_170 K_200um_550 ms 2x2mm1_156.txt
340.368	1	7
341.565	1	0
342.763	1	-1
343.960	1	-3
345.157	1	-1
346.354	1	-8
347.552	1	10
348.749	1	4
349.946	1	1
351.143	1	6
352.340	1	7
353.537	1	-2
354.734	1	4
355.931	1	2
357.127	1	9
358.324	1	9
359.521	1	12
360.718	1	17
361.914	1	14
363.111	1	18
364.308	1	19
365.504	1	24
366.701	1	22
367.897	1	33
369.093	1	23
370.290	1	29
371.486	1	19
372.682	1	26
373.879	1	23
375.075	1	20
376.271	1	14
377.467	1	16
378.663	1	8
379.859	1	12
381.055	1	11
382.251	1	9
383.447	1	14
384.643	1	8
385.839	1	4
387.035	1	2
388.230	1	5
389.426	1	8
390.622	1	1
391.817	1	7
393.013	1	7
394.208	1	12
395.404	1	9
396.599	1	-2
397.795	1	5
398.990	1	1
400.186	1	-4
401.381	1	17
402.576	1	-3
403.771	1	0
404.967	1	6
406.162	1	5
407.357	1	7
408.552	1	-4
409.747	1	-7
410.942	1	6
412.137	1	-4
413.332	1	6
414.526	1	4
415.721	1	0
416.916	1	-3
418.111	1	8
419.305	1	4
420.500	1	-1
421.695	1	-10
422.889	1	0
424.084	1	12
425.278	1	0
426.472	1	-4
427.667	1	0
428.861	1	6
430.055	1	-1
431.250	1	20
432.444	1	3
433.638	1	10
434.832	1	11
436.026	1	9
437.220	1	-2
438.414	1	4
439.608	1	1
440.802	1	7
441.996	1	-1
443.190	1	5
444.384	1	-3
445.578	1	13
446.771	1	-3
447.965	1	7
449.159	1	1
450.352	1	-6
451.546	1	-4
452.739	1	8
453.933	1	-1
455.126	1	8
456.320	1	4
457.513	1	4
458.706	1	8
459.899	1	-1
461.093	1	8
462.286	1	1
463.479	1	0
464.672	1	3
465.865	1	-2
467.058	1	9
468.251	1	8
469.444	1	-3
470.637	1	-6
471.830	1	-1
473.023	1	2
474.215	1	12
475.408	1	-8
476.601	1	3
477.793	1	0
478.986	1	-2
480.179	1	-8
481.371	1	-1
482.564	1	-4
483.756	1	0
484.948	1	-5
486.141	1	5
487.333	1	-5
488.525	1	8
489.718	1	3
490.910	1	0
492.102	1	0
493.294	1	-4
494.486	1	9
495.678	1	9
496.870	1	1
498.062	1	3
499.254	1	7
500.446	1	2
501.638	1	-1
502.829	1	7
504.021	1	7
505.213	1	6
506.404	1	6
507.596	1	15
508.788	1	-2
509.979	1	-4
511.171	1	2
512.362	1	3
513.553	1	2
514.745	1	0
515.936	1	5
517.127	1	5
518.319	1	7
519.510	1	1
520.701	1	6
521.892	1	13
523.083	1	0
524.274	1	14
525.465	1	11
526.656	1	12
527.847	1	7
529.038	1	2
530.229	1	12
531.419	1	13
532.610	1	3
533.801	1	9
534.991	1	5
536.182	1	7
537.373	1	6
538.563	1	8
539.754	1	-1
540.944	1	0
542.134	1	-3
543.325	1	6
544.515	1	9
545.705	1	7
546.896	1	3
548.086	1	8
549.276	1	4
550.466	1	3
551.656	1	3
552.846	1	4
554.036	1	9
555.226	1	-12
556.416	1	-4
557.606	1	4
558.796	1	4
559.986	1	7
561.175	1	-8
562.365	1	1
563.555	1	2
564.744	1	0
565.934	1	5
567.123	1	3
568.313	1	3
569.502	1	9
570.692	1	16
571.881	1	-1
573.070	1	1
574.260	1	9
575.449	1	11
576.638	1	6
577.827	1	6
579.016	1	4
580.205	1	3
581.394	1	5
582.583	1	2
583.772	1	-2
584.961	1	-8
586.150	1	-3
587.339	1	7
588.528	1	-2
589.717	1	2
590.905	1	4
592.094	1	13
593.283	1	14
594.471	1	10
595.660	1	4
596.848	1	7
598.037	1	-2
599.225	1	-7
600.413	1	0
601.602	1	2
602.790	1	5
603.978	1	1
605.166	1	9
606.355	1	2
607.543	1	6
608.731	1	8
609.919	1	6
611.107	1	-3
612.295	1	2
613.483	1	-6
614.671	1	16
615.858	1	3
617.046	1	-3
618.234	1	3
619.422	1	4
620.609	1	-5
621.797	1	2
622.985	1	5
624.172	1	4
625.360	1	-3
626.547	1	3
627.735	1	-3
628.922	1	-5
630.109	1	-8
631.297	1	-3
632.484	1	4
633.671	1	7
634.858	1	-1
636.045	1	3
637.232	1	4
638.419	1	-10
639.606	1	-3
640.793	1	1
641.980	1	-2
643.167	1	-5
644.354	1	-3
645.541	1	4
646.728	1	-3
647.914	1	2
649.101	1	7
650.288	1	6
651.474	1	8
652.661	1	-1
653.847	1	3
655.034	1	-3
656.220	1	0
657.406	1	-1
658.593	1	2
659.779	1	-3
660.965	1	12
662.152	1	4
663.338	1	14
664.524	1	2
665.710	1	1
666.896	1	-5
668.082	1	14
669.268	1	-5
670.454	1	0
671.640	1	7
672.826	1	7
674.011	1	7
675.197	1	8
676.383	1	7
677.569	1	-5
678.754	1	4
679.940	1	13
681.125	1	4
682.311	1	5
683.496	1	8
684.682	1	2
685.867	1	-1
687.053	1	-13
688.238	1	1
688.746	1	4