Folder: cryo-il_analysis/Data/GaN_130K_350ms (part 10)

File: GaN_sample F_spot6_UVVIS_130 K_200um_350 ms 2x2mm1_151.txt
340.368	1	2
341.565	1	6
342.763	1	7
343.960	1	-12
345.157	1	-11
346.354	1	-1
347.552	1	3
348.749	1	18
349.946	1	7
351.143	1	5
352.340	1	10
353.537	1	2
354.734	1	6
355.931	1	4
357.127	1	10
358.324	1	8
359.521	1	7
360.718	1	18
361.914	1	16
363.111	1	37
364.308	1	25
365.504	1	34
366.701	1	25
367.897	1	34
369.093	1	41
370.290	1	37
371.486	1	30
372.682	1	20
373.879	1	36
375.075	1	28
376.271	1	25
377.467	1	17
378.663	1	13
379.859	1	17
381.055	1	16
382.251	1	12
383.447	1	14
384.643	1	16
385.839	1	11
387.035	1	12
388.230	1	6
389.426	1	4
390.622	1	8
391.817	1	21
393.013	1	16
394.208	1	3
395.404	1	-8
396.599	1	6
397.795	1	-8
398.990	1	8
400.186	1	4
401.381	1	9
402.576	1	8
403.771	1	20
404.967	1	11
406.162	1	0
407.357	1	7
408.552	1	-5
409.747	1	9
410.942	1	10
412.137	1	-1
413.332	1	-2
414.526	1	4
415.721	1	-1
416.916	1	0
418.111	1	11
419.305	1	2
420.500	1	11
421.695	1	2
422.889	1	2
424.084	1	13
425.278	1	4
426.472	1	11
427.667	1	8
428.861	1	0
430.055	1	9
431.250	1	13
432.444	1	8
433.638	1	-2
434.832	1	2
436.026	1	5
437.220	1	-4
438.414	1	-2
439.608	1	16
440.802	1	-5
441.996	1	12
443.190	1	6
444.384	1	4
445.578	1	-2
446.771	1	3
447.965	1	-5
449.159	1	8
450.352	1	14
451.546	1	9
452.739	1	3
453.933	1	9
455.126	1	-5
456.320	1	-1
457.513	1	-10
458.706	1	6
459.899	1	5
461.093	1	1
462.286	1	10
463.479	1	11
464.672	1	9
465.865	1	3
467.058	1	7
468.251	1	6
469.444	1	4
470.637	1	10
471.830	1	7
473.023	1	7
474.215	1	5
475.408	1	8
476.601	1	0
477.793	1	0
478.986	1	1
480.179	1	-1
481.371	1	14
482.564	1	3
483.756	1	-4
484.948	1	4
486.141	1	12
487.333	1	1
488.525	1	4
489.718	1	13
490.910	1	3
492.102	1	17
493.294	1	13
494.486	1	20
495.678	1	6
496.870	1	5
498.062	1	-1
499.254	1	9
500.446	1	13
501.638	1	7
502.829	1	6
504.021	1	7
505.213	1	6
506.404	1	10
507.596	1	-2
508.788	1	7
509.979	1	16
511.171	1	22
512.362	1	10
513.553	1	13
514.745	1	10
515.936	1	17
517.127	1	10
518.319	1	1
519.510	1	10
520.701	1	5
521.892	1	19
523.083	1	10
524.274	1	11
525.465	1	19
526.656	1	18
527.847	1	13
529.038	1	10
530.229	1	8
531.419	1	17
532.610	1	7
533.801	1	23
534.991	1	13
536.182	1	18
537.373	1	12
538.563	1	17
539.754	1	2
540.944	1	16
542.134	1	8
543.325	1	8
544.515	1	17
545.705	1	12
546.896	1	12
548.086	1	0
549.276	1	5
550.466	1	12
551.656	1	12
552.846	1	5
554.036	1	17
555.226	1	8
556.416	1	15
557.606	1	7
558.796	1	20
559.986	1	17
561.175	1	16
562.365	1	17
563.555	1	21
564.744	1	17
565.934	1	5
567.123	1	9
568.313	1	5
569.502	1	6
570.692	1	11
571.881	1	11
573.070	1	3
574.260	1	11
575.449	1	3
576.638	1	2
577.827	1	6
579.016	1	9
580.205	1	-3
581.394	1	6
582.583	1	19
583.772	1	8
584.961	1	4
586.150	1	8
587.339	1	9
588.528	1	8
589.717	1	-5
590.905	1	9
592.094	1	14
593.283	1	0
594.471	1	8
595.660	1	11
596.848	1	4
598.037	1	8
599.225	1	5
600.413	1	0
601.602	1	0
602.790	1	2
603.978	1	3
605.166	1	8
606.355	1	7
607.543	1	7
608.731	1	9
609.919	1	12
611.107	1	4
612.295	1	11
613.483	1	-5
614.671	1	8
615.858	1	3
617.046	1	11
618.234	1	8
619.422	1	-1
620.609	1	-4
621.797	1	-2
622.985	1	5
624.172	1	4
625.360	1	6
626.547	1	-2
627.735	1	10
628.922	1	-4
630.109	1	10
631.297	1	5
632.484	1	-6
633.671	1	-3
634.858	1	9
636.045	1	22
637.232	1	-2
638.419	1	13
639.606	1	12
640.793	1	-8
641.980	1	7
643.167	1	6
644.354	1	-5
645.541	1	-1
646.728	1	16
647.914	1	-1
649.101	1	-5
650.288	1	5
651.474	1	1
652.661	1	6
653.847	1	-1
655.034	1	-4
656.220	1	-4
657.406	1	-1
658.593	1	1
659.779	1	2
660.965	1	12
662.152	1	5
663.338	1	4
664.524	1	-4
665.710	1	6
666.896	1	14
668.082	1	0
669.268	1	-3
670.454	1	5
671.640	1	-10
672.826	1	5
674.011	1	3
675.197	1	-4
676.383	1	7
677.569	1	4
678.754	1	14
679.940	1	8
681.125	1	20
682.311	1	-8
683.496	1	-6
684.682	1	1
685.867	1	11
687.053	1	10
688.238	1	9
688.746	1	10

File: GaN_sample F_spot6_UVVIS_130 K_200um_350 ms 2x2mm1_152.txt
340.368	1	9
341.565	1	-3
342.763	1	14
343.960	1	-9
345.157	1	-11
346.354	1	2
347.552	1	-8
348.749	1	8
349.946	1	10
351.143	1	3
352.340	1	5
353.537	1	-2
354.734	1	-1
355.931	1	-1
357.127	1	9
358.324	1	10
359.521	1	4
360.718	1	8
361.914	1	14
363.111	1	25
364.308	1	27
365.504	1	30
366.701	1	40
367.897	1	33
369.093	1	32
370.290	1	41
371.486	1	37
372.682	1	20
373.879	1	30
375.075	1	20
376.271	1	19
377.467	1	21
378.663	1	25
379.859	1	7
381.055	1	16
382.251	1	8
383.447	1	12
384.643	1	21
385.839	1	12
387.035	1	12
388.230	1	-1
389.426	1	14
390.622	1	8
391.817	1	17
393.013	1	8
394.208	1	-2
395.404	1	1
396.599	1	11
397.795	1	11
398.990	1	7
400.186	1	1
401.381	1	7
402.576	1	-2
403.771	1	12
404.967	1	-1
406.162	1	3
407.357	1	6
408.552	1	0
409.747	1	-5
410.942	1	9
412.137	1	2
413.332	1	-3
414.526	1	7
415.721	1	1
416.916	1	0
418.111	1	9
419.305	1	4
420.500	1	3
421.695	1	1
422.889	1	8
424.084	1	12
425.278	1	-5
426.472	1	-3
427.667	1	16
428.861	1	3
430.055	1	1
431.250	1	9
432.444	1	8
433.638	1	3
434.832	1	7
436.026	1	4
437.220	1	7
438.414	1	4
439.608	1	18
440.802	1	4
441.996	1	13
443.190	1	9
444.384	1	-1
445.578	1	4
446.771	1	3
447.965	1	0
449.159	1	9
450.352	1	11
451.546	1	23
452.739	1	0
453.933	1	-6
455.126	1	-5
456.320	1	8
457.513	1	-6
458.706	1	3
459.899	1	-1
461.093	1	11
462.286	1	4
463.479	1	4
464.672	1	6
465.865	1	-6
467.058	1	4
468.251	1	8
469.444	1	6
470.637	1	10
471.830	1	7
473.023	1	12
474.215	1	2
475.408	1	10
476.601	1	4
477.793	1	2
478.986	1	-2
480.179	1	0
481.371	1	10
482.564	1	1
483.756	1	1
484.948	1	7
486.141	1	4
487.333	1	-1
488.525	1	5
489.718	1	-1
490.910	1	0
492.102	1	13
493.294	1	9
494.486	1	22
495.678	1	-1
496.870	1	8
498.062	1	0
499.254	1	13
500.446	1	10
501.638	1	8
502.829	1	13
504.021	1	3
505.213	1	8
506.404	1	8
507.596	1	14
508.788	1	9
509.979	1	4
511.171	1	12
512.362	1	8
513.553	1	18
514.745	1	11
515.936	1	17
517.127	1	14
518.319	1	7
519.510	1	9
520.701	1	7
521.892	1	22
523.083	1	12
524.274	1	6
525.465	1	17
526.656	1	20
527.847	1	8
529.038	1	9
530.229	1	13
531.419	1	20
532.610	1	14
533.801	1	22
534.991	1	13
536.182	1	21
537.373	1	13
538.563	1	22
539.754	1	14
540.944	1	13
542.134	1	12
543.325	1	3
544.515	1	17
545.705	1	7
546.896	1	14
548.086	1	-3
549.276	1	-1
550.466	1	19
551.656	1	12
552.846	1	5
554.036	1	16
555.226	1	16
556.416	1	13
557.606	1	10
558.796	1	21
559.986	1	8
561.175	1	10
562.365	1	17
563.555	1	19
564.744	1	6
565.934	1	6
567.123	1	14
568.313	1	1
569.502	1	-1
570.692	1	9
571.881	1	2
573.070	1	7
574.260	1	1
575.449	1	10
576.638	1	7
577.827	1	1
579.016	1	10
580.205	1	3
581.394	1	1
582.583	1	15
583.772	1	3
584.961	1	3
586.150	1	5
587.339	1	3
588.528	1	11
589.717	1	-6
590.905	1	7
592.094	1	-2
593.283	1	-7
594.471	1	5
595.660	1	9
596.848	1	9
598.037	1	10
599.225	1	5
600.413	1	10
601.602	1	-10
602.790	1	-2
603.978	1	5
605.166	1	11
606.355	1	9
607.543	1	-1
608.731	1	12
609.919	1	13
611.107	1	9
612.295	1	9
613.483	1	3
614.671	1	9
615.858	1	0
617.046	1	13
618.234	1	7
619.422	1	-6
620.609	1	1
621.797	1	2
622.985	1	10
624.172	1	3
625.360	1	0
626.547	1	3
627.735	1	10
628.922	1	5
630.109	1	11
631.297	1	6
632.484	1	2
633.671	1	-2
634.858	1	6
636.045	1	26
637.232	1	1
638.419	1	3
639.606	1	0
640.793	1	-10
641.980	1	-6
643.167	1	3
644.354	1	-5
645.541	1	0
646.728	1	0
647.914	1	0
649.101	1	-2
650.288	1	12
651.474	1	1
652.661	1	1
653.847	1	1
655.034	1	3
656.220	1	10
657.406	1	3
658.593	1	2
659.779	1	-2
660.965	1	-3
662.152	1	1
663.338	1	2
664.524	1	-1
665.710	1	3
666.896	1	4
668.082	1	6
669.268	1	-3
670.454	1	-5
671.640	1	-7
672.826	1	-4
674.011	1	0
675.197	1	0
676.383	1	2
677.569	1	3
678.754	1	3
679.940	1	1
681.125	1	8
682.311	1	-8
683.496	1	7
684.682	1	2
685.867	1	-5
687.053	1	1
688.238	1	17
688.746	1	1

File: GaN_sample F_spot6_UVVIS_130 K_200um_350 ms 2x2mm1_153.txt
340.368	1	-2
341.565	1	7
342.763	1	7
343.960	1	-7
345.157	1	-4
346.354	1	6
347.552	1	2
348.749	1	9
349.946	1	8
351.143	1	8
352.340	1	11
353.537	1	2
354.734	1	3
355.931	1	3
357.127	1	4
358.324	1	6
359.521	1	3
360.718	1	14
361.914	1	16
363.111	1	26
364.308	1	24
365.504	1	37
366.701	1	24
367.897	1	30
369.093	1	28
370.290	1	39
371.486	1	23
372.682	1	15
373.879	1	25
375.075	1	19
376.271	1	27
377.467	1	18
378.663	1	21
379.859	1	10
381.055	1	18
382.251	1	13
383.447	1	1
384.643	1	15
385.839	1	8
387.035	1	20
388.230	1	-2
389.426	1	14
390.622	1	10
391.817	1	18
393.013	1	7
394.208	1	6
395.404	1	-4
396.599	1	3
397.795	1	0
398.990	1	8
400.186	1	2
401.381	1	7
402.576	1	8
403.771	1	8
404.967	1	7
406.162	1	5
407.357	1	8
408.552	1	6
409.747	1	4
410.942	1	12
412.137	1	0
413.332	1	4
414.526	1	10
415.721	1	1
416.916	1	7
418.111	1	10
419.305	1	1
420.500	1	11
421.695	1	5
422.889	1	10
424.084	1	11
425.278	1	3
426.472	1	-2
427.667	1	16
428.861	1	2
430.055	1	3
431.250	1	20
432.444	1	7
433.638	1	7
434.832	1	7
436.026	1	12
437.220	1	0
438.414	1	-1
439.608	1	9
440.802	1	1
441.996	1	13
443.190	1	4
444.384	1	7
445.578	1	2
446.771	1	12
447.965	1	-4
449.159	1	16
450.352	1	14
451.546	1	14
452.739	1	13
453.933	1	4
455.126	1	-7
456.320	1	-2
457.513	1	-11
458.706	1	2
459.899	1	1
461.093	1	12
462.286	1	12
463.479	1	16
464.672	1	5
465.865	1	-2
467.058	1	9
468.251	1	9
469.444	1	7
470.637	1	8
471.830	1	5
473.023	1	13
474.215	1	-3
475.408	1	10
476.601	1	0
477.793	1	-4
478.986	1	-4
480.179	1	-1
481.371	1	7
482.564	1	-1
483.756	1	3
484.948	1	-5
486.141	1	7
487.333	1	-7
488.525	1	5
489.718	1	12
490.910	1	-6
492.102	1	6
493.294	1	11
494.486	1	13
495.678	1	2
496.870	1	3
498.062	1	0
499.254	1	0
500.446	1	3
501.638	1	11
502.829	1	5
504.021	1	1
505.213	1	6
506.404	1	0
507.596	1	2
508.788	1	3
509.979	1	8
511.171	1	24
512.362	1	16
513.553	1	16
514.745	1	5
515.936	1	22
517.127	1	9
518.319	1	0
519.510	1	9
520.701	1	17
521.892	1	16
523.083	1	7
524.274	1	7
525.465	1	11
526.656	1	19
527.847	1	16
529.038	1	8
530.229	1	13
531.419	1	19
532.610	1	9
533.801	1	30
534.991	1	6
536.182	1	17
537.373	1	12
538.563	1	18
539.754	1	11
540.944	1	11
542.134	1	8
543.325	1	3
544.515	1	1
545.705	1	6
546.896	1	7
548.086	1	5
549.276	1	0
550.466	1	24
551.656	1	9
552.846	1	9
554.036	1	5
555.226	1	7
556.416	1	7
557.606	1	5
558.796	1	20
559.986	1	2
561.175	1	16
562.365	1	8
563.555	1	22
564.744	1	12
565.934	1	6
567.123	1	10
568.313	1	-2
569.502	1	7
570.692	1	16
571.881	1	0
573.070	1	10
574.260	1	9
575.449	1	16
576.638	1	-9
577.827	1	-8
579.016	1	-1
580.205	1	0
581.394	1	2
582.583	1	19
583.772	1	7
584.961	1	2
586.150	1	9
587.339	1	-2
588.528	1	9
589.717	1	0
590.905	1	10
592.094	1	11
593.283	1	-5
594.471	1	8
595.660	1	6
596.848	1	9
598.037	1	2
599.225	1	2
600.413	1	12
601.602	1	0
602.790	1	-3
603.978	1	10
605.166	1	11
606.355	1	6
607.543	1	14
608.731	1	6
609.919	1	13
611.107	1	8
612.295	1	15
613.483	1	11
614.671	1	7
615.858	1	-11
617.046	1	7
618.234	1	2
619.422	1	3
620.609	1	0
621.797	1	3
622.985	1	8
624.172	1	3
625.360	1	3
626.547	1	9
627.735	1	15
628.922	1	-3
630.109	1	12
631.297	1	2
632.484	1	-6
633.671	1	-1
634.858	1	4
636.045	1	12
637.232	1	-1
638.419	1	6
639.606	1	14
640.793	1	-6
641.980	1	-5
643.167	1	8
644.354	1	1
645.541	1	7
646.728	1	15
647.914	1	6
649.101	1	-3
650.288	1	4
651.474	1	1
652.661	1	3
653.847	1	-5
655.034	1	2
656.220	1	6
657.406	1	5
658.593	1	0
659.779	1	8
660.965	1	0
662.152	1	-1
663.338	1	3
664.524	1	-3
665.710	1	4
666.896	1	5
668.082	1	6
669.268	1	2
670.454	1	-3
671.640	1	-8
672.826	1	2
674.011	1	1
675.197	1	2
676.383	1	6
677.569	1	4
678.754	1	1
679.940	1	-3
681.125	1	9
682.311	1	-10
683.496	1	5
684.682	1	1
685.867	1	12
687.053	1	8
688.238	1	13
688.746	1	3

File: GaN_sample F_spot6_UVVIS_130 K_200um_350 ms 2x2mm1_154.txt
340.368	1	2
341.565	1	8
342.763	1	6
343.960	1	-5
345.157	1	-6
346.354	1	8
347.552	1	0
348.749	1	-3
349.946	1	2
351.143	1	-4
352.340	1	12
353.537	1	0
354.734	1	3
355.931	1	9
357.127	1	11
358.324	1	5
359.521	1	4
360.718	1	19
361.914	1	19
363.111	1	25
364.308	1	19
365.504	1	33
366.701	1	39
367.897	1	41
369.093	1	28
370.290	1	40
371.486	1	33
372.682	1	27
373.879	1	22
375.075	1	31
376.271	1	18
377.467	1	21
378.663	1	15
379.859	1	11
381.055	1	7
382.251	1	4
383.447	1	26
384.643	1	22
385.839	1	10
387.035	1	17
388.230	1	7
389.426	1	29
390.622	1	7
391.817	1	7
393.013	1	3
394.208	1	6
395.404	1	-4
396.599	1	11
397.795	1	2
398.990	1	13
400.186	1	5
401.381	1	8
402.576	1	0
403.771	1	19
404.967	1	2
406.162	1	4
407.357	1	10
408.552	1	-4
409.747	1	-2
410.942	1	3
412.137	1	-2
413.332	1	-8
414.526	1	11
415.721	1	11
416.916	1	-2
418.111	1	13
419.305	1	10
420.500	1	9
421.695	1	-1
422.889	1	13
424.084	1	13
425.278	1	-5
426.472	1	6
427.667	1	9
428.861	1	4
430.055	1	1
431.250	1	13
432.444	1	2
433.638	1	4
434.832	1	-4
436.026	1	17
437.220	1	1
438.414	1	-2
439.608	1	18
440.802	1	-5
441.996	1	11
443.190	1	10
444.384	1	1
445.578	1	-6
446.771	1	11
447.965	1	4
449.159	1	10
450.352	1	13
451.546	1	14
452.739	1	11
453.933	1	9
455.126	1	-1
456.320	1	1
457.513	1	-1
458.706	1	6
459.899	1	5
461.093	1	7
462.286	1	6
463.479	1	9
464.672	1	12
465.865	1	-8
467.058	1	8
468.251	1	5
469.444	1	0
470.637	1	10
471.830	1	6
473.023	1	5
474.215	1	5
475.408	1	0
476.601	1	1
477.793	1	2
478.986	1	-3
480.179	1	5
481.371	1	10
482.564	1	-2
483.756	1	1
484.948	1	-2
486.141	1	-2
487.333	1	-1
488.525	1	7
489.718	1	6
490.910	1	-6
492.102	1	7
493.294	1	9
494.486	1	24
495.678	1	7
496.870	1	0
498.062	1	-1
499.254	1	6
500.446	1	16
501.638	1	11
502.829	1	3
504.021	1	9
505.213	1	8
506.404	1	3
507.596	1	0
508.788	1	13
509.979	1	9
511.171	1	13
512.362	1	3
513.553	1	21
514.745	1	6
515.936	1	20
517.127	1	20
518.319	1	2
519.510	1	6
520.701	1	7
521.892	1	12
523.083	1	12
524.274	1	4
525.465	1	15
526.656	1	8
527.847	1	3
529.038	1	8
530.229	1	16
531.419	1	12
532.610	1	12
533.801	1	35
534.991	1	13
536.182	1	24
537.373	1	11
538.563	1	10
539.754	1	5
540.944	1	8
542.134	1	16
543.325	1	12
544.515	1	7
545.705	1	8
546.896	1	16
548.086	1	0
549.276	1	5
550.466	1	14
551.656	1	15
552.846	1	8
554.036	1	10
555.226	1	5
556.416	1	14
557.606	1	9
558.796	1	20
559.986	1	13
561.175	1	6
562.365	1	6
563.555	1	13
564.744	1	12
565.934	1	4
567.123	1	9
568.313	1	7
569.502	1	7
570.692	1	15
571.881	1	3
573.070	1	1
574.260	1	8
575.449	1	3
576.638	1	-4
577.827	1	6
579.016	1	6
580.205	1	4
581.394	1	3
582.583	1	13
583.772	1	15
584.961	1	4
586.150	1	7
587.339	1	8
588.528	1	9
589.717	1	8
590.905	1	9
592.094	1	4
593.283	1	-1
594.471	1	3
595.660	1	4
596.848	1	6
598.037	1	6
599.225	1	2
600.413	1	-1
601.602	1	1
602.790	1	4
603.978	1	8
605.166	1	5
606.355	1	8
607.543	1	-1
608.731	1	15
609.919	1	11
611.107	1	5
612.295	1	13
613.483	1	-1
614.671	1	-1
615.858	1	-7
617.046	1	3
618.234	1	1
619.422	1	-2
620.609	1	12
621.797	1	0
622.985	1	10
624.172	1	5
625.360	1	1
626.547	1	4
627.735	1	10
628.922	1	0
630.109	1	9
631.297	1	2
632.484	1	-5
633.671	1	-6
634.858	1	12
636.045	1	21
637.232	1	-1
638.419	1	12
639.606	1	8
640.793	1	-3
641.980	1	0
643.167	1	3
644.354	1	3
645.541	1	1
646.728	1	1
647.914	1	-14
649.101	1	-3
650.288	1	4
651.474	1	2
652.661	1	3
653.847	1	4
655.034	1	4
656.220	1	1
657.406	1	6
658.593	1	7
659.779	1	0
660.965	1	8
662.152	1	3
663.338	1	1
664.524	1	1
665.710	1	11
666.896	1	5
668.082	1	1
669.268	1	-6
670.454	1	2
671.640	1	-3
672.826	1	-1
674.011	1	7
675.197	1	2
676.383	1	3
677.569	1	1
678.754	1	4
679.940	1	-4
681.125	1	9
682.311	1	2
683.496	1	-2
684.682	1	1
685.867	1	4
687.053	1	7
688.238	1	11
688.746	1	-8

File: GaN_sample F_spot6_UVVIS_130 K_200um_350 ms 2x2mm1_155.txt
340.368	1	-2
341.565	1	-2
342.763	1	6
343.960	1	-12
345.157	1	-14
346.354	1	3
347.552	1	-1
348.749	1	5
349.946	1	5
351.143	1	-1
352.340	1	7
353.537	1	6
354.734	1	6
355.931	1	4
357.127	1	8
358.324	1	6
359.521	1	14
360.718	1	19
361.914	1	8
363.111	1	27
364.308	1	26
365.504	1	29
366.701	1	42
367.897	1	33
369.093	1	26
370.290	1	46
371.486	1	30
372.682	1	26
373.879	1	23
375.075	1	25
376.271	1	17
377.467	1	22
378.663	1	15
379.859	1	9
381.055	1	10
382.251	1	5
383.447	1	10
384.643	1	11
385.839	1	10
387.035	1	15
388.230	1	11
389.426	1	19
390.622	1	8
391.817	1	11
393.013	1	10
394.208	1	8
395.404	1	1
396.599	1	3
397.795	1	-3
398.990	1	5
400.186	1	2
401.381	1	12
402.576	1	4
403.771	1	12
404.967	1	3
406.162	1	-3
407.357	1	8
408.552	1	-3
409.747	1	7
410.942	1	12
412.137	1	11
413.332	1	10
414.526	1	11
415.721	1	12
416.916	1	3
418.111	1	8
419.305	1	9
420.500	1	7
421.695	1	1
422.889	1	7
424.084	1	9
425.278	1	3
426.472	1	2
427.667	1	10
428.861	1	2
430.055	1	-2
431.250	1	17
432.444	1	15
433.638	1	10
434.832	1	3
436.026	1	10
437.220	1	0
438.414	1	-3
439.608	1	13
440.802	1	1
441.996	1	12
443.190	1	6
444.384	1	0
445.578	1	6
446.771	1	9
447.965	1	0
449.159	1	6
450.352	1	9
451.546	1	7
452.739	1	3
453.933	1	3
455.126	1	-2
456.320	1	-5
457.513	1	-4
458.706	1	11
459.899	1	5
461.093	1	19
462.286	1	12
463.479	1	5
464.672	1	6
465.865	1	-5
467.058	1	3
468.251	1	7
469.444	1	-2
470.637	1	1
471.830	1	-2
473.023	1	3
474.215	1	2
475.408	1	11
476.601	1	-3
477.793	1	-1
478.986	1	9
480.179	1	3
481.371	1	6
482.564	1	0
483.756	1	1
484.948	1	6
486.141	1	-1
487.333	1	-2
488.525	1	9
489.718	1	7
490.910	1	-1
492.102	1	14
493.294	1	10
494.486	1	14
495.678	1	9
496.870	1	8
498.062	1	-5
499.254	1	12
500.446	1	9
501.638	1	6
502.829	1	9
504.021	1	5
505.213	1	10
506.404	1	0
507.596	1	13
508.788	1	11
509.979	1	-2
511.171	1	17
512.362	1	22
513.553	1	17
514.745	1	0
515.936	1	23
517.127	1	13
518.319	1	4
519.510	1	7
520.701	1	16
521.892	1	19
523.083	1	14
524.274	1	4
525.465	1	13
526.656	1	24
527.847	1	11
529.038	1	4
530.229	1	18
531.419	1	16
532.610	1	14
533.801	1	21
534.991	1	16
536.182	1	18
537.373	1	11
538.563	1	15
539.754	1	13
540.944	1	9
542.134	1	5
543.325	1	6
544.515	1	15
545.705	1	7
546.896	1	14
548.086	1	-4
549.276	1	3
550.466	1	12
551.656	1	11
552.846	1	0
554.036	1	12
555.226	1	14
556.416	1	11
557.606	1	8
558.796	1	17
559.986	1	6
561.175	1	14
562.365	1	13
563.555	1	11
564.744	1	10
565.934	1	11
567.123	1	-1
568.313	1	3
569.502	1	9
570.692	1	14
571.881	1	6
573.070	1	9
574.260	1	8
575.449	1	9
576.638	1	4
577.827	1	1
579.016	1	3
580.205	1	-6
581.394	1	-8
582.583	1	7
583.772	1	23
584.961	1	0
586.150	1	9
587.339	1	3
588.528	1	11
589.717	1	5
590.905	1	10
592.094	1	4
593.283	1	-2
594.471	1	-3
595.660	1	3
596.848	1	7
598.037	1	8
599.225	1	10
600.413	1	12
601.602	1	0
602.790	1	7
603.978	1	5
605.166	1	2
606.355	1	5
607.543	1	-1
608.731	1	-2
609.919	1	11
611.107	1	5
612.295	1	10
613.483	1	4
614.671	1	6
615.858	1	1
617.046	1	5
618.234	1	1
619.422	1	-2
620.609	1	-4
621.797	1	5
622.985	1	9
624.172	1	1
625.360	1	1
626.547	1	6
627.735	1	12
628.922	1	-2
630.109	1	6
631.297	1	1
632.484	1	-3
633.671	1	-3
634.858	1	13
636.045	1	23
637.232	1	-9
638.419	1	4
639.606	1	0
640.793	1	-10
641.980	1	-1
643.167	1	11
644.354	1	1
645.541	1	8
646.728	1	0
647.914	1	-8
649.101	1	-6
650.288	1	14
651.474	1	0
652.661	1	-6
653.847	1	6
655.034	1	7
656.220	1	-1
657.406	1	9
658.593	1	2
659.779	1	10
660.965	1	8
662.152	1	1
663.338	1	-6
664.524	1	1
665.710	1	-2
666.896	1	0
668.082	1	8
669.268	1	3
670.454	1	5
671.640	1	-13
672.826	1	7
674.011	1	-5
675.197	1	1
676.383	1	2
677.569	1	7
678.754	1	13
679.940	1	0
681.125	1	7
682.311	1	-2
683.496	1	5
684.682	1	8
685.867	1	8
687.053	1	0
688.238	1	6
688.746	1	9

File: GaN_sample F_spot6_UVVIS_130 K_200um_350 ms 2x2mm1_156.txt
340.368	1	5
341.565	1	2
342.763	1	6
343.960	1	-4
345.157	1	-12
346.354	1	-1
347.552	1	10
348.749	1	5
349.946	1	5
351.143	1	8
352.340	1	17
353.537	1	1
354.734	1	2
355.931	1	8
357.127	1	14
358.324	1	-2
359.521	1	5
360.718	1	14
361.914	1	20
363.111	1	22
364.308	1	24
365.504	1	24
366.701	1	36
367.897	1	36
369.093	1	33
370.290	1	37
371.486	1	36
372.682	1	20
373.879	1	29
375.075	1	28
376.271	1	21
377.467	1	19
378.663	1	13
379.859	1	16
381.055	1	12
382.251	1	11
383.447	1	14
384.643	1	11
385.839	1	17
387.035	1	14
388.230	1	8
389.426	1	20
390.622	1	14
391.817	1	14
393.013	1	15
394.208	1	-1
395.404	1	2
396.599	1	9
397.795	1	9
398.990	1	0
400.186	1	5
401.381	1	4
402.576	1	14
403.771	1	22
404.967	1	3
406.162	1	4
407.357	1	0
408.552	1	-2
409.747	1	3
410.942	1	13
412.137	1	6
413.332	1	3
414.526	1	6
415.721	1	3
416.916	1	5
418.111	1	12
419.305	1	2
420.500	1	9
421.695	1	-5
422.889	1	3
424.084	1	13
425.278	1	8
426.472	1	4
427.667	1	18
428.861	1	8
430.055	1	1
431.250	1	16
432.444	1	10
433.638	1	8
434.832	1	1
436.026	1	7
437.220	1	0
438.414	1	-7
439.608	1	9
440.802	1	0
441.996	1	13
443.190	1	10
444.384	1	-5
445.578	1	1
446.771	1	5
447.965	1	4
449.159	1	6
450.352	1	9
451.546	1	12
452.739	1	5
453.933	1	9
455.126	1	-9
456.320	1	8
457.513	1	-10
458.706	1	11
459.899	1	-1
461.093	1	1
462.286	1	11
463.479	1	13
464.672	1	15
465.865	1	-4
467.058	1	14
468.251	1	-2
469.444	1	2
470.637	1	7
471.830	1	7
473.023	1	8
474.215	1	4
475.408	1	4
476.601	1	0
477.793	1	3
478.986	1	9
480.179	1	4
481.371	1	13
482.564	1	8
483.756	1	3
484.948	1	7
486.141	1	0
487.333	1	2
488.525	1	3
489.718	1	4
490.910	1	-5
492.102	1	1
493.294	1	8
494.486	1	17
495.678	1	3
496.870	1	7
498.062	1	-1
499.254	1	15
500.446	1	4
501.638	1	7
502.829	1	-3
504.021	1	5
505.213	1	8
506.404	1	12
507.596	1	-3
508.788	1	6
509.979	1	1
511.171	1	18
512.362	1	8
513.553	1	20
514.745	1	5
515.936	1	23
517.127	1	12
518.319	1	5
519.510	1	4
520.701	1	10
521.892	1	20
523.083	1	18
524.274	1	8
525.465	1	16
526.656	1	8
527.847	1	5
529.038	1	7
530.229	1	21
531.419	1	10
532.610	1	12
533.801	1	21
534.991	1	12
536.182	1	23
537.373	1	12
538.563	1	20
539.754	1	4
540.944	1	8
542.134	1	8
543.325	1	8
544.515	1	9
545.705	1	10
546.896	1	11
548.086	1	11
549.276	1	6
550.466	1	21
551.656	1	12
552.846	1	-2
554.036	1	7
555.226	1	3
556.416	1	13
557.606	1	9
558.796	1	11
559.986	1	5
561.175	1	17
562.365	1	16
563.555	1	17
564.744	1	6
565.934	1	5
567.123	1	2
568.313	1	2
569.502	1	10
570.692	1	13
571.881	1	7
573.070	1	12
574.260	1	6
575.449	1	10
576.638	1	-3
577.827	1	1
579.016	1	6
580.205	1	-1
581.394	1	7
582.583	1	10
583.772	1	4
584.961	1	0
586.150	1	11
587.339	1	12
588.528	1	7
589.717	1	0
590.905	1	0
592.094	1	5
593.283	1	-6
594.471	1	3
595.660	1	1
596.848	1	6
598.037	1	11
599.225	1	7
600.413	1	8
601.602	1	1
602.790	1	0
603.978	1	6
605.166	1	5
606.355	1	7
607.543	1	4
608.731	1	-1
609.919	1	2
611.107	1	6
612.295	1	7
613.483	1	-6
614.671	1	5
615.858	1	-3
617.046	1	8
618.234	1	1
619.422	1	13
620.609	1	3
621.797	1	-7
622.985	1	9
624.172	1	7
625.360	1	4
626.547	1	7
627.735	1	9
628.922	1	-2
630.109	1	15
631.297	1	11
632.484	1	-7
633.671	1	-3
634.858	1	11
636.045	1	15
637.232	1	0
638.419	1	6
639.606	1	14
640.793	1	-5
641.980	1	4
643.167	1	-2
644.354	1	-2
645.541	1	-1
646.728	1	5
647.914	1	-2
649.101	1	-2
650.288	1	4
651.474	1	-3
652.661	1	-3
653.847	1	-2
655.034	1	-2
656.220	1	3
657.406	1	8
658.593	1	2
659.779	1	2
660.965	1	3
662.152	1	4
663.338	1	11
664.524	1	4
665.710	1	6
666.896	1	9
668.082	1	2
669.268	1	0
670.454	1	1
671.640	1	-2
672.826	1	2
674.011	1	-3
675.197	1	-1
676.383	1	6
677.569	1	2
678.754	1	6
679.940	1	8
681.125	1	11
682.311	1	-8
683.496	1	-1
684.682	1	10
685.867	1	7
687.053	1	5
688.238	1	12
688.746	1	4