Folder: cryo-il_analysis/Data/GaN_200K_800ms (part 8)

File: GaN_sample F_spot 12_UVVIS_200 K_200um_800 ms 2x2mm1_59.txt
340.368	1	5
341.565	1	-5
342.763	1	14
343.960	1	5
345.157	1	2
346.354	1	6
347.552	1	-11
348.749	1	5
349.946	1	8
351.143	1	3
352.340	1	14
353.537	1	8
354.734	1	14
355.931	1	12
357.127	1	26
358.324	1	27
359.521	1	45
360.718	1	50
361.914	1	60
363.111	1	75
364.308	1	110
365.504	1	177
366.701	1	220
367.897	1	257
369.093	1	297
370.290	1	307
371.486	1	269
372.682	1	229
373.879	1	187
375.075	1	164
376.271	1	137
377.467	1	114
378.663	1	89
379.859	1	82
381.055	1	71
382.251	1	59
383.447	1	45
384.643	1	56
385.839	1	50
387.035	1	43
388.230	1	41
389.426	1	31
390.622	1	27
391.817	1	23
393.013	1	21
394.208	1	19
395.404	1	4
396.599	1	6
397.795	1	15
398.990	1	11
400.186	1	14
401.381	1	4
402.576	1	-2
403.771	1	7
404.967	1	10
406.162	1	13
407.357	1	-1
408.552	1	6
409.747	1	2
410.942	1	15
412.137	1	17
413.332	1	0
414.526	1	-1
415.721	1	6
416.916	1	7
418.111	1	4
419.305	1	5
420.500	1	-1
421.695	1	9
422.889	1	-2
424.084	1	10
425.278	1	17
426.472	1	6
427.667	1	13
428.861	1	-6
430.055	1	2
431.250	1	-2
432.444	1	11
433.638	1	9
434.832	1	4
436.026	1	8
437.220	1	1
438.414	1	-4
439.608	1	0
440.802	1	-1
441.996	1	11
443.190	1	8
444.384	1	-8
445.578	1	-5
446.771	1	10
447.965	1	5
449.159	1	3
450.352	1	2
451.546	1	-2
452.739	1	8
453.933	1	0
455.126	1	-4
456.320	1	3
457.513	1	3
458.706	1	-1
459.899	1	3
461.093	1	1
462.286	1	4
463.479	1	4
464.672	1	-1
465.865	1	-3
467.058	1	0
468.251	1	9
469.444	1	1
470.637	1	8
471.830	1	-1
473.023	1	1
474.215	1	9
475.408	1	6
476.601	1	0
477.793	1	6
478.986	1	-6
480.179	1	3
481.371	1	7
482.564	1	0
483.756	1	3
484.948	1	0
486.141	1	3
487.333	1	-3
488.525	1	4
489.718	1	11
490.910	1	7
492.102	1	-3
493.294	1	3
494.486	1	10
495.678	1	12
496.870	1	12
498.062	1	14
499.254	1	11
500.446	1	5
501.638	1	18
502.829	1	13
504.021	1	13
505.213	1	19
506.404	1	15
507.596	1	11
508.788	1	24
509.979	1	12
511.171	1	13
512.362	1	16
513.553	1	9
514.745	1	6
515.936	1	10
517.127	1	11
518.319	1	11
519.510	1	18
520.701	1	15
521.892	1	16
523.083	1	11
524.274	1	17
525.465	1	22
526.656	1	12
527.847	1	22
529.038	1	20
530.229	1	25
531.419	1	37
532.610	1	23
533.801	1	33
534.991	1	35
536.182	1	18
537.373	1	26
538.563	1	29
539.754	1	33
540.944	1	22
542.134	1	27
543.325	1	27
544.515	1	29
545.705	1	40
546.896	1	20
548.086	1	35
549.276	1	30
550.466	1	38
551.656	1	44
552.846	1	30
554.036	1	30
555.226	1	16
556.416	1	31
557.606	1	29
558.796	1	29
559.986	1	27
561.175	1	31
562.365	1	31
563.555	1	28
564.744	1	34
565.934	1	38
567.123	1	25
568.313	1	33
569.502	1	26
570.692	1	31
571.881	1	45
573.070	1	36
574.260	1	28
575.449	1	25
576.638	1	8
577.827	1	19
579.016	1	37
580.205	1	19
581.394	1	26
582.583	1	35
583.772	1	28
584.961	1	37
586.150	1	25
587.339	1	26
588.528	1	28
589.717	1	15
590.905	1	30
592.094	1	29
593.283	1	33
594.471	1	25
595.660	1	15
596.848	1	7
598.037	1	0
599.225	1	10
600.413	1	25
601.602	1	24
602.790	1	22
603.978	1	13
605.166	1	20
606.355	1	29
607.543	1	16
608.731	1	21
609.919	1	25
611.107	1	18
612.295	1	14
613.483	1	17
614.671	1	20
615.858	1	18
617.046	1	16
618.234	1	17
619.422	1	1
620.609	1	17
621.797	1	16
622.985	1	16
624.172	1	15
625.360	1	15
626.547	1	18
627.735	1	18
628.922	1	13
630.109	1	7
631.297	1	17
632.484	1	9
633.671	1	5
634.858	1	18
636.045	1	24
637.232	1	12
638.419	1	10
639.606	1	20
640.793	1	22
641.980	1	13
643.167	1	7
644.354	1	16
645.541	1	13
646.728	1	10
647.914	1	7
649.101	1	9
650.288	1	12
651.474	1	9
652.661	1	14
653.847	1	5
655.034	1	6
656.220	1	4
657.406	1	13
658.593	1	8
659.779	1	16
660.965	1	13
662.152	1	5
663.338	1	19
664.524	1	2
665.710	1	3
666.896	1	5
668.082	1	5
669.268	1	14
670.454	1	9
671.640	1	11
672.826	1	5
674.011	1	5
675.197	1	3
676.383	1	11
677.569	1	9
678.754	1	2
679.940	1	0
681.125	1	17
682.311	1	9
683.496	1	15
684.682	1	6
685.867	1	16
687.053	1	12
688.238	1	13
688.746	1	7

File: GaN_sample F_spot 12_UVVIS_200 K_200um_800 ms 2x2mm1_60.txt
340.368	1	3
341.565	1	-10
342.763	1	11
343.960	1	7
345.157	1	-1
346.354	1	2
347.552	1	-3
348.749	1	0
349.946	1	0
351.143	1	12
352.340	1	12
353.537	1	17
354.734	1	16
355.931	1	17
357.127	1	17
358.324	1	39
359.521	1	42
360.718	1	46
361.914	1	71
363.111	1	81
364.308	1	114
365.504	1	149
366.701	1	202
367.897	1	237
369.093	1	287
370.290	1	280
371.486	1	266
372.682	1	231
373.879	1	180
375.075	1	171
376.271	1	129
377.467	1	110
378.663	1	93
379.859	1	80
381.055	1	79
382.251	1	62
383.447	1	45
384.643	1	54
385.839	1	42
387.035	1	53
388.230	1	31
389.426	1	29
390.622	1	16
391.817	1	33
393.013	1	25
394.208	1	14
395.404	1	17
396.599	1	4
397.795	1	11
398.990	1	13
400.186	1	10
401.381	1	10
402.576	1	5
403.771	1	11
404.967	1	9
406.162	1	10
407.357	1	1
408.552	1	9
409.747	1	9
410.942	1	19
412.137	1	0
413.332	1	18
414.526	1	11
415.721	1	5
416.916	1	1
418.111	1	6
419.305	1	6
420.500	1	-4
421.695	1	3
422.889	1	-5
424.084	1	0
425.278	1	19
426.472	1	7
427.667	1	13
428.861	1	-1
430.055	1	6
431.250	1	0
432.444	1	11
433.638	1	8
434.832	1	5
436.026	1	9
437.220	1	5
438.414	1	-7
439.608	1	-6
440.802	1	1
441.996	1	4
443.190	1	5
444.384	1	-4
445.578	1	-11
446.771	1	20
447.965	1	5
449.159	1	4
450.352	1	3
451.546	1	5
452.739	1	-2
453.933	1	0
455.126	1	-5
456.320	1	-1
457.513	1	8
458.706	1	-1
459.899	1	5
461.093	1	5
462.286	1	4
463.479	1	-1
464.672	1	0
465.865	1	6
467.058	1	-1
468.251	1	10
469.444	1	-1
470.637	1	3
471.830	1	4
473.023	1	2
474.215	1	6
475.408	1	2
476.601	1	-7
477.793	1	-2
478.986	1	1
480.179	1	7
481.371	1	3
482.564	1	11
483.756	1	8
484.948	1	-4
486.141	1	1
487.333	1	3
488.525	1	3
489.718	1	6
490.910	1	9
492.102	1	0
493.294	1	1
494.486	1	14
495.678	1	13
496.870	1	11
498.062	1	12
499.254	1	12
500.446	1	1
501.638	1	12
502.829	1	10
504.021	1	11
505.213	1	17
506.404	1	14
507.596	1	17
508.788	1	23
509.979	1	17
511.171	1	6
512.362	1	12
513.553	1	6
514.745	1	10
515.936	1	13
517.127	1	10
518.319	1	14
519.510	1	10
520.701	1	23
521.892	1	21
523.083	1	14
524.274	1	22
525.465	1	26
526.656	1	20
527.847	1	14
529.038	1	28
530.229	1	24
531.419	1	22
532.610	1	27
533.801	1	37
534.991	1	28
536.182	1	29
537.373	1	29
538.563	1	23
539.754	1	29
540.944	1	14
542.134	1	24
543.325	1	27
544.515	1	29
545.705	1	26
546.896	1	19
548.086	1	28
549.276	1	25
550.466	1	28
551.656	1	35
552.846	1	30
554.036	1	27
555.226	1	25
556.416	1	20
557.606	1	30
558.796	1	27
559.986	1	23
561.175	1	30
562.365	1	39
563.555	1	26
564.744	1	37
565.934	1	35
567.123	1	33
568.313	1	31
569.502	1	13
570.692	1	27
571.881	1	45
573.070	1	29
574.260	1	32
575.449	1	20
576.638	1	25
577.827	1	25
579.016	1	29
580.205	1	27
581.394	1	22
582.583	1	27
583.772	1	38
584.961	1	31
586.150	1	22
587.339	1	36
588.528	1	22
589.717	1	23
590.905	1	18
592.094	1	19
593.283	1	15
594.471	1	27
595.660	1	13
596.848	1	17
598.037	1	14
599.225	1	19
600.413	1	30
601.602	1	28
602.790	1	11
603.978	1	11
605.166	1	18
606.355	1	27
607.543	1	15
608.731	1	14
609.919	1	21
611.107	1	21
612.295	1	15
613.483	1	18
614.671	1	12
615.858	1	12
617.046	1	19
618.234	1	10
619.422	1	4
620.609	1	15
621.797	1	13
622.985	1	13
624.172	1	11
625.360	1	10
626.547	1	16
627.735	1	17
628.922	1	18
630.109	1	3
631.297	1	11
632.484	1	12
633.671	1	13
634.858	1	6
636.045	1	23
637.232	1	6
638.419	1	3
639.606	1	9
640.793	1	23
641.980	1	17
643.167	1	3
644.354	1	2
645.541	1	11
646.728	1	8
647.914	1	6
649.101	1	-2
650.288	1	15
651.474	1	6
652.661	1	7
653.847	1	20
655.034	1	12
656.220	1	5
657.406	1	15
658.593	1	5
659.779	1	9
660.965	1	16
662.152	1	13
663.338	1	7
664.524	1	6
665.710	1	13
666.896	1	-2
668.082	1	13
669.268	1	6
670.454	1	7
671.640	1	4
672.826	1	0
674.011	1	6
675.197	1	8
676.383	1	3
677.569	1	12
678.754	1	1
679.940	1	10
681.125	1	23
682.311	1	8
683.496	1	17
684.682	1	-3
685.867	1	6
687.053	1	11
688.238	1	8
688.746	1	5

File: GaN_sample F_spot 12_UVVIS_200 K_200um_800 ms 2x2mm1_61.txt
340.368	1	11
341.565	1	-9
342.763	1	15
343.960	1	4
345.157	1	3
346.354	1	-3
347.552	1	5
348.749	1	-4
349.946	1	0
351.143	1	1
352.340	1	17
353.537	1	23
354.734	1	25
355.931	1	14
357.127	1	26
358.324	1	25
359.521	1	37
360.718	1	45
361.914	1	69
363.111	1	78
364.308	1	102
365.504	1	145
366.701	1	188
367.897	1	242
369.093	1	264
370.290	1	273
371.486	1	259
372.682	1	206
373.879	1	170
375.075	1	148
376.271	1	138
377.467	1	110
378.663	1	102
379.859	1	90
381.055	1	74
382.251	1	49
383.447	1	44
384.643	1	45
385.839	1	39
387.035	1	46
388.230	1	38
389.426	1	27
390.622	1	23
391.817	1	19
393.013	1	17
394.208	1	17
395.404	1	19
396.599	1	6
397.795	1	16
398.990	1	4
400.186	1	8
401.381	1	9
402.576	1	1
403.771	1	10
404.967	1	4
406.162	1	12
407.357	1	15
408.552	1	9
409.747	1	4
410.942	1	11
412.137	1	8
413.332	1	11
414.526	1	-5
415.721	1	0
416.916	1	7
418.111	1	6
419.305	1	5
420.500	1	6
421.695	1	3
422.889	1	-5
424.084	1	-1
425.278	1	9
426.472	1	5
427.667	1	10
428.861	1	0
430.055	1	5
431.250	1	-3
432.444	1	5
433.638	1	0
434.832	1	4
436.026	1	6
437.220	1	13
438.414	1	-6
439.608	1	-5
440.802	1	2
441.996	1	8
443.190	1	7
444.384	1	-5
445.578	1	-5
446.771	1	13
447.965	1	-1
449.159	1	-9
450.352	1	7
451.546	1	-7
452.739	1	6
453.933	1	-3
455.126	1	-8
456.320	1	6
457.513	1	5
458.706	1	9
459.899	1	4
461.093	1	2
462.286	1	9
463.479	1	-5
464.672	1	7
465.865	1	4
467.058	1	-5
468.251	1	-1
469.444	1	0
470.637	1	5
471.830	1	7
473.023	1	10
474.215	1	12
475.408	1	4
476.601	1	-3
477.793	1	1
478.986	1	1
480.179	1	5
481.371	1	16
482.564	1	10
483.756	1	13
484.948	1	-1
486.141	1	-5
487.333	1	5
488.525	1	3
489.718	1	12
490.910	1	3
492.102	1	2
493.294	1	4
494.486	1	10
495.678	1	15
496.870	1	9
498.062	1	11
499.254	1	5
500.446	1	7
501.638	1	4
502.829	1	10
504.021	1	8
505.213	1	28
506.404	1	9
507.596	1	21
508.788	1	18
509.979	1	4
511.171	1	9
512.362	1	15
513.553	1	3
514.745	1	8
515.936	1	17
517.127	1	21
518.319	1	9
519.510	1	21
520.701	1	21
521.892	1	20
523.083	1	0
524.274	1	17
525.465	1	17
526.656	1	14
527.847	1	20
529.038	1	21
530.229	1	27
531.419	1	28
532.610	1	13
533.801	1	39
534.991	1	22
536.182	1	17
537.373	1	34
538.563	1	27
539.754	1	27
540.944	1	22
542.134	1	26
543.325	1	26
544.515	1	25
545.705	1	26
546.896	1	22
548.086	1	30
549.276	1	23
550.466	1	35
551.656	1	24
552.846	1	29
554.036	1	29
555.226	1	14
556.416	1	21
557.606	1	30
558.796	1	32
559.986	1	19
561.175	1	36
562.365	1	18
563.555	1	18
564.744	1	25
565.934	1	24
567.123	1	27
568.313	1	30
569.502	1	18
570.692	1	28
571.881	1	38
573.070	1	23
574.260	1	27
575.449	1	24
576.638	1	20
577.827	1	20
579.016	1	37
580.205	1	22
581.394	1	28
582.583	1	27
583.772	1	35
584.961	1	20
586.150	1	25
587.339	1	28
588.528	1	26
589.717	1	13
590.905	1	23
592.094	1	21
593.283	1	21
594.471	1	19
595.660	1	18
596.848	1	18
598.037	1	15
599.225	1	14
600.413	1	19
601.602	1	23
602.790	1	16
603.978	1	19
605.166	1	26
606.355	1	16
607.543	1	16
608.731	1	21
609.919	1	25
611.107	1	21
612.295	1	11
613.483	1	19
614.671	1	9
615.858	1	20
617.046	1	5
618.234	1	9
619.422	1	5
620.609	1	19
621.797	1	13
622.985	1	14
624.172	1	16
625.360	1	16
626.547	1	10
627.735	1	20
628.922	1	22
630.109	1	10
631.297	1	11
632.484	1	0
633.671	1	11
634.858	1	3
636.045	1	25
637.232	1	4
638.419	1	5
639.606	1	20
640.793	1	20
641.980	1	22
643.167	1	8
644.354	1	7
645.541	1	12
646.728	1	10
647.914	1	8
649.101	1	9
650.288	1	16
651.474	1	4
652.661	1	8
653.847	1	19
655.034	1	15
656.220	1	-1
657.406	1	11
658.593	1	29
659.779	1	9
660.965	1	16
662.152	1	13
663.338	1	12
664.524	1	13
665.710	1	9
666.896	1	-1
668.082	1	13
669.268	1	2
670.454	1	10
671.640	1	12
672.826	1	14
674.011	1	6
675.197	1	1
676.383	1	9
677.569	1	11
678.754	1	1
679.940	1	9
681.125	1	17
682.311	1	19
683.496	1	3
684.682	1	5
685.867	1	6
687.053	1	10
688.238	1	3
688.746	1	11

File: GaN_sample F_spot 12_UVVIS_200 K_200um_800 ms 2x2mm1_62.txt
340.368	1	7
341.565	1	2
342.763	1	5
343.960	1	10
345.157	1	9
346.354	1	-2
347.552	1	9
348.749	1	-1
349.946	1	4
351.143	1	5
352.340	1	12
353.537	1	19
354.734	1	9
355.931	1	13
357.127	1	21
358.324	1	19
359.521	1	44
360.718	1	43
361.914	1	65
363.111	1	78
364.308	1	93
365.504	1	152
366.701	1	197
367.897	1	241
369.093	1	254
370.290	1	262
371.486	1	239
372.682	1	207
373.879	1	172
375.075	1	141
376.271	1	122
377.467	1	102
378.663	1	91
379.859	1	68
381.055	1	71
382.251	1	38
383.447	1	51
384.643	1	66
385.839	1	35
387.035	1	38
388.230	1	42
389.426	1	29
390.622	1	16
391.817	1	34
393.013	1	21
394.208	1	11
395.404	1	8
396.599	1	18
397.795	1	12
398.990	1	15
400.186	1	2
401.381	1	2
402.576	1	13
403.771	1	7
404.967	1	10
406.162	1	15
407.357	1	8
408.552	1	8
409.747	1	6
410.942	1	19
412.137	1	12
413.332	1	10
414.526	1	6
415.721	1	4
416.916	1	-1
418.111	1	11
419.305	1	6
420.500	1	-10
421.695	1	-1
422.889	1	2
424.084	1	11
425.278	1	14
426.472	1	1
427.667	1	7
428.861	1	1
430.055	1	4
431.250	1	5
432.444	1	10
433.638	1	-5
434.832	1	13
436.026	1	6
437.220	1	4
438.414	1	-3
439.608	1	-1
440.802	1	-3
441.996	1	4
443.190	1	4
444.384	1	-4
445.578	1	-12
446.771	1	13
447.965	1	5
449.159	1	-5
450.352	1	2
451.546	1	4
452.739	1	5
453.933	1	-5
455.126	1	-4
456.320	1	-1
457.513	1	10
458.706	1	6
459.899	1	2
461.093	1	5
462.286	1	8
463.479	1	-12
464.672	1	-4
465.865	1	5
467.058	1	5
468.251	1	0
469.444	1	0
470.637	1	1
471.830	1	-7
473.023	1	7
474.215	1	14
475.408	1	6
476.601	1	-2
477.793	1	11
478.986	1	3
480.179	1	5
481.371	1	9
482.564	1	1
483.756	1	11
484.948	1	-12
486.141	1	7
487.333	1	4
488.525	1	7
489.718	1	5
490.910	1	6
492.102	1	-3
493.294	1	0
494.486	1	12
495.678	1	13
496.870	1	6
498.062	1	9
499.254	1	7
500.446	1	8
501.638	1	9
502.829	1	12
504.021	1	16
505.213	1	20
506.404	1	11
507.596	1	17
508.788	1	29
509.979	1	22
511.171	1	14
512.362	1	5
513.553	1	3
514.745	1	13
515.936	1	19
517.127	1	10
518.319	1	15
519.510	1	15
520.701	1	12
521.892	1	22
523.083	1	13
524.274	1	17
525.465	1	16
526.656	1	13
527.847	1	25
529.038	1	15
530.229	1	30
531.419	1	18
532.610	1	11
533.801	1	40
534.991	1	23
536.182	1	26
537.373	1	19
538.563	1	27
539.754	1	22
540.944	1	25
542.134	1	27
543.325	1	11
544.515	1	16
545.705	1	22
546.896	1	20
548.086	1	25
549.276	1	24
550.466	1	31
551.656	1	34
552.846	1	36
554.036	1	28
555.226	1	13
556.416	1	25
557.606	1	29
558.796	1	29
559.986	1	27
561.175	1	30
562.365	1	24
563.555	1	25
564.744	1	27
565.934	1	22
567.123	1	33
568.313	1	23
569.502	1	22
570.692	1	36
571.881	1	28
573.070	1	23
574.260	1	21
575.449	1	16
576.638	1	17
577.827	1	15
579.016	1	25
580.205	1	24
581.394	1	23
582.583	1	30
583.772	1	22
584.961	1	25
586.150	1	26
587.339	1	26
588.528	1	25
589.717	1	24
590.905	1	20
592.094	1	18
593.283	1	35
594.471	1	28
595.660	1	23
596.848	1	10
598.037	1	7
599.225	1	3
600.413	1	14
601.602	1	30
602.790	1	19
603.978	1	13
605.166	1	23
606.355	1	27
607.543	1	11
608.731	1	20
609.919	1	23
611.107	1	22
612.295	1	7
613.483	1	20
614.671	1	27
615.858	1	11
617.046	1	16
618.234	1	8
619.422	1	4
620.609	1	16
621.797	1	10
622.985	1	12
624.172	1	7
625.360	1	13
626.547	1	9
627.735	1	16
628.922	1	15
630.109	1	11
631.297	1	10
632.484	1	12
633.671	1	13
634.858	1	6
636.045	1	22
637.232	1	8
638.419	1	3
639.606	1	14
640.793	1	15
641.980	1	18
643.167	1	9
644.354	1	8
645.541	1	-3
646.728	1	9
647.914	1	4
649.101	1	-6
650.288	1	21
651.474	1	12
652.661	1	6
653.847	1	15
655.034	1	15
656.220	1	3
657.406	1	10
658.593	1	14
659.779	1	8
660.965	1	23
662.152	1	15
663.338	1	8
664.524	1	11
665.710	1	5
666.896	1	2
668.082	1	6
669.268	1	9
670.454	1	16
671.640	1	9
672.826	1	13
674.011	1	9
675.197	1	-1
676.383	1	7
677.569	1	9
678.754	1	3
679.940	1	7
681.125	1	13
682.311	1	10
683.496	1	13
684.682	1	5
685.867	1	1
687.053	1	6
688.238	1	13
688.746	1	11

File: GaN_sample F_spot 12_UVVIS_200 K_200um_800 ms 2x2mm1_63.txt
340.368	1	3
341.565	1	-10
342.763	1	9
343.960	1	10
345.157	1	6
346.354	1	3
347.552	1	2
348.749	1	5
349.946	1	4
351.143	1	17
352.340	1	17
353.537	1	9
354.734	1	14
355.931	1	17
357.127	1	14
358.324	1	35
359.521	1	34
360.718	1	49
361.914	1	65
363.111	1	70
364.308	1	94
365.504	1	142
366.701	1	191
367.897	1	227
369.093	1	252
370.290	1	250
371.486	1	252
372.682	1	197
373.879	1	176
375.075	1	143
376.271	1	133
377.467	1	108
378.663	1	79
379.859	1	67
381.055	1	60
382.251	1	55
383.447	1	49
384.643	1	57
385.839	1	44
387.035	1	34
388.230	1	40
389.426	1	24
390.622	1	23
391.817	1	13
393.013	1	22
394.208	1	12
395.404	1	9
396.599	1	2
397.795	1	15
398.990	1	16
400.186	1	16
401.381	1	15
402.576	1	8
403.771	1	11
404.967	1	12
406.162	1	15
407.357	1	5
408.552	1	5
409.747	1	7
410.942	1	16
412.137	1	12
413.332	1	11
414.526	1	11
415.721	1	4
416.916	1	6
418.111	1	7
419.305	1	13
420.500	1	4
421.695	1	-1
422.889	1	-6
424.084	1	8
425.278	1	9
426.472	1	-2
427.667	1	15
428.861	1	0
430.055	1	4
431.250	1	1
432.444	1	19
433.638	1	-3
434.832	1	-1
436.026	1	16
437.220	1	9
438.414	1	-5
439.608	1	-9
440.802	1	-10
441.996	1	0
443.190	1	2
444.384	1	-5
445.578	1	-7
446.771	1	10
447.965	1	5
449.159	1	-1
450.352	1	-4
451.546	1	1
452.739	1	11
453.933	1	-5
455.126	1	4
456.320	1	3
457.513	1	10
458.706	1	3
459.899	1	2
461.093	1	10
462.286	1	8
463.479	1	2
464.672	1	-1
465.865	1	1
467.058	1	3
468.251	1	6
469.444	1	-5
470.637	1	4
471.830	1	3
473.023	1	8
474.215	1	6
475.408	1	4
476.601	1	11
477.793	1	5
478.986	1	-1
480.179	1	7
481.371	1	5
482.564	1	4
483.756	1	6
484.948	1	-3
486.141	1	5
487.333	1	5
488.525	1	7
489.718	1	12
490.910	1	5
492.102	1	5
493.294	1	8
494.486	1	12
495.678	1	14
496.870	1	16
498.062	1	5
499.254	1	8
500.446	1	2
501.638	1	8
502.829	1	9
504.021	1	20
505.213	1	13
506.404	1	27
507.596	1	16
508.788	1	24
509.979	1	15
511.171	1	6
512.362	1	14
513.553	1	2
514.745	1	12
515.936	1	6
517.127	1	12
518.319	1	14
519.510	1	26
520.701	1	11
521.892	1	17
523.083	1	16
524.274	1	13
525.465	1	21
526.656	1	15
527.847	1	22
529.038	1	24
530.229	1	27
531.419	1	31
532.610	1	12
533.801	1	34
534.991	1	25
536.182	1	12
537.373	1	18
538.563	1	21
539.754	1	36
540.944	1	16
542.134	1	18
543.325	1	24
544.515	1	16
545.705	1	28
546.896	1	17
548.086	1	25
549.276	1	24
550.466	1	25
551.656	1	38
552.846	1	27
554.036	1	28
555.226	1	4
556.416	1	22
557.606	1	24
558.796	1	24
559.986	1	24
561.175	1	24
562.365	1	31
563.555	1	27
564.744	1	27
565.934	1	38
567.123	1	29
568.313	1	25
569.502	1	22
570.692	1	38
571.881	1	39
573.070	1	21
574.260	1	31
575.449	1	27
576.638	1	12
577.827	1	22
579.016	1	23
580.205	1	15
581.394	1	30
582.583	1	35
583.772	1	26
584.961	1	22
586.150	1	17
587.339	1	29
588.528	1	29
589.717	1	16
590.905	1	24
592.094	1	14
593.283	1	27
594.471	1	30
595.660	1	10
596.848	1	15
598.037	1	13
599.225	1	19
600.413	1	16
601.602	1	24
602.790	1	19
603.978	1	17
605.166	1	31
606.355	1	26
607.543	1	11
608.731	1	15
609.919	1	21
611.107	1	9
612.295	1	9
613.483	1	20
614.671	1	18
615.858	1	19
617.046	1	20
618.234	1	13
619.422	1	8
620.609	1	25
621.797	1	15
622.985	1	11
624.172	1	9
625.360	1	10
626.547	1	9
627.735	1	9
628.922	1	16
630.109	1	1
631.297	1	12
632.484	1	8
633.671	1	15
634.858	1	20
636.045	1	12
637.232	1	7
638.419	1	9
639.606	1	15
640.793	1	21
641.980	1	15
643.167	1	7
644.354	1	10
645.541	1	10
646.728	1	23
647.914	1	0
649.101	1	8
650.288	1	12
651.474	1	7
652.661	1	7
653.847	1	20
655.034	1	16
656.220	1	5
657.406	1	8
658.593	1	11
659.779	1	6
660.965	1	12
662.152	1	8
663.338	1	17
664.524	1	13
665.710	1	-2
666.896	1	8
668.082	1	10
669.268	1	6
670.454	1	1
671.640	1	9
672.826	1	8
674.011	1	7
675.197	1	3
676.383	1	11
677.569	1	6
678.754	1	7
679.940	1	5
681.125	1	17
682.311	1	14
683.496	1	7
684.682	1	-2
685.867	1	7
687.053	1	2
688.238	1	12
688.746	1	10

File: GaN_sample F_spot 12_UVVIS_200 K_200um_800 ms 2x2mm1_64.txt
340.368	1	6
341.565	1	-11
342.763	1	6
343.960	1	2
345.157	1	3
346.354	1	14
347.552	1	2
348.749	1	-3
349.946	1	0
351.143	1	3
352.340	1	8
353.537	1	12
354.734	1	20
355.931	1	15
357.127	1	17
358.324	1	29
359.521	1	36
360.718	1	44
361.914	1	57
363.111	1	63
364.308	1	102
365.504	1	141
366.701	1	182
367.897	1	226
369.093	1	239
370.290	1	243
371.486	1	234
372.682	1	198
373.879	1	158
375.075	1	138
376.271	1	103
377.467	1	99
378.663	1	81
379.859	1	74
381.055	1	70
382.251	1	49
383.447	1	52
384.643	1	55
385.839	1	37
387.035	1	36
388.230	1	40
389.426	1	14
390.622	1	17
391.817	1	23
393.013	1	18
394.208	1	19
395.404	1	5
396.599	1	10
397.795	1	12
398.990	1	18
400.186	1	9
401.381	1	6
402.576	1	5
403.771	1	12
404.967	1	7
406.162	1	19
407.357	1	3
408.552	1	1
409.747	1	7
410.942	1	14
412.137	1	8
413.332	1	3
414.526	1	1
415.721	1	5
416.916	1	-2
418.111	1	13
419.305	1	7
420.500	1	5
421.695	1	1
422.889	1	-4
424.084	1	3
425.278	1	12
426.472	1	7
427.667	1	11
428.861	1	6
430.055	1	1
431.250	1	5
432.444	1	3
433.638	1	1
434.832	1	10
436.026	1	20
437.220	1	9
438.414	1	-11
439.608	1	-8
440.802	1	-1
441.996	1	9
443.190	1	4
444.384	1	-4
445.578	1	1
446.771	1	11
447.965	1	10
449.159	1	2
450.352	1	1
451.546	1	0
452.739	1	1
453.933	1	-2
455.126	1	-3
456.320	1	-8
457.513	1	16
458.706	1	7
459.899	1	8
461.093	1	2
462.286	1	-5
463.479	1	1
464.672	1	-4
465.865	1	-1
467.058	1	3
468.251	1	3
469.444	1	0
470.637	1	1
471.830	1	5
473.023	1	9
474.215	1	13
475.408	1	3
476.601	1	-1
477.793	1	9
478.986	1	2
480.179	1	11
481.371	1	5
482.564	1	7
483.756	1	12
484.948	1	1
486.141	1	-1
487.333	1	3
488.525	1	11
489.718	1	10
490.910	1	6
492.102	1	0
493.294	1	-3
494.486	1	16
495.678	1	9
496.870	1	6
498.062	1	10
499.254	1	9
500.446	1	4
501.638	1	12
502.829	1	4
504.021	1	11
505.213	1	10
506.404	1	12
507.596	1	5
508.788	1	28
509.979	1	7
511.171	1	17
512.362	1	1
513.553	1	4
514.745	1	8
515.936	1	17
517.127	1	20
518.319	1	12
519.510	1	19
520.701	1	14
521.892	1	20
523.083	1	14
524.274	1	21
525.465	1	10
526.656	1	15
527.847	1	26
529.038	1	20
530.229	1	24
531.419	1	23
532.610	1	13
533.801	1	26
534.991	1	20
536.182	1	9
537.373	1	24
538.563	1	22
539.754	1	20
540.944	1	16
542.134	1	22
543.325	1	20
544.515	1	23
545.705	1	22
546.896	1	20
548.086	1	27
549.276	1	26
550.466	1	26
551.656	1	28
552.846	1	36
554.036	1	26
555.226	1	21
556.416	1	24
557.606	1	12
558.796	1	26
559.986	1	17
561.175	1	27
562.365	1	24
563.555	1	20
564.744	1	23
565.934	1	21
567.123	1	28
568.313	1	23
569.502	1	21
570.692	1	27
571.881	1	34
573.070	1	22
574.260	1	24
575.449	1	22
576.638	1	8
577.827	1	18
579.016	1	33
580.205	1	16
581.394	1	27
582.583	1	27
583.772	1	25
584.961	1	21
586.150	1	16
587.339	1	28
588.528	1	33
589.717	1	18
590.905	1	10
592.094	1	17
593.283	1	17
594.471	1	17
595.660	1	25
596.848	1	18
598.037	1	9
599.225	1	7
600.413	1	23
601.602	1	21
602.790	1	21
603.978	1	17
605.166	1	18
606.355	1	23
607.543	1	16
608.731	1	15
609.919	1	23
611.107	1	11
612.295	1	9
613.483	1	20
614.671	1	15
615.858	1	18
617.046	1	22
618.234	1	10
619.422	1	2
620.609	1	25
621.797	1	5
622.985	1	21
624.172	1	9
625.360	1	15
626.547	1	12
627.735	1	13
628.922	1	18
630.109	1	6
631.297	1	14
632.484	1	6
633.671	1	6
634.858	1	10
636.045	1	19
637.232	1	2
638.419	1	3
639.606	1	11
640.793	1	12
641.980	1	12
643.167	1	12
644.354	1	16
645.541	1	12
646.728	1	13
647.914	1	1
649.101	1	5
650.288	1	14
651.474	1	9
652.661	1	7
653.847	1	11
655.034	1	12
656.220	1	-5
657.406	1	17
658.593	1	12
659.779	1	12
660.965	1	21
662.152	1	8
663.338	1	9
664.524	1	7
665.710	1	7
666.896	1	2
668.082	1	12
669.268	1	9
670.454	1	11
671.640	1	6
672.826	1	7
674.011	1	5
675.197	1	15
676.383	1	6
677.569	1	5
678.754	1	13
679.940	1	6
681.125	1	15
682.311	1	16
683.496	1	6
684.682	1	1
685.867	1	1
687.053	1	8
688.238	1	14
688.746	1	9