Folder: cryo-il_analysis/Data/GaN_170K_550ms (part 22)

File: GaN_sample D_spot 18_UVVIS_170 K_200um_550 ms 2x2mm1_260.txt
340.368	1	3
341.565	1	1
342.763	1	2
343.960	1	-4
345.157	1	0
346.354	1	-5
347.552	1	1
348.749	1	3
349.946	1	7
351.143	1	-1
352.340	1	8
353.537	1	-6
354.734	1	1
355.931	1	1
357.127	1	1
358.324	1	10
359.521	1	6
360.718	1	-1
361.914	1	3
363.111	1	12
364.308	1	15
365.504	1	7
366.701	1	11
367.897	1	6
369.093	1	10
370.290	1	9
371.486	1	0
372.682	1	16
373.879	1	9
375.075	1	-1
376.271	1	14
377.467	1	6
378.663	1	1
379.859	1	-1
381.055	1	6
382.251	1	3
383.447	1	8
384.643	1	0
385.839	1	0
387.035	1	4
388.230	1	-4
389.426	1	4
390.622	1	7
391.817	1	5
393.013	1	0
394.208	1	2
395.404	1	5
396.599	1	4
397.795	1	-4
398.990	1	-8
400.186	1	-5
401.381	1	7
402.576	1	-1
403.771	1	7
404.967	1	3
406.162	1	-4
407.357	1	1
408.552	1	-4
409.747	1	-2
410.942	1	-5
412.137	1	-7
413.332	1	8
414.526	1	-5
415.721	1	-7
416.916	1	-6
418.111	1	5
419.305	1	4
420.500	1	-12
421.695	1	-1
422.889	1	0
424.084	1	8
425.278	1	0
426.472	1	2
427.667	1	5
428.861	1	3
430.055	1	-5
431.250	1	11
432.444	1	5
433.638	1	3
434.832	1	11
436.026	1	5
437.220	1	0
438.414	1	-14
439.608	1	4
440.802	1	3
441.996	1	-3
443.190	1	4
444.384	1	-1
445.578	1	2
446.771	1	-18
447.965	1	4
449.159	1	-6
450.352	1	-6
451.546	1	-7
452.739	1	1
453.933	1	2
455.126	1	7
456.320	1	-6
457.513	1	1
458.706	1	3
459.899	1	-4
461.093	1	1
462.286	1	0
463.479	1	-6
464.672	1	-7
465.865	1	5
467.058	1	1
468.251	1	3
469.444	1	-5
470.637	1	-3
471.830	1	6
473.023	1	5
474.215	1	0
475.408	1	-10
476.601	1	1
477.793	1	14
478.986	1	4
480.179	1	-5
481.371	1	-2
482.564	1	2
483.756	1	1
484.948	1	1
486.141	1	7
487.333	1	-9
488.525	1	6
489.718	1	0
490.910	1	-3
492.102	1	9
493.294	1	-3
494.486	1	5
495.678	1	1
496.870	1	-5
498.062	1	-6
499.254	1	11
500.446	1	0
501.638	1	-12
502.829	1	9
504.021	1	1
505.213	1	-7
506.404	1	3
507.596	1	0
508.788	1	-9
509.979	1	-1
511.171	1	8
512.362	1	-2
513.553	1	-1
514.745	1	1
515.936	1	-4
517.127	1	4
518.319	1	7
519.510	1	2
520.701	1	5
521.892	1	-5
523.083	1	6
524.274	1	-3
525.465	1	4
526.656	1	7
527.847	1	1
529.038	1	-2
530.229	1	13
531.419	1	10
532.610	1	7
533.801	1	9
534.991	1	2
536.182	1	4
537.373	1	4
538.563	1	-2
539.754	1	3
540.944	1	0
542.134	1	-6
543.325	1	6
544.515	1	8
545.705	1	8
546.896	1	6
548.086	1	12
549.276	1	8
550.466	1	1
551.656	1	0
552.846	1	-5
554.036	1	6
555.226	1	-6
556.416	1	1
557.606	1	5
558.796	1	-1
559.986	1	4
561.175	1	-4
562.365	1	1
563.555	1	6
564.744	1	-1
565.934	1	8
567.123	1	5
568.313	1	0
569.502	1	1
570.692	1	-2
571.881	1	-4
573.070	1	4
574.260	1	10
575.449	1	6
576.638	1	5
577.827	1	0
579.016	1	-2
580.205	1	-3
581.394	1	0
582.583	1	6
583.772	1	-2
584.961	1	8
586.150	1	-10
587.339	1	3
588.528	1	-9
589.717	1	0
590.905	1	11
592.094	1	8
593.283	1	11
594.471	1	0
595.660	1	1
596.848	1	-6
598.037	1	-3
599.225	1	-2
600.413	1	-12
601.602	1	5
602.790	1	7
603.978	1	6
605.166	1	1
606.355	1	6
607.543	1	18
608.731	1	2
609.919	1	1
611.107	1	-6
612.295	1	-5
613.483	1	-2
614.671	1	8
615.858	1	0
617.046	1	0
618.234	1	8
619.422	1	1
620.609	1	8
621.797	1	4
622.985	1	0
624.172	1	8
625.360	1	3
626.547	1	-4
627.735	1	-17
628.922	1	-8
630.109	1	-5
631.297	1	-3
632.484	1	-7
633.671	1	10
634.858	1	4
636.045	1	6
637.232	1	0
638.419	1	-10
639.606	1	-1
640.793	1	5
641.980	1	-5
643.167	1	5
644.354	1	3
645.541	1	1
646.728	1	6
647.914	1	0
649.101	1	6
650.288	1	-1
651.474	1	9
652.661	1	8
653.847	1	2
655.034	1	1
656.220	1	0
657.406	1	5
658.593	1	1
659.779	1	3
660.965	1	10
662.152	1	-3
663.338	1	3
664.524	1	4
665.710	1	7
666.896	1	4
668.082	1	8
669.268	1	0
670.454	1	-4
671.640	1	7
672.826	1	0
674.011	1	6
675.197	1	3
676.383	1	5
677.569	1	0
678.754	1	4
679.940	1	7
681.125	1	3
682.311	1	0
683.496	1	1
684.682	1	2
685.867	1	2
687.053	1	-12
688.238	1	-4
688.746	1	2

File: GaN_sample D_spot 18_UVVIS_170 K_200um_550 ms 2x2mm1_261.txt
340.368	1	-3
341.565	1	-2
342.763	1	4
343.960	1	-4
345.157	1	3
346.354	1	0
347.552	1	10
348.749	1	0
349.946	1	1
351.143	1	-2
352.340	1	12
353.537	1	10
354.734	1	5
355.931	1	1
357.127	1	-7
358.324	1	1
359.521	1	0
360.718	1	1
361.914	1	5
363.111	1	18
364.308	1	-1
365.504	1	17
366.701	1	14
367.897	1	17
369.093	1	4
370.290	1	10
371.486	1	6
372.682	1	14
373.879	1	10
375.075	1	10
376.271	1	4
377.467	1	6
378.663	1	7
379.859	1	5
381.055	1	4
382.251	1	3
383.447	1	2
384.643	1	2
385.839	1	2
387.035	1	3
388.230	1	-3
389.426	1	17
390.622	1	-6
391.817	1	-2
393.013	1	0
394.208	1	11
395.404	1	-1
396.599	1	-7
397.795	1	-2
398.990	1	-14
400.186	1	-16
401.381	1	7
402.576	1	2
403.771	1	-4
404.967	1	1
406.162	1	8
407.357	1	-5
408.552	1	-6
409.747	1	0
410.942	1	3
412.137	1	-7
413.332	1	-1
414.526	1	4
415.721	1	0
416.916	1	-7
418.111	1	0
419.305	1	-4
420.500	1	2
421.695	1	-4
422.889	1	1
424.084	1	11
425.278	1	-3
426.472	1	4
427.667	1	6
428.861	1	-2
430.055	1	4
431.250	1	20
432.444	1	3
433.638	1	11
434.832	1	-6
436.026	1	2
437.220	1	-8
438.414	1	0
439.608	1	-6
440.802	1	6
441.996	1	-1
443.190	1	7
444.384	1	6
445.578	1	13
446.771	1	-15
447.965	1	-2
449.159	1	0
450.352	1	-5
451.546	1	-8
452.739	1	1
453.933	1	-1
455.126	1	2
456.320	1	-4
457.513	1	2
458.706	1	7
459.899	1	-1
461.093	1	11
462.286	1	-6
463.479	1	1
464.672	1	-2
465.865	1	3
467.058	1	9
468.251	1	4
469.444	1	-2
470.637	1	-9
471.830	1	0
473.023	1	2
474.215	1	2
475.408	1	-3
476.601	1	0
477.793	1	9
478.986	1	1
480.179	1	-2
481.371	1	-6
482.564	1	-8
483.756	1	2
484.948	1	-3
486.141	1	15
487.333	1	-7
488.525	1	6
489.718	1	9
490.910	1	-2
492.102	1	-5
493.294	1	-10
494.486	1	10
495.678	1	-2
496.870	1	-4
498.062	1	2
499.254	1	7
500.446	1	1
501.638	1	-1
502.829	1	1
504.021	1	1
505.213	1	-2
506.404	1	-7
507.596	1	7
508.788	1	-5
509.979	1	5
511.171	1	-2
512.362	1	-6
513.553	1	-2
514.745	1	0
515.936	1	4
517.127	1	4
518.319	1	2
519.510	1	0
520.701	1	3
521.892	1	-2
523.083	1	0
524.274	1	-4
525.465	1	4
526.656	1	9
527.847	1	-2
529.038	1	-2
530.229	1	11
531.419	1	12
532.610	1	-1
533.801	1	4
534.991	1	-6
536.182	1	-9
537.373	1	2
538.563	1	2
539.754	1	1
540.944	1	3
542.134	1	-4
543.325	1	8
544.515	1	-5
545.705	1	-1
546.896	1	4
548.086	1	7
549.276	1	2
550.466	1	-6
551.656	1	-3
552.846	1	1
554.036	1	-2
555.226	1	-3
556.416	1	-3
557.606	1	4
558.796	1	-5
559.986	1	-2
561.175	1	-4
562.365	1	8
563.555	1	2
564.744	1	-3
565.934	1	8
567.123	1	-3
568.313	1	3
569.502	1	-8
570.692	1	2
571.881	1	-5
573.070	1	-1
574.260	1	0
575.449	1	-2
576.638	1	2
577.827	1	-3
579.016	1	2
580.205	1	-7
581.394	1	6
582.583	1	0
583.772	1	5
584.961	1	7
586.150	1	-5
587.339	1	5
588.528	1	-2
589.717	1	3
590.905	1	3
592.094	1	7
593.283	1	3
594.471	1	11
595.660	1	4
596.848	1	8
598.037	1	0
599.225	1	5
600.413	1	2
601.602	1	0
602.790	1	4
603.978	1	4
605.166	1	8
606.355	1	1
607.543	1	6
608.731	1	0
609.919	1	-2
611.107	1	-12
612.295	1	3
613.483	1	-6
614.671	1	16
615.858	1	11
617.046	1	0
618.234	1	1
619.422	1	-4
620.609	1	-1
621.797	1	3
622.985	1	-2
624.172	1	-1
625.360	1	-4
626.547	1	-5
627.735	1	-5
628.922	1	-13
630.109	1	-2
631.297	1	2
632.484	1	-3
633.671	1	12
634.858	1	8
636.045	1	2
637.232	1	-6
638.419	1	-8
639.606	1	-12
640.793	1	-2
641.980	1	-6
643.167	1	-1
644.354	1	0
645.541	1	12
646.728	1	11
647.914	1	3
649.101	1	7
650.288	1	9
651.474	1	6
652.661	1	-1
653.847	1	2
655.034	1	1
656.220	1	12
657.406	1	0
658.593	1	2
659.779	1	4
660.965	1	10
662.152	1	0
663.338	1	7
664.524	1	12
665.710	1	7
666.896	1	-4
668.082	1	4
669.268	1	0
670.454	1	-4
671.640	1	8
672.826	1	0
674.011	1	4
675.197	1	10
676.383	1	-5
677.569	1	-10
678.754	1	3
679.940	1	13
681.125	1	5
682.311	1	4
683.496	1	13
684.682	1	7
685.867	1	6
687.053	1	3
688.238	1	-11
688.746	1	-2

File: GaN_sample D_spot 18_UVVIS_170 K_200um_550 ms 2x2mm1_264.txt
340.368	1	8
341.565	1	-2
342.763	1	4
343.960	1	1
345.157	1	-6
346.354	1	-2
347.552	1	4
348.749	1	1
349.946	1	14
351.143	1	4
352.340	1	8
353.537	1	3
354.734	1	2
355.931	1	1
357.127	1	8
358.324	1	11
359.521	1	4
360.718	1	0
361.914	1	-1
363.111	1	15
364.308	1	7
365.504	1	8
366.701	1	12
367.897	1	4
369.093	1	-2
370.290	1	7
371.486	1	-4
372.682	1	13
373.879	1	9
375.075	1	6
376.271	1	3
377.467	1	10
378.663	1	4
379.859	1	0
381.055	1	9
382.251	1	1
383.447	1	6
384.643	1	4
385.839	1	-14
387.035	1	4
388.230	1	-2
389.426	1	10
390.622	1	5
391.817	1	-3
393.013	1	-1
394.208	1	8
395.404	1	3
396.599	1	-7
397.795	1	3
398.990	1	-3
400.186	1	1
401.381	1	8
402.576	1	1
403.771	1	4
404.967	1	4
406.162	1	2
407.357	1	0
408.552	1	-6
409.747	1	7
410.942	1	-3
412.137	1	-14
413.332	1	-2
414.526	1	3
415.721	1	1
416.916	1	-7
418.111	1	14
419.305	1	-2
420.500	1	-2
421.695	1	-3
422.889	1	7
424.084	1	12
425.278	1	5
426.472	1	7
427.667	1	4
428.861	1	6
430.055	1	-6
431.250	1	11
432.444	1	5
433.638	1	1
434.832	1	11
436.026	1	-5
437.220	1	7
438.414	1	-4
439.608	1	-4
440.802	1	9
441.996	1	-5
443.190	1	1
444.384	1	-3
445.578	1	12
446.771	1	-16
447.965	1	-7
449.159	1	4
450.352	1	1
451.546	1	-5
452.739	1	-3
453.933	1	-1
455.126	1	15
456.320	1	0
457.513	1	5
458.706	1	6
459.899	1	-2
461.093	1	3
462.286	1	4
463.479	1	-1
464.672	1	-3
465.865	1	9
467.058	1	4
468.251	1	4
469.444	1	-13
470.637	1	5
471.830	1	-4
473.023	1	11
474.215	1	-3
475.408	1	1
476.601	1	3
477.793	1	8
478.986	1	-8
480.179	1	-9
481.371	1	3
482.564	1	-8
483.756	1	0
484.948	1	-6
486.141	1	13
487.333	1	-5
488.525	1	2
489.718	1	13
490.910	1	-5
492.102	1	5
493.294	1	-2
494.486	1	11
495.678	1	-7
496.870	1	0
498.062	1	2
499.254	1	3
500.446	1	-2
501.638	1	-10
502.829	1	10
504.021	1	9
505.213	1	-1
506.404	1	-5
507.596	1	1
508.788	1	0
509.979	1	3
511.171	1	-1
512.362	1	-2
513.553	1	1
514.745	1	5
515.936	1	5
517.127	1	3
518.319	1	10
519.510	1	9
520.701	1	1
521.892	1	-4
523.083	1	0
524.274	1	-5
525.465	1	7
526.656	1	19
527.847	1	3
529.038	1	2
530.229	1	5
531.419	1	0
532.610	1	6
533.801	1	0
534.991	1	0
536.182	1	3
537.373	1	0
538.563	1	-3
539.754	1	2
540.944	1	-8
542.134	1	-4
543.325	1	-1
544.515	1	2
545.705	1	6
546.896	1	8
548.086	1	0
549.276	1	-3
550.466	1	3
551.656	1	7
552.846	1	1
554.036	1	2
555.226	1	-7
556.416	1	-6
557.606	1	5
558.796	1	-11
559.986	1	16
561.175	1	-8
562.365	1	6
563.555	1	-5
564.744	1	4
565.934	1	3
567.123	1	4
568.313	1	1
569.502	1	-2
570.692	1	5
571.881	1	-5
573.070	1	1
574.260	1	5
575.449	1	-6
576.638	1	9
577.827	1	-2
579.016	1	9
580.205	1	5
581.394	1	-6
582.583	1	-1
583.772	1	2
584.961	1	-2
586.150	1	6
587.339	1	3
588.528	1	-1
589.717	1	6
590.905	1	10
592.094	1	5
593.283	1	3
594.471	1	0
595.660	1	0
596.848	1	1
598.037	1	7
599.225	1	6
600.413	1	-5
601.602	1	2
602.790	1	6
603.978	1	3
605.166	1	10
606.355	1	11
607.543	1	5
608.731	1	5
609.919	1	-10
611.107	1	-7
612.295	1	1
613.483	1	-4
614.671	1	4
615.858	1	5
617.046	1	0
618.234	1	-7
619.422	1	-8
620.609	1	0
621.797	1	0
622.985	1	1
624.172	1	-7
625.360	1	-4
626.547	1	0
627.735	1	-12
628.922	1	-3
630.109	1	-7
631.297	1	-8
632.484	1	-9
633.671	1	9
634.858	1	9
636.045	1	-1
637.232	1	7
638.419	1	-8
639.606	1	-2
640.793	1	-3
641.980	1	-4
643.167	1	1
644.354	1	10
645.541	1	7
646.728	1	2
647.914	1	3
649.101	1	5
650.288	1	3
651.474	1	2
652.661	1	5
653.847	1	-4
655.034	1	-2
656.220	1	-4
657.406	1	8
658.593	1	3
659.779	1	4
660.965	1	11
662.152	1	-2
663.338	1	7
664.524	1	8
665.710	1	-1
666.896	1	2
668.082	1	3
669.268	1	-7
670.454	1	-2
671.640	1	4
672.826	1	0
674.011	1	4
675.197	1	5
676.383	1	0
677.569	1	-5
678.754	1	6
679.940	1	4
681.125	1	3
682.311	1	6
683.496	1	7
684.682	1	7
685.867	1	11
687.053	1	-6
688.238	1	10
688.746	1	-7

File: GaN_sample D_spot 18_UVVIS_170 K_200um_550 ms 2x2mm1_271.txt
340.368	1	2
341.565	1	10
342.763	1	1
343.960	1	1
345.157	1	-5
346.354	1	-2
347.552	1	7
348.749	1	11
349.946	1	4
351.143	1	-1
352.340	1	2
353.537	1	0
354.734	1	4
355.931	1	3
357.127	1	-3
358.324	1	15
359.521	1	9
360.718	1	-2
361.914	1	8
363.111	1	15
364.308	1	3
365.504	1	8
366.701	1	5
367.897	1	13
369.093	1	-2
370.290	1	8
371.486	1	-1
372.682	1	14
373.879	1	12
375.075	1	-1
376.271	1	11
377.467	1	1
378.663	1	5
379.859	1	3
381.055	1	-1
382.251	1	7
383.447	1	7
384.643	1	0
385.839	1	-12
387.035	1	3
388.230	1	0
389.426	1	3
390.622	1	0
391.817	1	7
393.013	1	-1
394.208	1	3
395.404	1	11
396.599	1	-3
397.795	1	-3
398.990	1	-5
400.186	1	1
401.381	1	17
402.576	1	-1
403.771	1	4
404.967	1	-3
406.162	1	-6
407.357	1	-8
408.552	1	5
409.747	1	1
410.942	1	-6
412.137	1	-10
413.332	1	-10
414.526	1	1
415.721	1	-1
416.916	1	-8
418.111	1	7
419.305	1	4
420.500	1	-2
421.695	1	-5
422.889	1	-3
424.084	1	17
425.278	1	4
426.472	1	3
427.667	1	4
428.861	1	-2
430.055	1	-3
431.250	1	11
432.444	1	8
433.638	1	-1
434.832	1	10
436.026	1	-3
437.220	1	-3
438.414	1	-9
439.608	1	4
440.802	1	4
441.996	1	2
443.190	1	1
444.384	1	2
445.578	1	11
446.771	1	-8
447.965	1	5
449.159	1	3
450.352	1	-6
451.546	1	2
452.739	1	2
453.933	1	2
455.126	1	6
456.320	1	2
457.513	1	-1
458.706	1	10
459.899	1	7
461.093	1	8
462.286	1	1
463.479	1	8
464.672	1	-8
465.865	1	3
467.058	1	-1
468.251	1	0
469.444	1	0
470.637	1	0
471.830	1	8
473.023	1	3
474.215	1	4
475.408	1	-1
476.601	1	12
477.793	1	3
478.986	1	-4
480.179	1	-8
481.371	1	8
482.564	1	-6
483.756	1	4
484.948	1	4
486.141	1	3
487.333	1	-8
488.525	1	11
489.718	1	-2
490.910	1	-6
492.102	1	2
493.294	1	-4
494.486	1	5
495.678	1	1
496.870	1	1
498.062	1	-2
499.254	1	5
500.446	1	-4
501.638	1	-10
502.829	1	-2
504.021	1	13
505.213	1	-9
506.404	1	4
507.596	1	6
508.788	1	-3
509.979	1	9
511.171	1	-8
512.362	1	4
513.553	1	6
514.745	1	-2
515.936	1	2
517.127	1	-1
518.319	1	10
519.510	1	4
520.701	1	0
521.892	1	4
523.083	1	0
524.274	1	-11
525.465	1	6
526.656	1	9
527.847	1	-5
529.038	1	3
530.229	1	10
531.419	1	12
532.610	1	-6
533.801	1	2
534.991	1	-5
536.182	1	-3
537.373	1	9
538.563	1	2
539.754	1	4
540.944	1	0
542.134	1	1
543.325	1	-5
544.515	1	11
545.705	1	2
546.896	1	3
548.086	1	5
549.276	1	2
550.466	1	1
551.656	1	4
552.846	1	-2
554.036	1	-3
555.226	1	2
556.416	1	0
557.606	1	2
558.796	1	-3
559.986	1	3
561.175	1	1
562.365	1	8
563.555	1	-1
564.744	1	-6
565.934	1	9
567.123	1	3
568.313	1	2
569.502	1	-3
570.692	1	-3
571.881	1	-2
573.070	1	0
574.260	1	8
575.449	1	5
576.638	1	12
577.827	1	-5
579.016	1	5
580.205	1	3
581.394	1	4
582.583	1	2
583.772	1	-7
584.961	1	-1
586.150	1	-1
587.339	1	-3
588.528	1	-5
589.717	1	2
590.905	1	9
592.094	1	10
593.283	1	6
594.471	1	15
595.660	1	-6
596.848	1	1
598.037	1	6
599.225	1	7
600.413	1	-1
601.602	1	6
602.790	1	10
603.978	1	2
605.166	1	5
606.355	1	11
607.543	1	4
608.731	1	1
609.919	1	4
611.107	1	-11
612.295	1	-1
613.483	1	-9
614.671	1	0
615.858	1	-3
617.046	1	1
618.234	1	-1
619.422	1	-9
620.609	1	2
621.797	1	5
622.985	1	8
624.172	1	-5
625.360	1	4
626.547	1	-10
627.735	1	-17
628.922	1	-1
630.109	1	-1
631.297	1	0
632.484	1	-4
633.671	1	12
634.858	1	1
636.045	1	8
637.232	1	2
638.419	1	-5
639.606	1	-11
640.793	1	-2
641.980	1	-4
643.167	1	-1
644.354	1	1
645.541	1	4
646.728	1	3
647.914	1	0
649.101	1	6
650.288	1	-4
651.474	1	-2
652.661	1	-3
653.847	1	-1
655.034	1	-7
656.220	1	0
657.406	1	4
658.593	1	-1
659.779	1	-3
660.965	1	14
662.152	1	-2
663.338	1	-3
664.524	1	5
665.710	1	2
666.896	1	10
668.082	1	12
669.268	1	-8
670.454	1	-10
671.640	1	-8
672.826	1	-7
674.011	1	3
675.197	1	2
676.383	1	2
677.569	1	-3
678.754	1	-2
679.940	1	4
681.125	1	6
682.311	1	4
683.496	1	4
684.682	1	0
685.867	1	-5
687.053	1	-5
688.238	1	2
688.746	1	-8

File: GaN_sample D_spot 18_UVVIS_170 K_200um_550 ms 2x2mm1_277.txt
340.368	1	-7
341.565	1	10
342.763	1	8
343.960	1	-3
345.157	1	-7
346.354	1	-6
347.552	1	3
348.749	1	1
349.946	1	-2
351.143	1	6
352.340	1	0
353.537	1	3
354.734	1	4
355.931	1	-3
357.127	1	1
358.324	1	3
359.521	1	11
360.718	1	4
361.914	1	1
363.111	1	12
364.308	1	2
365.504	1	4
366.701	1	6
367.897	1	5
369.093	1	3
370.290	1	0
371.486	1	0
372.682	1	20
373.879	1	9
375.075	1	1
376.271	1	8
377.467	1	5
378.663	1	2
379.859	1	10
381.055	1	0
382.251	1	4
383.447	1	7
384.643	1	0
385.839	1	-1
387.035	1	1
388.230	1	0
389.426	1	-5
390.622	1	3
391.817	1	1
393.013	1	-3
394.208	1	9
395.404	1	7
396.599	1	-2
397.795	1	-9
398.990	1	-9
400.186	1	-3
401.381	1	13
402.576	1	-2
403.771	1	2
404.967	1	-4
406.162	1	4
407.357	1	7
408.552	1	2
409.747	1	5
410.942	1	-4
412.137	1	-5
413.332	1	-1
414.526	1	5
415.721	1	-4
416.916	1	-11
418.111	1	9
419.305	1	-1
420.500	1	1
421.695	1	-9
422.889	1	-2
424.084	1	7
425.278	1	2
426.472	1	6
427.667	1	-1
428.861	1	-1
430.055	1	4
431.250	1	12
432.444	1	7
433.638	1	7
434.832	1	-1
436.026	1	-4
437.220	1	-4
438.414	1	-2
439.608	1	-2
440.802	1	8
441.996	1	-4
443.190	1	2
444.384	1	-5
445.578	1	0
446.771	1	0
447.965	1	7
449.159	1	-1
450.352	1	-3
451.546	1	-2
452.739	1	6
453.933	1	-9
455.126	1	7
456.320	1	-4
457.513	1	7
458.706	1	4
459.899	1	5
461.093	1	12
462.286	1	-11
463.479	1	6
464.672	1	1
465.865	1	8
467.058	1	0
468.251	1	-2
469.444	1	3
470.637	1	12
471.830	1	0
473.023	1	10
474.215	1	5
475.408	1	1
476.601	1	-2
477.793	1	-2
478.986	1	-3
480.179	1	-2
481.371	1	1
482.564	1	-4
483.756	1	-1
484.948	1	8
486.141	1	14
487.333	1	-7
488.525	1	9
489.718	1	7
490.910	1	3
492.102	1	1
493.294	1	-5
494.486	1	14
495.678	1	2
496.870	1	-2
498.062	1	1
499.254	1	5
500.446	1	0
501.638	1	-14
502.829	1	4
504.021	1	6
505.213	1	-1
506.404	1	4
507.596	1	3
508.788	1	-15
509.979	1	5
511.171	1	8
512.362	1	-2
513.553	1	12
514.745	1	-4
515.936	1	5
517.127	1	1
518.319	1	2
519.510	1	14
520.701	1	7
521.892	1	2
523.083	1	1
524.274	1	4
525.465	1	13
526.656	1	10
527.847	1	2
529.038	1	0
530.229	1	9
531.419	1	8
532.610	1	0
533.801	1	0
534.991	1	4
536.182	1	7
537.373	1	-4
538.563	1	-4
539.754	1	-3
540.944	1	-3
542.134	1	-5
543.325	1	3
544.515	1	-1
545.705	1	8
546.896	1	8
548.086	1	6
549.276	1	5
550.466	1	1
551.656	1	0
552.846	1	1
554.036	1	-1
555.226	1	-11
556.416	1	-2
557.606	1	6
558.796	1	4
559.986	1	3
561.175	1	-13
562.365	1	2
563.555	1	6
564.744	1	1
565.934	1	0
567.123	1	4
568.313	1	-10
569.502	1	-1
570.692	1	2
571.881	1	-7
573.070	1	-2
574.260	1	3
575.449	1	0
576.638	1	7
577.827	1	-7
579.016	1	11
580.205	1	-6
581.394	1	11
582.583	1	2
583.772	1	-3
584.961	1	-2
586.150	1	-6
587.339	1	-1
588.528	1	1
589.717	1	5
590.905	1	7
592.094	1	7
593.283	1	0
594.471	1	9
595.660	1	-6
596.848	1	2
598.037	1	-4
599.225	1	3
600.413	1	-9
601.602	1	2
602.790	1	12
603.978	1	5
605.166	1	3
606.355	1	8
607.543	1	5
608.731	1	5
609.919	1	-1
611.107	1	-3
612.295	1	3
613.483	1	-4
614.671	1	3
615.858	1	-5
617.046	1	11
618.234	1	-3
619.422	1	-5
620.609	1	7
621.797	1	1
622.985	1	1
624.172	1	0
625.360	1	1
626.547	1	-4
627.735	1	0
628.922	1	1
630.109	1	-4
631.297	1	6
632.484	1	-1
633.671	1	0
634.858	1	7
636.045	1	4
637.232	1	-6
638.419	1	-9
639.606	1	3
640.793	1	-4
641.980	1	-4
643.167	1	-2
644.354	1	3
645.541	1	-4
646.728	1	4
647.914	1	0
649.101	1	5
650.288	1	-1
651.474	1	15
652.661	1	2
653.847	1	-3
655.034	1	-2
656.220	1	2
657.406	1	-2
658.593	1	10
659.779	1	-5
660.965	1	13
662.152	1	11
663.338	1	2
664.524	1	-10
665.710	1	4
666.896	1	5
668.082	1	3
669.268	1	-1
670.454	1	-8
671.640	1	13
672.826	1	3
674.011	1	2
675.197	1	6
676.383	1	1
677.569	1	-10
678.754	1	1
679.940	1	5
681.125	1	3
682.311	1	1
683.496	1	5
684.682	1	8
685.867	1	-8
687.053	1	-1
688.238	1	0
688.746	1	-1

File: GaN_sample D_spot 18_UVVIS_170 K_200um_550 ms 2x2mm1_278.txt
340.368	1	6
341.565	1	-6
342.763	1	4
343.960	1	-6
345.157	1	-4
346.354	1	-6
347.552	1	2
348.749	1	5
349.946	1	13
351.143	1	0
352.340	1	7
353.537	1	1
354.734	1	6
355.931	1	-7
357.127	1	-3
358.324	1	6
359.521	1	12
360.718	1	5
361.914	1	5
363.111	1	11
364.308	1	11
365.504	1	5
366.701	1	7
367.897	1	8
369.093	1	-5
370.290	1	11
371.486	1	3
372.682	1	12
373.879	1	3
375.075	1	5
376.271	1	13
377.467	1	4
378.663	1	-1
379.859	1	14
381.055	1	0
382.251	1	1
383.447	1	6
384.643	1	3
385.839	1	-1
387.035	1	3
388.230	1	-1
389.426	1	7
390.622	1	-7
391.817	1	-3
393.013	1	0
394.208	1	9
395.404	1	5
396.599	1	-1
397.795	1	6
398.990	1	-5
400.186	1	-4
401.381	1	13
402.576	1	-8
403.771	1	-1
404.967	1	2
406.162	1	0
407.357	1	6
408.552	1	5
409.747	1	8
410.942	1	3
412.137	1	-3
413.332	1	-6
414.526	1	3
415.721	1	-3
416.916	1	-4
418.111	1	8
419.305	1	-2
420.500	1	2
421.695	1	-12
422.889	1	-5
424.084	1	11
425.278	1	-3
426.472	1	5
427.667	1	6
428.861	1	4
430.055	1	2
431.250	1	14
432.444	1	3
433.638	1	10
434.832	1	6
436.026	1	1
437.220	1	4
438.414	1	-4
439.608	1	-6
440.802	1	16
441.996	1	-7
443.190	1	5
444.384	1	1
445.578	1	2
446.771	1	0
447.965	1	0
449.159	1	5
450.352	1	-7
451.546	1	-7
452.739	1	-2
453.933	1	-6
455.126	1	7
456.320	1	4
457.513	1	7
458.706	1	6
459.899	1	-3
461.093	1	6
462.286	1	10
463.479	1	5
464.672	1	-1
465.865	1	2
467.058	1	1
468.251	1	0
469.444	1	-7
470.637	1	-3
471.830	1	-4
473.023	1	7
474.215	1	1
475.408	1	-9
476.601	1	-1
477.793	1	8
478.986	1	-2
480.179	1	-7
481.371	1	-4
482.564	1	-6
483.756	1	6
484.948	1	-9
486.141	1	1
487.333	1	3
488.525	1	3
489.718	1	2
490.910	1	-2
492.102	1	4
493.294	1	-2
494.486	1	7
495.678	1	9
496.870	1	4
498.062	1	4
499.254	1	13
500.446	1	-1
501.638	1	-6
502.829	1	5
504.021	1	-4
505.213	1	4
506.404	1	6
507.596	1	4
508.788	1	3
509.979	1	1
511.171	1	-3
512.362	1	4
513.553	1	0
514.745	1	2
515.936	1	-7
517.127	1	-1
518.319	1	7
519.510	1	6
520.701	1	13
521.892	1	6
523.083	1	1
524.274	1	2
525.465	1	2
526.656	1	14
527.847	1	0
529.038	1	5
530.229	1	12
531.419	1	8
532.610	1	12
533.801	1	0
534.991	1	0
536.182	1	-2
537.373	1	-2
538.563	1	3
539.754	1	-1
540.944	1	-9
542.134	1	-7
543.325	1	4
544.515	1	2
545.705	1	5
546.896	1	-1
548.086	1	6
549.276	1	3
550.466	1	-3
551.656	1	7
552.846	1	0
554.036	1	-1
555.226	1	-1
556.416	1	-1
557.606	1	3
558.796	1	1
559.986	1	11
561.175	1	-15
562.365	1	-1
563.555	1	-6
564.744	1	1
565.934	1	3
567.123	1	-3
568.313	1	3
569.502	1	4
570.692	1	5
571.881	1	-3
573.070	1	3
574.260	1	5
575.449	1	4
576.638	1	7
577.827	1	-1
579.016	1	0
580.205	1	3
581.394	1	-2
582.583	1	2
583.772	1	-4
584.961	1	-6
586.150	1	-5
587.339	1	6
588.528	1	1
589.717	1	1
590.905	1	7
592.094	1	9
593.283	1	4
594.471	1	3
595.660	1	4
596.848	1	-2
598.037	1	-1
599.225	1	9
600.413	1	-5
601.602	1	9
602.790	1	5
603.978	1	2
605.166	1	4
606.355	1	6
607.543	1	3
608.731	1	-1
609.919	1	-2
611.107	1	-5
612.295	1	-1
613.483	1	1
614.671	1	3
615.858	1	-3
617.046	1	-13
618.234	1	1
619.422	1	-9
620.609	1	7
621.797	1	0
622.985	1	3
624.172	1	2
625.360	1	0
626.547	1	-13
627.735	1	-11
628.922	1	-6
630.109	1	-5
631.297	1	-2
632.484	1	-8
633.671	1	9
634.858	1	9
636.045	1	7
637.232	1	-6
638.419	1	-4
639.606	1	-12
640.793	1	-10
641.980	1	-4
643.167	1	1
644.354	1	-6
645.541	1	4
646.728	1	5
647.914	1	-2
649.101	1	3
650.288	1	-2
651.474	1	7
652.661	1	5
653.847	1	1
655.034	1	-4
656.220	1	2
657.406	1	-5
658.593	1	-4
659.779	1	3
660.965	1	11
662.152	1	1
663.338	1	5
664.524	1	3
665.710	1	-3
666.896	1	3
668.082	1	13
669.268	1	0
670.454	1	2
671.640	1	12
672.826	1	1
674.011	1	1
675.197	1	3
676.383	1	4
677.569	1	-6
678.754	1	5
679.940	1	3
681.125	1	7
682.311	1	-1
683.496	1	-1
684.682	1	8
685.867	1	19
687.053	1	-2
688.238	1	-10
688.746	1	-13