Folder: cryo-il_analysis/Data/GaN_130K_350ms (part 7)

File: GaN_sample F_spot6_UVVIS_130 K_200um_350 ms 2x2mm1_131.txt
340.368	1	-2
341.565	1	2
342.763	1	11
343.960	1	-10
345.157	1	-10
346.354	1	6
347.552	1	1
348.749	1	6
349.946	1	4
351.143	1	6
352.340	1	12
353.537	1	9
354.734	1	-1
355.931	1	5
357.127	1	15
358.324	1	11
359.521	1	7
360.718	1	26
361.914	1	15
363.111	1	32
364.308	1	44
365.504	1	52
366.701	1	58
367.897	1	57
369.093	1	51
370.290	1	48
371.486	1	38
372.682	1	43
373.879	1	38
375.075	1	38
376.271	1	27
377.467	1	30
378.663	1	16
379.859	1	22
381.055	1	26
382.251	1	17
383.447	1	21
384.643	1	19
385.839	1	18
387.035	1	15
388.230	1	11
389.426	1	21
390.622	1	12
391.817	1	7
393.013	1	12
394.208	1	6
395.404	1	8
396.599	1	17
397.795	1	1
398.990	1	8
400.186	1	0
401.381	1	10
402.576	1	3
403.771	1	14
404.967	1	1
406.162	1	8
407.357	1	10
408.552	1	5
409.747	1	6
410.942	1	9
412.137	1	-3
413.332	1	12
414.526	1	17
415.721	1	6
416.916	1	7
418.111	1	10
419.305	1	13
420.500	1	8
421.695	1	2
422.889	1	9
424.084	1	8
425.278	1	4
426.472	1	7
427.667	1	8
428.861	1	6
430.055	1	1
431.250	1	12
432.444	1	16
433.638	1	12
434.832	1	7
436.026	1	9
437.220	1	-2
438.414	1	6
439.608	1	11
440.802	1	-1
441.996	1	15
443.190	1	-2
444.384	1	3
445.578	1	3
446.771	1	4
447.965	1	6
449.159	1	1
450.352	1	13
451.546	1	7
452.739	1	4
453.933	1	3
455.126	1	-4
456.320	1	8
457.513	1	2
458.706	1	9
459.899	1	0
461.093	1	2
462.286	1	13
463.479	1	13
464.672	1	5
465.865	1	-3
467.058	1	1
468.251	1	-2
469.444	1	6
470.637	1	11
471.830	1	6
473.023	1	7
474.215	1	6
475.408	1	11
476.601	1	1
477.793	1	-5
478.986	1	-2
480.179	1	-5
481.371	1	9
482.564	1	-1
483.756	1	2
484.948	1	3
486.141	1	6
487.333	1	-1
488.525	1	11
489.718	1	11
490.910	1	3
492.102	1	20
493.294	1	15
494.486	1	19
495.678	1	9
496.870	1	4
498.062	1	3
499.254	1	13
500.446	1	10
501.638	1	15
502.829	1	11
504.021	1	15
505.213	1	13
506.404	1	18
507.596	1	14
508.788	1	16
509.979	1	3
511.171	1	24
512.362	1	7
513.553	1	25
514.745	1	15
515.936	1	26
517.127	1	17
518.319	1	16
519.510	1	9
520.701	1	23
521.892	1	14
523.083	1	17
524.274	1	14
525.465	1	25
526.656	1	17
527.847	1	17
529.038	1	15
530.229	1	23
531.419	1	24
532.610	1	21
533.801	1	36
534.991	1	19
536.182	1	30
537.373	1	17
538.563	1	29
539.754	1	19
540.944	1	9
542.134	1	13
543.325	1	28
544.515	1	24
545.705	1	13
546.896	1	15
548.086	1	14
549.276	1	7
550.466	1	19
551.656	1	23
552.846	1	13
554.036	1	14
555.226	1	14
556.416	1	18
557.606	1	10
558.796	1	21
559.986	1	13
561.175	1	18
562.365	1	19
563.555	1	17
564.744	1	21
565.934	1	16
567.123	1	9
568.313	1	4
569.502	1	13
570.692	1	15
571.881	1	7
573.070	1	2
574.260	1	12
575.449	1	1
576.638	1	-1
577.827	1	-6
579.016	1	9
580.205	1	3
581.394	1	14
582.583	1	17
583.772	1	10
584.961	1	2
586.150	1	9
587.339	1	9
588.528	1	12
589.717	1	5
590.905	1	16
592.094	1	10
593.283	1	0
594.471	1	7
595.660	1	3
596.848	1	9
598.037	1	8
599.225	1	-1
600.413	1	13
601.602	1	1
602.790	1	11
603.978	1	9
605.166	1	21
606.355	1	7
607.543	1	6
608.731	1	10
609.919	1	10
611.107	1	12
612.295	1	3
613.483	1	7
614.671	1	6
615.858	1	5
617.046	1	11
618.234	1	10
619.422	1	5
620.609	1	-2
621.797	1	-1
622.985	1	3
624.172	1	5
625.360	1	6
626.547	1	2
627.735	1	6
628.922	1	-3
630.109	1	4
631.297	1	-1
632.484	1	-7
633.671	1	3
634.858	1	7
636.045	1	15
637.232	1	-8
638.419	1	5
639.606	1	4
640.793	1	-11
641.980	1	2
643.167	1	15
644.354	1	-1
645.541	1	-2
646.728	1	16
647.914	1	1
649.101	1	-1
650.288	1	6
651.474	1	-6
652.661	1	0
653.847	1	8
655.034	1	2
656.220	1	3
657.406	1	13
658.593	1	-6
659.779	1	1
660.965	1	3
662.152	1	11
663.338	1	4
664.524	1	1
665.710	1	13
666.896	1	12
668.082	1	10
669.268	1	6
670.454	1	3
671.640	1	-3
672.826	1	5
674.011	1	3
675.197	1	0
676.383	1	9
677.569	1	8
678.754	1	11
679.940	1	-3
681.125	1	4
682.311	1	-7
683.496	1	-2
684.682	1	-1
685.867	1	6
687.053	1	21
688.238	1	20
688.746	1	2

File: GaN_sample F_spot6_UVVIS_130 K_200um_350 ms 2x2mm1_132.txt
340.368	1	-1
341.565	1	1
342.763	1	7
343.960	1	-3
345.157	1	-9
346.354	1	9
347.552	1	5
348.749	1	3
349.946	1	11
351.143	1	-6
352.340	1	13
353.537	1	0
354.734	1	-1
355.931	1	5
357.127	1	11
358.324	1	5
359.521	1	5
360.718	1	20
361.914	1	13
363.111	1	21
364.308	1	39
365.504	1	49
366.701	1	57
367.897	1	52
369.093	1	51
370.290	1	44
371.486	1	48
372.682	1	42
373.879	1	37
375.075	1	34
376.271	1	24
377.467	1	26
378.663	1	18
379.859	1	20
381.055	1	14
382.251	1	8
383.447	1	21
384.643	1	25
385.839	1	12
387.035	1	21
388.230	1	12
389.426	1	10
390.622	1	17
391.817	1	31
393.013	1	16
394.208	1	2
395.404	1	-2
396.599	1	16
397.795	1	-3
398.990	1	-3
400.186	1	2
401.381	1	7
402.576	1	13
403.771	1	17
404.967	1	8
406.162	1	-3
407.357	1	14
408.552	1	5
409.747	1	7
410.942	1	5
412.137	1	7
413.332	1	-5
414.526	1	9
415.721	1	8
416.916	1	8
418.111	1	13
419.305	1	0
420.500	1	10
421.695	1	5
422.889	1	15
424.084	1	12
425.278	1	5
426.472	1	7
427.667	1	6
428.861	1	1
430.055	1	1
431.250	1	16
432.444	1	9
433.638	1	2
434.832	1	-2
436.026	1	8
437.220	1	6
438.414	1	-3
439.608	1	17
440.802	1	-5
441.996	1	15
443.190	1	-2
444.384	1	3
445.578	1	-1
446.771	1	4
447.965	1	6
449.159	1	7
450.352	1	5
451.546	1	8
452.739	1	11
453.933	1	13
455.126	1	1
456.320	1	5
457.513	1	-5
458.706	1	11
459.899	1	2
461.093	1	5
462.286	1	10
463.479	1	12
464.672	1	5
465.865	1	0
467.058	1	7
468.251	1	-3
469.444	1	3
470.637	1	10
471.830	1	3
473.023	1	6
474.215	1	8
475.408	1	2
476.601	1	-2
477.793	1	9
478.986	1	2
480.179	1	-1
481.371	1	13
482.564	1	8
483.756	1	3
484.948	1	8
486.141	1	6
487.333	1	-1
488.525	1	9
489.718	1	5
490.910	1	2
492.102	1	20
493.294	1	17
494.486	1	18
495.678	1	14
496.870	1	5
498.062	1	-2
499.254	1	9
500.446	1	9
501.638	1	6
502.829	1	0
504.021	1	4
505.213	1	17
506.404	1	20
507.596	1	15
508.788	1	11
509.979	1	8
511.171	1	16
512.362	1	10
513.553	1	16
514.745	1	12
515.936	1	23
517.127	1	22
518.319	1	8
519.510	1	17
520.701	1	19
521.892	1	20
523.083	1	21
524.274	1	13
525.465	1	21
526.656	1	26
527.847	1	19
529.038	1	24
530.229	1	20
531.419	1	27
532.610	1	20
533.801	1	32
534.991	1	14
536.182	1	15
537.373	1	18
538.563	1	31
539.754	1	17
540.944	1	20
542.134	1	12
543.325	1	18
544.515	1	18
545.705	1	17
546.896	1	20
548.086	1	12
549.276	1	9
550.466	1	20
551.656	1	21
552.846	1	10
554.036	1	19
555.226	1	12
556.416	1	28
557.606	1	18
558.796	1	28
559.986	1	17
561.175	1	19
562.365	1	18
563.555	1	22
564.744	1	12
565.934	1	9
567.123	1	1
568.313	1	11
569.502	1	17
570.692	1	8
571.881	1	12
573.070	1	11
574.260	1	8
575.449	1	5
576.638	1	4
577.827	1	2
579.016	1	7
580.205	1	-2
581.394	1	5
582.583	1	15
583.772	1	8
584.961	1	2
586.150	1	16
587.339	1	0
588.528	1	10
589.717	1	10
590.905	1	6
592.094	1	3
593.283	1	-2
594.471	1	7
595.660	1	11
596.848	1	13
598.037	1	4
599.225	1	5
600.413	1	9
601.602	1	5
602.790	1	4
603.978	1	0
605.166	1	12
606.355	1	10
607.543	1	6
608.731	1	3
609.919	1	6
611.107	1	3
612.295	1	16
613.483	1	0
614.671	1	4
615.858	1	1
617.046	1	3
618.234	1	9
619.422	1	9
620.609	1	1
621.797	1	2
622.985	1	2
624.172	1	4
625.360	1	4
626.547	1	9
627.735	1	13
628.922	1	-8
630.109	1	6
631.297	1	-1
632.484	1	2
633.671	1	-8
634.858	1	14
636.045	1	13
637.232	1	-3
638.419	1	-3
639.606	1	3
640.793	1	-6
641.980	1	0
643.167	1	0
644.354	1	0
645.541	1	-6
646.728	1	8
647.914	1	-3
649.101	1	1
650.288	1	-1
651.474	1	-5
652.661	1	-3
653.847	1	-6
655.034	1	4
656.220	1	1
657.406	1	8
658.593	1	1
659.779	1	6
660.965	1	-3
662.152	1	4
663.338	1	6
664.524	1	-3
665.710	1	7
666.896	1	7
668.082	1	3
669.268	1	5
670.454	1	6
671.640	1	-5
672.826	1	12
674.011	1	5
675.197	1	-3
676.383	1	8
677.569	1	-1
678.754	1	4
679.940	1	-4
681.125	1	16
682.311	1	1
683.496	1	0
684.682	1	-2
685.867	1	9
687.053	1	-2
688.238	1	14
688.746	1	10

File: GaN_sample F_spot6_UVVIS_130 K_200um_350 ms 2x2mm1_133.txt
340.368	1	9
341.565	1	2
342.763	1	5
343.960	1	-4
345.157	1	-3
346.354	1	-2
347.552	1	2
348.749	1	8
349.946	1	-2
351.143	1	4
352.340	1	20
353.537	1	-7
354.734	1	6
355.931	1	6
357.127	1	13
358.324	1	5
359.521	1	11
360.718	1	16
361.914	1	11
363.111	1	28
364.308	1	32
365.504	1	50
366.701	1	51
367.897	1	34
369.093	1	44
370.290	1	41
371.486	1	39
372.682	1	34
373.879	1	31
375.075	1	31
376.271	1	27
377.467	1	28
378.663	1	16
379.859	1	11
381.055	1	14
382.251	1	17
383.447	1	16
384.643	1	15
385.839	1	11
387.035	1	18
388.230	1	3
389.426	1	15
390.622	1	4
391.817	1	16
393.013	1	13
394.208	1	-3
395.404	1	-5
396.599	1	21
397.795	1	6
398.990	1	12
400.186	1	4
401.381	1	11
402.576	1	10
403.771	1	19
404.967	1	4
406.162	1	2
407.357	1	10
408.552	1	10
409.747	1	0
410.942	1	6
412.137	1	-1
413.332	1	0
414.526	1	5
415.721	1	1
416.916	1	14
418.111	1	7
419.305	1	7
420.500	1	11
421.695	1	0
422.889	1	7
424.084	1	10
425.278	1	6
426.472	1	0
427.667	1	12
428.861	1	5
430.055	1	1
431.250	1	14
432.444	1	11
433.638	1	12
434.832	1	14
436.026	1	10
437.220	1	2
438.414	1	7
439.608	1	24
440.802	1	-6
441.996	1	8
443.190	1	6
444.384	1	-1
445.578	1	3
446.771	1	17
447.965	1	7
449.159	1	6
450.352	1	6
451.546	1	9
452.739	1	8
453.933	1	5
455.126	1	-5
456.320	1	-6
457.513	1	-4
458.706	1	16
459.899	1	2
461.093	1	11
462.286	1	12
463.479	1	16
464.672	1	12
465.865	1	0
467.058	1	7
468.251	1	8
469.444	1	-1
470.637	1	3
471.830	1	1
473.023	1	8
474.215	1	-2
475.408	1	3
476.601	1	6
477.793	1	-3
478.986	1	3
480.179	1	-5
481.371	1	11
482.564	1	-2
483.756	1	12
484.948	1	5
486.141	1	4
487.333	1	8
488.525	1	9
489.718	1	11
490.910	1	0
492.102	1	9
493.294	1	13
494.486	1	12
495.678	1	17
496.870	1	19
498.062	1	5
499.254	1	11
500.446	1	15
501.638	1	9
502.829	1	4
504.021	1	20
505.213	1	10
506.404	1	7
507.596	1	7
508.788	1	18
509.979	1	17
511.171	1	23
512.362	1	3
513.553	1	22
514.745	1	7
515.936	1	14
517.127	1	25
518.319	1	5
519.510	1	15
520.701	1	11
521.892	1	15
523.083	1	21
524.274	1	6
525.465	1	17
526.656	1	22
527.847	1	9
529.038	1	19
530.229	1	25
531.419	1	27
532.610	1	16
533.801	1	26
534.991	1	17
536.182	1	28
537.373	1	15
538.563	1	21
539.754	1	6
540.944	1	17
542.134	1	5
543.325	1	27
544.515	1	18
545.705	1	9
546.896	1	18
548.086	1	4
549.276	1	-1
550.466	1	16
551.656	1	12
552.846	1	7
554.036	1	12
555.226	1	16
556.416	1	4
557.606	1	6
558.796	1	16
559.986	1	20
561.175	1	18
562.365	1	12
563.555	1	19
564.744	1	15
565.934	1	9
567.123	1	5
568.313	1	14
569.502	1	9
570.692	1	22
571.881	1	8
573.070	1	11
574.260	1	7
575.449	1	11
576.638	1	0
577.827	1	4
579.016	1	7
580.205	1	4
581.394	1	3
582.583	1	19
583.772	1	8
584.961	1	0
586.150	1	10
587.339	1	8
588.528	1	14
589.717	1	9
590.905	1	12
592.094	1	-3
593.283	1	6
594.471	1	3
595.660	1	13
596.848	1	3
598.037	1	15
599.225	1	7
600.413	1	11
601.602	1	-5
602.790	1	3
603.978	1	5
605.166	1	5
606.355	1	16
607.543	1	2
608.731	1	7
609.919	1	5
611.107	1	5
612.295	1	14
613.483	1	2
614.671	1	11
615.858	1	1
617.046	1	9
618.234	1	9
619.422	1	3
620.609	1	1
621.797	1	7
622.985	1	12
624.172	1	10
625.360	1	3
626.547	1	9
627.735	1	14
628.922	1	-6
630.109	1	10
631.297	1	0
632.484	1	-6
633.671	1	0
634.858	1	10
636.045	1	14
637.232	1	-8
638.419	1	-1
639.606	1	5
640.793	1	-6
641.980	1	1
643.167	1	3
644.354	1	-2
645.541	1	1
646.728	1	20
647.914	1	-5
649.101	1	-5
650.288	1	12
651.474	1	-3
652.661	1	6
653.847	1	9
655.034	1	8
656.220	1	-3
657.406	1	7
658.593	1	6
659.779	1	6
660.965	1	10
662.152	1	-2
663.338	1	7
664.524	1	-3
665.710	1	3
666.896	1	7
668.082	1	-1
669.268	1	-3
670.454	1	7
671.640	1	-7
672.826	1	0
674.011	1	-3
675.197	1	6
676.383	1	2
677.569	1	9
678.754	1	6
679.940	1	6
681.125	1	11
682.311	1	-9
683.496	1	-2
684.682	1	-1
685.867	1	-6
687.053	1	-8
688.238	1	14
688.746	1	12

File: GaN_sample F_spot6_UVVIS_130 K_200um_350 ms 2x2mm1_134.txt
340.368	1	7
341.565	1	8
342.763	1	13
343.960	1	-4
345.157	1	-12
346.354	1	8
347.552	1	-4
348.749	1	7
349.946	1	6
351.143	1	5
352.340	1	17
353.537	1	1
354.734	1	-4
355.931	1	10
357.127	1	13
358.324	1	12
359.521	1	7
360.718	1	20
361.914	1	21
363.111	1	35
364.308	1	42
365.504	1	42
366.701	1	55
367.897	1	38
369.093	1	49
370.290	1	38
371.486	1	41
372.682	1	34
373.879	1	26
375.075	1	29
376.271	1	32
377.467	1	21
378.663	1	18
379.859	1	18
381.055	1	22
382.251	1	11
383.447	1	21
384.643	1	17
385.839	1	17
387.035	1	27
388.230	1	8
389.426	1	12
390.622	1	2
391.817	1	18
393.013	1	10
394.208	1	2
395.404	1	-1
396.599	1	9
397.795	1	11
398.990	1	6
400.186	1	12
401.381	1	9
402.576	1	5
403.771	1	7
404.967	1	8
406.162	1	14
407.357	1	13
408.552	1	9
409.747	1	3
410.942	1	5
412.137	1	-2
413.332	1	2
414.526	1	9
415.721	1	0
416.916	1	0
418.111	1	14
419.305	1	5
420.500	1	11
421.695	1	4
422.889	1	5
424.084	1	10
425.278	1	-3
426.472	1	3
427.667	1	9
428.861	1	8
430.055	1	4
431.250	1	12
432.444	1	10
433.638	1	-4
434.832	1	7
436.026	1	7
437.220	1	3
438.414	1	-1
439.608	1	14
440.802	1	0
441.996	1	14
443.190	1	4
444.384	1	-1
445.578	1	0
446.771	1	7
447.965	1	7
449.159	1	-5
450.352	1	-1
451.546	1	12
452.739	1	10
453.933	1	2
455.126	1	-2
456.320	1	5
457.513	1	1
458.706	1	3
459.899	1	8
461.093	1	11
462.286	1	4
463.479	1	12
464.672	1	9
465.865	1	0
467.058	1	17
468.251	1	5
469.444	1	3
470.637	1	6
471.830	1	5
473.023	1	11
474.215	1	10
475.408	1	11
476.601	1	2
477.793	1	7
478.986	1	2
480.179	1	-1
481.371	1	4
482.564	1	-2
483.756	1	-2
484.948	1	9
486.141	1	-1
487.333	1	-1
488.525	1	18
489.718	1	14
490.910	1	-3
492.102	1	13
493.294	1	13
494.486	1	16
495.678	1	8
496.870	1	17
498.062	1	-5
499.254	1	10
500.446	1	15
501.638	1	16
502.829	1	9
504.021	1	10
505.213	1	9
506.404	1	8
507.596	1	14
508.788	1	11
509.979	1	14
511.171	1	15
512.362	1	21
513.553	1	23
514.745	1	5
515.936	1	27
517.127	1	15
518.319	1	7
519.510	1	19
520.701	1	17
521.892	1	22
523.083	1	19
524.274	1	8
525.465	1	20
526.656	1	17
527.847	1	17
529.038	1	23
530.229	1	18
531.419	1	23
532.610	1	16
533.801	1	22
534.991	1	21
536.182	1	27
537.373	1	21
538.563	1	29
539.754	1	13
540.944	1	25
542.134	1	18
543.325	1	17
544.515	1	12
545.705	1	6
546.896	1	12
548.086	1	3
549.276	1	6
550.466	1	11
551.656	1	19
552.846	1	9
554.036	1	5
555.226	1	18
556.416	1	15
557.606	1	4
558.796	1	16
559.986	1	20
561.175	1	13
562.365	1	25
563.555	1	11
564.744	1	19
565.934	1	0
567.123	1	11
568.313	1	12
569.502	1	5
570.692	1	18
571.881	1	13
573.070	1	7
574.260	1	1
575.449	1	11
576.638	1	6
577.827	1	-2
579.016	1	6
580.205	1	0
581.394	1	1
582.583	1	6
583.772	1	12
584.961	1	-5
586.150	1	15
587.339	1	10
588.528	1	15
589.717	1	-2
590.905	1	13
592.094	1	3
593.283	1	0
594.471	1	11
595.660	1	4
596.848	1	12
598.037	1	5
599.225	1	5
600.413	1	11
601.602	1	-8
602.790	1	7
603.978	1	5
605.166	1	14
606.355	1	10
607.543	1	8
608.731	1	11
609.919	1	17
611.107	1	12
612.295	1	13
613.483	1	-2
614.671	1	9
615.858	1	-1
617.046	1	5
618.234	1	5
619.422	1	5
620.609	1	2
621.797	1	3
622.985	1	5
624.172	1	4
625.360	1	-1
626.547	1	7
627.735	1	15
628.922	1	-3
630.109	1	5
631.297	1	-3
632.484	1	-3
633.671	1	0
634.858	1	-1
636.045	1	19
637.232	1	3
638.419	1	11
639.606	1	11
640.793	1	-4
641.980	1	6
643.167	1	4
644.354	1	1
645.541	1	0
646.728	1	3
647.914	1	-5
649.101	1	-5
650.288	1	11
651.474	1	-7
652.661	1	2
653.847	1	0
655.034	1	8
656.220	1	3
657.406	1	5
658.593	1	5
659.779	1	1
660.965	1	2
662.152	1	0
663.338	1	2
664.524	1	1
665.710	1	12
666.896	1	9
668.082	1	12
669.268	1	-4
670.454	1	0
671.640	1	2
672.826	1	-7
674.011	1	1
675.197	1	-4
676.383	1	3
677.569	1	5
678.754	1	9
679.940	1	-5
681.125	1	9
682.311	1	-6
683.496	1	3
684.682	1	-2
685.867	1	8
687.053	1	-1
688.238	1	6
688.746	1	9

File: GaN_sample F_spot6_UVVIS_130 K_200um_350 ms 2x2mm1_136.txt
340.368	1	6
341.565	1	5
342.763	1	9
343.960	1	-8
345.157	1	-6
346.354	1	0
347.552	1	0
348.749	1	11
349.946	1	4
351.143	1	5
352.340	1	13
353.537	1	-3
354.734	1	4
355.931	1	14
357.127	1	16
358.324	1	4
359.521	1	8
360.718	1	24
361.914	1	19
363.111	1	27
364.308	1	31
365.504	1	42
366.701	1	43
367.897	1	42
369.093	1	47
370.290	1	50
371.486	1	39
372.682	1	41
373.879	1	41
375.075	1	32
376.271	1	26
377.467	1	37
378.663	1	15
379.859	1	14
381.055	1	15
382.251	1	14
383.447	1	4
384.643	1	10
385.839	1	11
387.035	1	20
388.230	1	14
389.426	1	18
390.622	1	7
391.817	1	15
393.013	1	17
394.208	1	2
395.404	1	-5
396.599	1	19
397.795	1	-2
398.990	1	10
400.186	1	1
401.381	1	9
402.576	1	11
403.771	1	6
404.967	1	10
406.162	1	-2
407.357	1	6
408.552	1	3
409.747	1	7
410.942	1	13
412.137	1	1
413.332	1	-5
414.526	1	5
415.721	1	1
416.916	1	-3
418.111	1	15
419.305	1	-5
420.500	1	6
421.695	1	4
422.889	1	7
424.084	1	5
425.278	1	3
426.472	1	10
427.667	1	15
428.861	1	-4
430.055	1	-3
431.250	1	13
432.444	1	9
433.638	1	11
434.832	1	4
436.026	1	4
437.220	1	-7
438.414	1	1
439.608	1	22
440.802	1	-1
441.996	1	10
443.190	1	7
444.384	1	1
445.578	1	-1
446.771	1	-3
447.965	1	17
449.159	1	11
450.352	1	18
451.546	1	13
452.739	1	4
453.933	1	9
455.126	1	-15
456.320	1	-5
457.513	1	-5
458.706	1	10
459.899	1	1
461.093	1	3
462.286	1	8
463.479	1	8
464.672	1	5
465.865	1	0
467.058	1	8
468.251	1	6
469.444	1	5
470.637	1	5
471.830	1	8
473.023	1	-2
474.215	1	6
475.408	1	6
476.601	1	6
477.793	1	0
478.986	1	2
480.179	1	-1
481.371	1	12
482.564	1	2
483.756	1	5
484.948	1	12
486.141	1	1
487.333	1	2
488.525	1	0
489.718	1	8
490.910	1	5
492.102	1	13
493.294	1	16
494.486	1	14
495.678	1	9
496.870	1	7
498.062	1	-4
499.254	1	9
500.446	1	1
501.638	1	6
502.829	1	7
504.021	1	4
505.213	1	2
506.404	1	7
507.596	1	10
508.788	1	15
509.979	1	9
511.171	1	26
512.362	1	9
513.553	1	13
514.745	1	6
515.936	1	20
517.127	1	28
518.319	1	10
519.510	1	11
520.701	1	9
521.892	1	17
523.083	1	20
524.274	1	11
525.465	1	21
526.656	1	17
527.847	1	17
529.038	1	9
530.229	1	26
531.419	1	23
532.610	1	18
533.801	1	27
534.991	1	9
536.182	1	22
537.373	1	19
538.563	1	16
539.754	1	19
540.944	1	21
542.134	1	6
543.325	1	15
544.515	1	19
545.705	1	10
546.896	1	25
548.086	1	4
549.276	1	10
550.466	1	18
551.656	1	11
552.846	1	11
554.036	1	7
555.226	1	13
556.416	1	8
557.606	1	13
558.796	1	27
559.986	1	16
561.175	1	7
562.365	1	11
563.555	1	21
564.744	1	13
565.934	1	4
567.123	1	3
568.313	1	-2
569.502	1	8
570.692	1	21
571.881	1	18
573.070	1	6
574.260	1	8
575.449	1	10
576.638	1	-1
577.827	1	5
579.016	1	8
580.205	1	0
581.394	1	14
582.583	1	7
583.772	1	2
584.961	1	9
586.150	1	5
587.339	1	-4
588.528	1	15
589.717	1	7
590.905	1	16
592.094	1	3
593.283	1	5
594.471	1	9
595.660	1	-1
596.848	1	14
598.037	1	2
599.225	1	3
600.413	1	13
601.602	1	-1
602.790	1	1
603.978	1	4
605.166	1	9
606.355	1	10
607.543	1	-4
608.731	1	5
609.919	1	4
611.107	1	8
612.295	1	11
613.483	1	-7
614.671	1	10
615.858	1	-5
617.046	1	14
618.234	1	0
619.422	1	1
620.609	1	-2
621.797	1	6
622.985	1	4
624.172	1	-5
625.360	1	9
626.547	1	8
627.735	1	3
628.922	1	11
630.109	1	8
631.297	1	4
632.484	1	-1
633.671	1	0
634.858	1	5
636.045	1	11
637.232	1	0
638.419	1	2
639.606	1	7
640.793	1	-6
641.980	1	1
643.167	1	5
644.354	1	1
645.541	1	3
646.728	1	8
647.914	1	3
649.101	1	-7
650.288	1	2
651.474	1	1
652.661	1	-1
653.847	1	-1
655.034	1	1
656.220	1	-4
657.406	1	2
658.593	1	-1
659.779	1	0
660.965	1	8
662.152	1	-6
663.338	1	4
664.524	1	5
665.710	1	7
666.896	1	7
668.082	1	11
669.268	1	-8
670.454	1	-7
671.640	1	-6
672.826	1	0
674.011	1	3
675.197	1	2
676.383	1	15
677.569	1	5
678.754	1	3
679.940	1	9
681.125	1	12
682.311	1	-16
683.496	1	-6
684.682	1	4
685.867	1	7
687.053	1	9
688.238	1	9
688.746	1	12

File: GaN_sample F_spot6_UVVIS_130 K_200um_350 ms 2x2mm1_137.txt
340.368	1	3
341.565	1	0
342.763	1	4
343.960	1	-9
345.157	1	-3
346.354	1	-1
347.552	1	-5
348.749	1	10
349.946	1	9
351.143	1	6
352.340	1	15
353.537	1	5
354.734	1	9
355.931	1	3
357.127	1	4
358.324	1	-3
359.521	1	9
360.718	1	13
361.914	1	18
363.111	1	27
364.308	1	21
365.504	1	38
366.701	1	37
367.897	1	42
369.093	1	37
370.290	1	44
371.486	1	38
372.682	1	27
373.879	1	32
375.075	1	27
376.271	1	24
377.467	1	25
378.663	1	19
379.859	1	11
381.055	1	4
382.251	1	15
383.447	1	10
384.643	1	15
385.839	1	8
387.035	1	25
388.230	1	7
389.426	1	20
390.622	1	12
391.817	1	14
393.013	1	15
394.208	1	1
395.404	1	0
396.599	1	12
397.795	1	4
398.990	1	10
400.186	1	-2
401.381	1	14
402.576	1	4
403.771	1	12
404.967	1	1
406.162	1	2
407.357	1	8
408.552	1	-1
409.747	1	8
410.942	1	9
412.137	1	8
413.332	1	0
414.526	1	11
415.721	1	3
416.916	1	4
418.111	1	10
419.305	1	13
420.500	1	15
421.695	1	8
422.889	1	7
424.084	1	7
425.278	1	2
426.472	1	8
427.667	1	6
428.861	1	5
430.055	1	3
431.250	1	18
432.444	1	16
433.638	1	3
434.832	1	1
436.026	1	7
437.220	1	-10
438.414	1	8
439.608	1	9
440.802	1	-4
441.996	1	11
443.190	1	3
444.384	1	5
445.578	1	0
446.771	1	-2
447.965	1	10
449.159	1	5
450.352	1	13
451.546	1	8
452.739	1	6
453.933	1	-2
455.126	1	-7
456.320	1	0
457.513	1	1
458.706	1	6
459.899	1	2
461.093	1	9
462.286	1	15
463.479	1	5
464.672	1	16
465.865	1	-2
467.058	1	8
468.251	1	5
469.444	1	4
470.637	1	7
471.830	1	1
473.023	1	7
474.215	1	0
475.408	1	12
476.601	1	-1
477.793	1	-2
478.986	1	-6
480.179	1	9
481.371	1	9
482.564	1	4
483.756	1	10
484.948	1	0
486.141	1	4
487.333	1	0
488.525	1	6
489.718	1	13
490.910	1	0
492.102	1	5
493.294	1	7
494.486	1	20
495.678	1	-1
496.870	1	11
498.062	1	10
499.254	1	18
500.446	1	0
501.638	1	1
502.829	1	11
504.021	1	9
505.213	1	15
506.404	1	10
507.596	1	7
508.788	1	18
509.979	1	8
511.171	1	16
512.362	1	11
513.553	1	19
514.745	1	1
515.936	1	20
517.127	1	14
518.319	1	11
519.510	1	15
520.701	1	16
521.892	1	30
523.083	1	13
524.274	1	17
525.465	1	18
526.656	1	16
527.847	1	16
529.038	1	2
530.229	1	24
531.419	1	22
532.610	1	11
533.801	1	31
534.991	1	17
536.182	1	26
537.373	1	14
538.563	1	12
539.754	1	5
540.944	1	16
542.134	1	9
543.325	1	14
544.515	1	18
545.705	1	9
546.896	1	14
548.086	1	10
549.276	1	-1
550.466	1	11
551.656	1	16
552.846	1	12
554.036	1	18
555.226	1	17
556.416	1	20
557.606	1	20
558.796	1	22
559.986	1	7
561.175	1	20
562.365	1	12
563.555	1	25
564.744	1	13
565.934	1	1
567.123	1	16
568.313	1	9
569.502	1	6
570.692	1	11
571.881	1	1
573.070	1	8
574.260	1	17
575.449	1	-1
576.638	1	4
577.827	1	-8
579.016	1	13
580.205	1	1
581.394	1	4
582.583	1	12
583.772	1	12
584.961	1	9
586.150	1	9
587.339	1	-1
588.528	1	1
589.717	1	1
590.905	1	22
592.094	1	6
593.283	1	-3
594.471	1	4
595.660	1	13
596.848	1	13
598.037	1	8
599.225	1	6
600.413	1	6
601.602	1	6
602.790	1	1
603.978	1	15
605.166	1	21
606.355	1	10
607.543	1	7
608.731	1	6
609.919	1	13
611.107	1	6
612.295	1	14
613.483	1	5
614.671	1	11
615.858	1	-3
617.046	1	5
618.234	1	1
619.422	1	2
620.609	1	5
621.797	1	3
622.985	1	9
624.172	1	5
625.360	1	8
626.547	1	4
627.735	1	12
628.922	1	0
630.109	1	12
631.297	1	5
632.484	1	-5
633.671	1	-2
634.858	1	16
636.045	1	21
637.232	1	-1
638.419	1	7
639.606	1	6
640.793	1	-3
641.980	1	2
643.167	1	8
644.354	1	-5
645.541	1	6
646.728	1	4
647.914	1	-5
649.101	1	7
650.288	1	8
651.474	1	-7
652.661	1	-9
653.847	1	-6
655.034	1	6
656.220	1	-3
657.406	1	-3
658.593	1	4
659.779	1	1
660.965	1	-2
662.152	1	6
663.338	1	-6
664.524	1	0
665.710	1	13
666.896	1	6
668.082	1	8
669.268	1	-4
670.454	1	-3
671.640	1	-4
672.826	1	7
674.011	1	-4
675.197	1	-4
676.383	1	5
677.569	1	-2
678.754	1	4
679.940	1	1
681.125	1	16
682.311	1	-3
683.496	1	1
684.682	1	2
685.867	1	3
687.053	1	6
688.238	1	15
688.746	1	15