Folder: cryo-il_analysis/Data/GaN_170K_550ms (part 30)

File: GaN_sample D_spot 18_UVVIS_170 K_200um_550 ms 2x2mm1_373.txt
340.368	1	1
341.565	1	7
342.763	1	12
343.960	1	5
345.157	1	1
346.354	1	3
347.552	1	8
348.749	1	2
349.946	1	6
351.143	1	-7
352.340	1	5
353.537	1	3
354.734	1	1
355.931	1	0
357.127	1	-4
358.324	1	1
359.521	1	8
360.718	1	-5
361.914	1	-10
363.111	1	17
364.308	1	8
365.504	1	2
366.701	1	5
367.897	1	9
369.093	1	-9
370.290	1	9
371.486	1	-8
372.682	1	6
373.879	1	9
375.075	1	15
376.271	1	4
377.467	1	6
378.663	1	0
379.859	1	-3
381.055	1	1
382.251	1	-11
383.447	1	8
384.643	1	-3
385.839	1	-3
387.035	1	3
388.230	1	6
389.426	1	0
390.622	1	0
391.817	1	-5
393.013	1	-11
394.208	1	7
395.404	1	11
396.599	1	3
397.795	1	-16
398.990	1	-13
400.186	1	-2
401.381	1	7
402.576	1	-7
403.771	1	4
404.967	1	2
406.162	1	2
407.357	1	-5
408.552	1	8
409.747	1	0
410.942	1	-4
412.137	1	-9
413.332	1	-5
414.526	1	5
415.721	1	-3
416.916	1	-2
418.111	1	6
419.305	1	4
420.500	1	1
421.695	1	-7
422.889	1	-3
424.084	1	18
425.278	1	-2
426.472	1	0
427.667	1	4
428.861	1	5
430.055	1	0
431.250	1	2
432.444	1	-3
433.638	1	3
434.832	1	4
436.026	1	-6
437.220	1	-3
438.414	1	0
439.608	1	-8
440.802	1	6
441.996	1	2
443.190	1	-2
444.384	1	-7
445.578	1	8
446.771	1	-10
447.965	1	0
449.159	1	6
450.352	1	-2
451.546	1	-8
452.739	1	6
453.933	1	2
455.126	1	9
456.320	1	1
457.513	1	-1
458.706	1	14
459.899	1	-15
461.093	1	6
462.286	1	-2
463.479	1	-6
464.672	1	-5
465.865	1	0
467.058	1	0
468.251	1	-2
469.444	1	3
470.637	1	2
471.830	1	4
473.023	1	-3
474.215	1	4
475.408	1	0
476.601	1	-6
477.793	1	1
478.986	1	-5
480.179	1	0
481.371	1	-3
482.564	1	-5
483.756	1	-1
484.948	1	-4
486.141	1	12
487.333	1	-1
488.525	1	3
489.718	1	-2
490.910	1	0
492.102	1	-5
493.294	1	-6
494.486	1	9
495.678	1	3
496.870	1	-2
498.062	1	-3
499.254	1	7
500.446	1	-10
501.638	1	-9
502.829	1	2
504.021	1	1
505.213	1	-11
506.404	1	2
507.596	1	-2
508.788	1	-6
509.979	1	-2
511.171	1	3
512.362	1	-3
513.553	1	-5
514.745	1	-3
515.936	1	-4
517.127	1	6
518.319	1	6
519.510	1	7
520.701	1	-1
521.892	1	-4
523.083	1	-1
524.274	1	-5
525.465	1	-1
526.656	1	11
527.847	1	2
529.038	1	-6
530.229	1	0
531.419	1	11
532.610	1	1
533.801	1	5
534.991	1	-3
536.182	1	2
537.373	1	-4
538.563	1	-5
539.754	1	3
540.944	1	1
542.134	1	-2
543.325	1	6
544.515	1	-5
545.705	1	8
546.896	1	10
548.086	1	2
549.276	1	0
550.466	1	1
551.656	1	3
552.846	1	7
554.036	1	-3
555.226	1	-9
556.416	1	4
557.606	1	-2
558.796	1	-3
559.986	1	9
561.175	1	-7
562.365	1	3
563.555	1	2
564.744	1	4
565.934	1	0
567.123	1	4
568.313	1	-1
569.502	1	7
570.692	1	-1
571.881	1	2
573.070	1	7
574.260	1	0
575.449	1	5
576.638	1	2
577.827	1	2
579.016	1	-3
580.205	1	-1
581.394	1	5
582.583	1	0
583.772	1	-3
584.961	1	-1
586.150	1	-2
587.339	1	-5
588.528	1	2
589.717	1	5
590.905	1	5
592.094	1	8
593.283	1	1
594.471	1	2
595.660	1	1
596.848	1	2
598.037	1	1
599.225	1	3
600.413	1	-16
601.602	1	-5
602.790	1	15
603.978	1	3
605.166	1	5
606.355	1	6
607.543	1	7
608.731	1	3
609.919	1	-4
611.107	1	-7
612.295	1	-4
613.483	1	-7
614.671	1	4
615.858	1	-4
617.046	1	-9
618.234	1	0
619.422	1	-11
620.609	1	0
621.797	1	-5
622.985	1	1
624.172	1	-2
625.360	1	7
626.547	1	-11
627.735	1	-6
628.922	1	-7
630.109	1	-4
631.297	1	-6
632.484	1	-7
633.671	1	10
634.858	1	0
636.045	1	5
637.232	1	1
638.419	1	-2
639.606	1	1
640.793	1	-6
641.980	1	-2
643.167	1	9
644.354	1	-7
645.541	1	5
646.728	1	2
647.914	1	-5
649.101	1	-1
650.288	1	0
651.474	1	6
652.661	1	6
653.847	1	-2
655.034	1	4
656.220	1	3
657.406	1	6
658.593	1	3
659.779	1	2
660.965	1	5
662.152	1	4
663.338	1	-4
664.524	1	-4
665.710	1	-2
666.896	1	3
668.082	1	5
669.268	1	-5
670.454	1	-7
671.640	1	-1
672.826	1	0
674.011	1	6
675.197	1	5
676.383	1	0
677.569	1	-6
678.754	1	3
679.940	1	1
681.125	1	4
682.311	1	0
683.496	1	1
684.682	1	-2
685.867	1	4
687.053	1	-13
688.238	1	-9
688.746	1	-5

File: GaN_sample D_spot 18_UVVIS_170 K_200um_550 ms 2x2mm1_380.txt
340.368	1	-3
341.565	1	7
342.763	1	-7
343.960	1	1
345.157	1	-4
346.354	1	-5
347.552	1	5
348.749	1	2
349.946	1	5
351.143	1	2
352.340	1	2
353.537	1	4
354.734	1	6
355.931	1	1
357.127	1	0
358.324	1	8
359.521	1	5
360.718	1	-4
361.914	1	8
363.111	1	7
364.308	1	2
365.504	1	9
366.701	1	7
367.897	1	13
369.093	1	1
370.290	1	4
371.486	1	-4
372.682	1	5
373.879	1	10
375.075	1	-5
376.271	1	10
377.467	1	8
378.663	1	-4
379.859	1	11
381.055	1	4
382.251	1	1
383.447	1	4
384.643	1	1
385.839	1	-10
387.035	1	0
388.230	1	-7
389.426	1	-3
390.622	1	3
391.817	1	-2
393.013	1	-3
394.208	1	5
395.404	1	6
396.599	1	-8
397.795	1	1
398.990	1	-6
400.186	1	1
401.381	1	3
402.576	1	-7
403.771	1	2
404.967	1	6
406.162	1	4
407.357	1	-5
408.552	1	3
409.747	1	-1
410.942	1	3
412.137	1	-6
413.332	1	-1
414.526	1	-11
415.721	1	-1
416.916	1	-4
418.111	1	6
419.305	1	2
420.500	1	-1
421.695	1	-4
422.889	1	8
424.084	1	20
425.278	1	-5
426.472	1	3
427.667	1	-3
428.861	1	3
430.055	1	1
431.250	1	14
432.444	1	7
433.638	1	7
434.832	1	1
436.026	1	-6
437.220	1	11
438.414	1	-17
439.608	1	-3
440.802	1	5
441.996	1	-5
443.190	1	5
444.384	1	-11
445.578	1	4
446.771	1	-7
447.965	1	7
449.159	1	2
450.352	1	-5
451.546	1	-7
452.739	1	-2
453.933	1	-6
455.126	1	5
456.320	1	-3
457.513	1	-3
458.706	1	6
459.899	1	4
461.093	1	7
462.286	1	-13
463.479	1	2
464.672	1	-8
465.865	1	13
467.058	1	-5
468.251	1	-3
469.444	1	3
470.637	1	2
471.830	1	5
473.023	1	5
474.215	1	-6
475.408	1	0
476.601	1	3
477.793	1	8
478.986	1	1
480.179	1	-1
481.371	1	-7
482.564	1	-2
483.756	1	-2
484.948	1	-1
486.141	1	11
487.333	1	-3
488.525	1	3
489.718	1	4
490.910	1	3
492.102	1	-5
493.294	1	1
494.486	1	13
495.678	1	11
496.870	1	4
498.062	1	-5
499.254	1	8
500.446	1	-5
501.638	1	-5
502.829	1	7
504.021	1	3
505.213	1	1
506.404	1	4
507.596	1	-3
508.788	1	-9
509.979	1	5
511.171	1	15
512.362	1	-12
513.553	1	2
514.745	1	4
515.936	1	7
517.127	1	4
518.319	1	4
519.510	1	7
520.701	1	12
521.892	1	-1
523.083	1	-4
524.274	1	1
525.465	1	3
526.656	1	5
527.847	1	1
529.038	1	-2
530.229	1	12
531.419	1	6
532.610	1	4
533.801	1	6
534.991	1	-3
536.182	1	3
537.373	1	0
538.563	1	-4
539.754	1	4
540.944	1	-6
542.134	1	3
543.325	1	-5
544.515	1	-1
545.705	1	3
546.896	1	12
548.086	1	4
549.276	1	-1
550.466	1	1
551.656	1	0
552.846	1	-3
554.036	1	-1
555.226	1	-7
556.416	1	2
557.606	1	3
558.796	1	-9
559.986	1	-3
561.175	1	-6
562.365	1	2
563.555	1	1
564.744	1	-2
565.934	1	8
567.123	1	-4
568.313	1	-8
569.502	1	-4
570.692	1	5
571.881	1	-6
573.070	1	0
574.260	1	4
575.449	1	9
576.638	1	0
577.827	1	-7
579.016	1	14
580.205	1	-1
581.394	1	2
582.583	1	-3
583.772	1	2
584.961	1	6
586.150	1	-6
587.339	1	-1
588.528	1	3
589.717	1	12
590.905	1	11
592.094	1	9
593.283	1	6
594.471	1	10
595.660	1	3
596.848	1	4
598.037	1	2
599.225	1	0
600.413	1	-6
601.602	1	0
602.790	1	7
603.978	1	0
605.166	1	4
606.355	1	13
607.543	1	2
608.731	1	-1
609.919	1	-10
611.107	1	-7
612.295	1	-4
613.483	1	-1
614.671	1	8
615.858	1	0
617.046	1	-3
618.234	1	-3
619.422	1	-10
620.609	1	-2
621.797	1	2
622.985	1	5
624.172	1	2
625.360	1	2
626.547	1	-1
627.735	1	-10
628.922	1	-4
630.109	1	-6
631.297	1	-1
632.484	1	-5
633.671	1	12
634.858	1	-4
636.045	1	-2
637.232	1	-2
638.419	1	-2
639.606	1	-2
640.793	1	2
641.980	1	-5
643.167	1	-4
644.354	1	1
645.541	1	-2
646.728	1	5
647.914	1	0
649.101	1	3
650.288	1	4
651.474	1	6
652.661	1	7
653.847	1	10
655.034	1	-5
656.220	1	-6
657.406	1	-6
658.593	1	-3
659.779	1	0
660.965	1	2
662.152	1	6
663.338	1	3
664.524	1	6
665.710	1	0
666.896	1	-5
668.082	1	8
669.268	1	0
670.454	1	-3
671.640	1	-2
672.826	1	-4
674.011	1	-5
675.197	1	4
676.383	1	-1
677.569	1	-4
678.754	1	0
679.940	1	10
681.125	1	1
682.311	1	-6
683.496	1	1
684.682	1	11
685.867	1	1
687.053	1	0
688.238	1	-6
688.746	1	-5

File: GaN_sample D_spot 18_UVVIS_170 K_200um_550 ms 2x2mm1_384.txt
340.368	1	3
341.565	1	1
342.763	1	4
343.960	1	-2
345.157	1	-6
346.354	1	-7
347.552	1	11
348.749	1	-3
349.946	1	4
351.143	1	-2
352.340	1	-6
353.537	1	2
354.734	1	5
355.931	1	0
357.127	1	-8
358.324	1	-2
359.521	1	0
360.718	1	-6
361.914	1	-1
363.111	1	3
364.308	1	0
365.504	1	2
366.701	1	-2
367.897	1	1
369.093	1	-18
370.290	1	-13
371.486	1	-2
372.682	1	3
373.879	1	10
375.075	1	-1
376.271	1	6
377.467	1	-12
378.663	1	5
379.859	1	-2
381.055	1	-3
382.251	1	-6
383.447	1	11
384.643	1	-4
385.839	1	-6
387.035	1	-2
388.230	1	-6
389.426	1	-4
390.622	1	-12
391.817	1	-7
393.013	1	-2
394.208	1	6
395.404	1	9
396.599	1	-5
397.795	1	-2
398.990	1	-9
400.186	1	-6
401.381	1	10
402.576	1	-4
403.771	1	-8
404.967	1	3
406.162	1	-5
407.357	1	-10
408.552	1	2
409.747	1	-5
410.942	1	1
412.137	1	-5
413.332	1	-9
414.526	1	6
415.721	1	-8
416.916	1	-6
418.111	1	7
419.305	1	3
420.500	1	1
421.695	1	-6
422.889	1	-10
424.084	1	7
425.278	1	-8
426.472	1	-5
427.667	1	1
428.861	1	-3
430.055	1	4
431.250	1	6
432.444	1	-4
433.638	1	10
434.832	1	7
436.026	1	-8
437.220	1	-12
438.414	1	-10
439.608	1	1
440.802	1	9
441.996	1	-9
443.190	1	-2
444.384	1	-10
445.578	1	6
446.771	1	-15
447.965	1	-8
449.159	1	7
450.352	1	-17
451.546	1	-16
452.739	1	5
453.933	1	6
455.126	1	7
456.320	1	-3
457.513	1	-2
458.706	1	5
459.899	1	-8
461.093	1	3
462.286	1	-7
463.479	1	-2
464.672	1	-3
465.865	1	-4
467.058	1	0
468.251	1	-15
469.444	1	0
470.637	1	4
471.830	1	-2
473.023	1	4
474.215	1	-1
475.408	1	-6
476.601	1	0
477.793	1	9
478.986	1	-8
480.179	1	-12
481.371	1	-1
482.564	1	-2
483.756	1	0
484.948	1	3
486.141	1	8
487.333	1	-8
488.525	1	1
489.718	1	-1
490.910	1	-12
492.102	1	-3
493.294	1	-2
494.486	1	3
495.678	1	-3
496.870	1	-5
498.062	1	0
499.254	1	0
500.446	1	-4
501.638	1	-9
502.829	1	-7
504.021	1	7
505.213	1	-8
506.404	1	0
507.596	1	-2
508.788	1	-8
509.979	1	-1
511.171	1	5
512.362	1	-6
513.553	1	-6
514.745	1	-4
515.936	1	-1
517.127	1	1
518.319	1	0
519.510	1	0
520.701	1	1
521.892	1	11
523.083	1	0
524.274	1	-3
525.465	1	-3
526.656	1	9
527.847	1	-7
529.038	1	-10
530.229	1	7
531.419	1	7
532.610	1	-8
533.801	1	0
534.991	1	-6
536.182	1	-5
537.373	1	-2
538.563	1	-2
539.754	1	-2
540.944	1	-10
542.134	1	0
543.325	1	-2
544.515	1	-1
545.705	1	14
546.896	1	-3
548.086	1	0
549.276	1	1
550.466	1	-1
551.656	1	-7
552.846	1	0
554.036	1	2
555.226	1	-5
556.416	1	3
557.606	1	3
558.796	1	-7
559.986	1	1
561.175	1	-8
562.365	1	3
563.555	1	-7
564.744	1	-3
565.934	1	1
567.123	1	0
568.313	1	-2
569.502	1	-8
570.692	1	9
571.881	1	-3
573.070	1	-16
574.260	1	-3
575.449	1	-1
576.638	1	3
577.827	1	1
579.016	1	1
580.205	1	-7
581.394	1	5
582.583	1	-2
583.772	1	-1
584.961	1	-6
586.150	1	-2
587.339	1	-5
588.528	1	1
589.717	1	7
590.905	1	2
592.094	1	17
593.283	1	-2
594.471	1	1
595.660	1	-2
596.848	1	-5
598.037	1	-2
599.225	1	9
600.413	1	-1
601.602	1	-1
602.790	1	8
603.978	1	3
605.166	1	5
606.355	1	1
607.543	1	2
608.731	1	-1
609.919	1	-4
611.107	1	-6
612.295	1	-6
613.483	1	-3
614.671	1	0
615.858	1	-6
617.046	1	3
618.234	1	-4
619.422	1	2
620.609	1	-9
621.797	1	1
622.985	1	-3
624.172	1	-3
625.360	1	-5
626.547	1	1
627.735	1	-8
628.922	1	-8
630.109	1	-1
631.297	1	5
632.484	1	-3
633.671	1	2
634.858	1	0
636.045	1	10
637.232	1	0
638.419	1	-7
639.606	1	-8
640.793	1	-8
641.980	1	-7
643.167	1	-8
644.354	1	-1
645.541	1	-4
646.728	1	2
647.914	1	1
649.101	1	-2
650.288	1	-5
651.474	1	6
652.661	1	-4
653.847	1	7
655.034	1	-8
656.220	1	2
657.406	1	-2
658.593	1	-7
659.779	1	-1
660.965	1	17
662.152	1	-1
663.338	1	2
664.524	1	6
665.710	1	0
666.896	1	-2
668.082	1	7
669.268	1	-4
670.454	1	-10
671.640	1	-1
672.826	1	4
674.011	1	6
675.197	1	5
676.383	1	-11
677.569	1	-11
678.754	1	1
679.940	1	2
681.125	1	1
682.311	1	-8
683.496	1	-2
684.682	1	1
685.867	1	9
687.053	1	-11
688.238	1	-2
688.746	1	-8

File: GaN_sample D_spot 18_UVVIS_170 K_200um_550 ms 2x2mm1_385.txt
340.368	1	-3
341.565	1	0
342.763	1	5
343.960	1	-4
345.157	1	-9
346.354	1	-8
347.552	1	12
348.749	1	3
349.946	1	7
351.143	1	-1
352.340	1	-2
353.537	1	6
354.734	1	-1
355.931	1	-7
357.127	1	-1
358.324	1	4
359.521	1	2
360.718	1	5
361.914	1	-3
363.111	1	12
364.308	1	-1
365.504	1	0
366.701	1	1
367.897	1	-1
369.093	1	-21
370.290	1	-2
371.486	1	-11
372.682	1	4
373.879	1	2
375.075	1	-4
376.271	1	2
377.467	1	0
378.663	1	7
379.859	1	0
381.055	1	-3
382.251	1	5
383.447	1	0
384.643	1	0
385.839	1	0
387.035	1	-6
388.230	1	-4
389.426	1	6
390.622	1	-6
391.817	1	0
393.013	1	-9
394.208	1	-8
395.404	1	6
396.599	1	-9
397.795	1	-2
398.990	1	-6
400.186	1	0
401.381	1	4
402.576	1	3
403.771	1	4
404.967	1	5
406.162	1	-3
407.357	1	-7
408.552	1	-14
409.747	1	-1
410.942	1	-6
412.137	1	-5
413.332	1	-13
414.526	1	-1
415.721	1	-5
416.916	1	-4
418.111	1	3
419.305	1	-5
420.500	1	2
421.695	1	-8
422.889	1	-3
424.084	1	17
425.278	1	1
426.472	1	-3
427.667	1	-2
428.861	1	0
430.055	1	-4
431.250	1	12
432.444	1	4
433.638	1	3
434.832	1	6
436.026	1	-9
437.220	1	-4
438.414	1	-11
439.608	1	-6
440.802	1	5
441.996	1	-7
443.190	1	4
444.384	1	-5
445.578	1	1
446.771	1	-10
447.965	1	-5
449.159	1	-8
450.352	1	-7
451.546	1	-12
452.739	1	2
453.933	1	3
455.126	1	4
456.320	1	-5
457.513	1	1
458.706	1	12
459.899	1	5
461.093	1	7
462.286	1	-6
463.479	1	-8
464.672	1	2
465.865	1	3
467.058	1	2
468.251	1	5
469.444	1	-6
470.637	1	-8
471.830	1	-4
473.023	1	7
474.215	1	0
475.408	1	-2
476.601	1	-3
477.793	1	-2
478.986	1	-2
480.179	1	-7
481.371	1	1
482.564	1	-7
483.756	1	5
484.948	1	2
486.141	1	9
487.333	1	-12
488.525	1	4
489.718	1	5
490.910	1	5
492.102	1	-1
493.294	1	-1
494.486	1	5
495.678	1	4
496.870	1	-1
498.062	1	-8
499.254	1	6
500.446	1	-4
501.638	1	-13
502.829	1	4
504.021	1	-2
505.213	1	2
506.404	1	-10
507.596	1	2
508.788	1	-18
509.979	1	-7
511.171	1	-4
512.362	1	-5
513.553	1	-8
514.745	1	-12
515.936	1	-1
517.127	1	7
518.319	1	0
519.510	1	9
520.701	1	0
521.892	1	0
523.083	1	-2
524.274	1	-3
525.465	1	2
526.656	1	5
527.847	1	-4
529.038	1	2
530.229	1	12
531.419	1	4
532.610	1	-2
533.801	1	-3
534.991	1	-10
536.182	1	-5
537.373	1	-5
538.563	1	-1
539.754	1	-5
540.944	1	-5
542.134	1	-6
543.325	1	-7
544.515	1	-4
545.705	1	-8
546.896	1	1
548.086	1	-3
549.276	1	-5
550.466	1	1
551.656	1	-1
552.846	1	-4
554.036	1	-11
555.226	1	-12
556.416	1	1
557.606	1	7
558.796	1	5
559.986	1	3
561.175	1	-2
562.365	1	-3
563.555	1	-6
564.744	1	0
565.934	1	3
567.123	1	2
568.313	1	-8
569.502	1	-1
570.692	1	7
571.881	1	-16
573.070	1	0
574.260	1	7
575.449	1	-5
576.638	1	-4
577.827	1	-2
579.016	1	1
580.205	1	-14
581.394	1	-2
582.583	1	-5
583.772	1	-1
584.961	1	8
586.150	1	-14
587.339	1	3
588.528	1	-2
589.717	1	0
590.905	1	3
592.094	1	0
593.283	1	2
594.471	1	13
595.660	1	-4
596.848	1	3
598.037	1	-4
599.225	1	-4
600.413	1	-8
601.602	1	-4
602.790	1	4
603.978	1	-3
605.166	1	14
606.355	1	-3
607.543	1	-1
608.731	1	2
609.919	1	-6
611.107	1	-3
612.295	1	-4
613.483	1	-3
614.671	1	2
615.858	1	-5
617.046	1	-13
618.234	1	-6
619.422	1	-6
620.609	1	2
621.797	1	0
622.985	1	-2
624.172	1	-8
625.360	1	-2
626.547	1	-12
627.735	1	-13
628.922	1	0
630.109	1	-7
631.297	1	-4
632.484	1	-5
633.671	1	10
634.858	1	-9
636.045	1	14
637.232	1	2
638.419	1	-5
639.606	1	-16
640.793	1	-6
641.980	1	-2
643.167	1	2
644.354	1	-4
645.541	1	3
646.728	1	-5
647.914	1	0
649.101	1	1
650.288	1	5
651.474	1	-1
652.661	1	-3
653.847	1	0
655.034	1	-3
656.220	1	4
657.406	1	1
658.593	1	-6
659.779	1	1
660.965	1	10
662.152	1	-3
663.338	1	3
664.524	1	2
665.710	1	-3
666.896	1	-4
668.082	1	-3
669.268	1	-6
670.454	1	-7
671.640	1	1
672.826	1	0
674.011	1	0
675.197	1	-1
676.383	1	-8
677.569	1	-11
678.754	1	0
679.940	1	4
681.125	1	1
682.311	1	-6
683.496	1	2
684.682	1	0
685.867	1	11
687.053	1	-7
688.238	1	-9
688.746	1	-4