Folder: cryo-il_analysis/Data/GaN_150K_450ms (part 25)

File: GaN_sample D_spot15_UVVIS_150 K_200um_450 ms 2x2mm1_216.txt
340.368	1	5
341.565	1	9
342.763	1	-8
343.960	1	1
345.157	1	11
346.354	1	14
347.552	1	12
348.749	1	13
349.946	1	5
351.143	1	8
352.340	1	13
353.537	1	-3
354.734	1	0
355.931	1	-2
357.127	1	7
358.324	1	4
359.521	1	6
360.718	1	7
361.914	1	8
363.111	1	2
364.308	1	12
365.504	1	14
366.701	1	10
367.897	1	25
369.093	1	25
370.290	1	18
371.486	1	28
372.682	1	9
373.879	1	9
375.075	1	8
376.271	1	2
377.467	1	16
378.663	1	11
379.859	1	-2
381.055	1	-3
382.251	1	-5
383.447	1	7
384.643	1	-1
385.839	1	10
387.035	1	7
388.230	1	-1
389.426	1	0
390.622	1	-5
391.817	1	-6
393.013	1	-2
394.208	1	4
395.404	1	3
396.599	1	6
397.795	1	3
398.990	1	18
400.186	1	6
401.381	1	6
402.576	1	14
403.771	1	0
404.967	1	12
406.162	1	-2
407.357	1	6
408.552	1	3
409.747	1	11
410.942	1	7
412.137	1	7
413.332	1	6
414.526	1	-3
415.721	1	2
416.916	1	-7
418.111	1	15
419.305	1	8
420.500	1	2
421.695	1	15
422.889	1	10
424.084	1	1
425.278	1	-1
426.472	1	11
427.667	1	-3
428.861	1	14
430.055	1	19
431.250	1	8
432.444	1	12
433.638	1	1
434.832	1	1
436.026	1	3
437.220	1	15
438.414	1	6
439.608	1	-4
440.802	1	13
441.996	1	-3
443.190	1	6
444.384	1	5
445.578	1	-6
446.771	1	-1
447.965	1	7
449.159	1	-4
450.352	1	-5
451.546	1	5
452.739	1	10
453.933	1	-5
455.126	1	0
456.320	1	13
457.513	1	3
458.706	1	3
459.899	1	5
461.093	1	6
462.286	1	2
463.479	1	3
464.672	1	8
465.865	1	0
467.058	1	-2
468.251	1	-13
469.444	1	10
470.637	1	1
471.830	1	8
473.023	1	4
474.215	1	3
475.408	1	0
476.601	1	7
477.793	1	3
478.986	1	4
480.179	1	8
481.371	1	-5
482.564	1	-3
483.756	1	10
484.948	1	5
486.141	1	3
487.333	1	5
488.525	1	-6
489.718	1	-7
490.910	1	5
492.102	1	14
493.294	1	0
494.486	1	-4
495.678	1	0
496.870	1	4
498.062	1	-7
499.254	1	-1
500.446	1	1
501.638	1	8
502.829	1	-3
504.021	1	2
505.213	1	0
506.404	1	7
507.596	1	5
508.788	1	0
509.979	1	1
511.171	1	9
512.362	1	9
513.553	1	7
514.745	1	4
515.936	1	1
517.127	1	7
518.319	1	-3
519.510	1	1
520.701	1	17
521.892	1	11
523.083	1	4
524.274	1	10
525.465	1	9
526.656	1	12
527.847	1	-3
529.038	1	0
530.229	1	10
531.419	1	5
532.610	1	12
533.801	1	6
534.991	1	-4
536.182	1	14
537.373	1	8
538.563	1	5
539.754	1	-1
540.944	1	7
542.134	1	-1
543.325	1	9
544.515	1	0
545.705	1	8
546.896	1	5
548.086	1	6
549.276	1	11
550.466	1	3
551.656	1	6
552.846	1	3
554.036	1	13
555.226	1	9
556.416	1	7
557.606	1	-6
558.796	1	6
559.986	1	-1
561.175	1	1
562.365	1	0
563.555	1	8
564.744	1	11
565.934	1	17
567.123	1	-5
568.313	1	8
569.502	1	10
570.692	1	10
571.881	1	3
573.070	1	7
574.260	1	7
575.449	1	3
576.638	1	15
577.827	1	2
579.016	1	5
580.205	1	1
581.394	1	5
582.583	1	6
583.772	1	12
584.961	1	-3
586.150	1	-1
587.339	1	5
588.528	1	-9
589.717	1	7
590.905	1	-3
592.094	1	1
593.283	1	4
594.471	1	-2
595.660	1	11
596.848	1	8
598.037	1	3
599.225	1	1
600.413	1	-11
601.602	1	6
602.790	1	8
603.978	1	-1
605.166	1	7
606.355	1	-8
607.543	1	6
608.731	1	-4
609.919	1	-8
611.107	1	5
612.295	1	8
613.483	1	2
614.671	1	-3
615.858	1	-5
617.046	1	-6
618.234	1	-2
619.422	1	16
620.609	1	-1
621.797	1	-3
622.985	1	3
624.172	1	-1
625.360	1	2
626.547	1	-3
627.735	1	1
628.922	1	-1
630.109	1	-6
631.297	1	3
632.484	1	6
633.671	1	12
634.858	1	5
636.045	1	0
637.232	1	9
638.419	1	-6
639.606	1	10
640.793	1	3
641.980	1	20
643.167	1	5
644.354	1	7
645.541	1	7
646.728	1	0
647.914	1	-1
649.101	1	8
650.288	1	4
651.474	1	10
652.661	1	4
653.847	1	7
655.034	1	-1
656.220	1	9
657.406	1	1
658.593	1	7
659.779	1	9
660.965	1	-1
662.152	1	4
663.338	1	-3
664.524	1	10
665.710	1	-2
666.896	1	3
668.082	1	-6
669.268	1	-4
670.454	1	3
671.640	1	6
672.826	1	1
674.011	1	5
675.197	1	4
676.383	1	-6
677.569	1	13
678.754	1	1
679.940	1	-3
681.125	1	-3
682.311	1	13
683.496	1	5
684.682	1	9
685.867	1	-5
687.053	1	11
688.238	1	14
688.746	1	-5

File: GaN_sample D_spot15_UVVIS_150 K_200um_450 ms 2x2mm1_217.txt
340.368	1	3
341.565	1	0
342.763	1	3
343.960	1	0
345.157	1	10
346.354	1	-4
347.552	1	11
348.749	1	18
349.946	1	-2
351.143	1	-4
352.340	1	14
353.537	1	-6
354.734	1	11
355.931	1	3
357.127	1	18
358.324	1	6
359.521	1	15
360.718	1	1
361.914	1	11
363.111	1	2
364.308	1	17
365.504	1	13
366.701	1	14
367.897	1	18
369.093	1	24
370.290	1	27
371.486	1	26
372.682	1	20
373.879	1	-1
375.075	1	5
376.271	1	13
377.467	1	13
378.663	1	11
379.859	1	7
381.055	1	3
382.251	1	-3
383.447	1	14
384.643	1	3
385.839	1	0
387.035	1	5
388.230	1	6
389.426	1	-3
390.622	1	-7
391.817	1	2
393.013	1	6
394.208	1	-3
395.404	1	9
396.599	1	2
397.795	1	-5
398.990	1	11
400.186	1	3
401.381	1	-3
402.576	1	3
403.771	1	-3
404.967	1	0
406.162	1	-1
407.357	1	11
408.552	1	-9
409.747	1	-2
410.942	1	11
412.137	1	6
413.332	1	12
414.526	1	-3
415.721	1	2
416.916	1	-3
418.111	1	3
419.305	1	4
420.500	1	9
421.695	1	4
422.889	1	11
424.084	1	7
425.278	1	-1
426.472	1	11
427.667	1	-4
428.861	1	5
430.055	1	9
431.250	1	9
432.444	1	10
433.638	1	1
434.832	1	7
436.026	1	-3
437.220	1	3
438.414	1	5
439.608	1	4
440.802	1	-2
441.996	1	-8
443.190	1	10
444.384	1	5
445.578	1	-1
446.771	1	-3
447.965	1	3
449.159	1	-3
450.352	1	-8
451.546	1	8
452.739	1	-6
453.933	1	5
455.126	1	3
456.320	1	8
457.513	1	1
458.706	1	14
459.899	1	0
461.093	1	4
462.286	1	-3
463.479	1	8
464.672	1	8
465.865	1	10
467.058	1	10
468.251	1	-2
469.444	1	1
470.637	1	-5
471.830	1	10
473.023	1	6
474.215	1	-3
475.408	1	8
476.601	1	4
477.793	1	0
478.986	1	10
480.179	1	4
481.371	1	-2
482.564	1	8
483.756	1	3
484.948	1	7
486.141	1	9
487.333	1	-5
488.525	1	-14
489.718	1	-9
490.910	1	5
492.102	1	5
493.294	1	0
494.486	1	5
495.678	1	6
496.870	1	10
498.062	1	-3
499.254	1	1
500.446	1	-1
501.638	1	6
502.829	1	-9
504.021	1	5
505.213	1	2
506.404	1	2
507.596	1	9
508.788	1	2
509.979	1	1
511.171	1	6
512.362	1	7
513.553	1	2
514.745	1	-4
515.936	1	5
517.127	1	10
518.319	1	1
519.510	1	1
520.701	1	9
521.892	1	7
523.083	1	-5
524.274	1	8
525.465	1	3
526.656	1	-6
527.847	1	-6
529.038	1	3
530.229	1	12
531.419	1	13
532.610	1	10
533.801	1	-1
534.991	1	-1
536.182	1	4
537.373	1	2
538.563	1	-5
539.754	1	3
540.944	1	1
542.134	1	4
543.325	1	5
544.515	1	-3
545.705	1	11
546.896	1	5
548.086	1	12
549.276	1	1
550.466	1	1
551.656	1	6
552.846	1	9
554.036	1	7
555.226	1	7
556.416	1	9
557.606	1	-6
558.796	1	8
559.986	1	9
561.175	1	0
562.365	1	-5
563.555	1	5
564.744	1	13
565.934	1	9
567.123	1	-3
568.313	1	10
569.502	1	15
570.692	1	9
571.881	1	1
573.070	1	5
574.260	1	0
575.449	1	-5
576.638	1	8
577.827	1	-5
579.016	1	11
580.205	1	8
581.394	1	-2
582.583	1	7
583.772	1	5
584.961	1	-4
586.150	1	9
587.339	1	0
588.528	1	-3
589.717	1	-4
590.905	1	-3
592.094	1	10
593.283	1	-3
594.471	1	0
595.660	1	10
596.848	1	9
598.037	1	6
599.225	1	-5
600.413	1	9
601.602	1	11
602.790	1	13
603.978	1	2
605.166	1	2
606.355	1	-11
607.543	1	3
608.731	1	-13
609.919	1	-3
611.107	1	3
612.295	1	6
613.483	1	-3
614.671	1	7
615.858	1	-9
617.046	1	-8
618.234	1	-9
619.422	1	13
620.609	1	0
621.797	1	0
622.985	1	-3
624.172	1	7
625.360	1	3
626.547	1	-8
627.735	1	0
628.922	1	-2
630.109	1	4
631.297	1	6
632.484	1	8
633.671	1	4
634.858	1	7
636.045	1	-4
637.232	1	8
638.419	1	1
639.606	1	19
640.793	1	1
641.980	1	10
643.167	1	-5
644.354	1	8
645.541	1	6
646.728	1	4
647.914	1	-3
649.101	1	-6
650.288	1	0
651.474	1	-5
652.661	1	10
653.847	1	5
655.034	1	0
656.220	1	0
657.406	1	3
658.593	1	4
659.779	1	1
660.965	1	4
662.152	1	-6
663.338	1	2
664.524	1	13
665.710	1	6
666.896	1	-1
668.082	1	1
669.268	1	-2
670.454	1	0
671.640	1	8
672.826	1	-5
674.011	1	4
675.197	1	5
676.383	1	-3
677.569	1	18
678.754	1	4
679.940	1	-1
681.125	1	2
682.311	1	1
683.496	1	4
684.682	1	10
685.867	1	-8
687.053	1	23
688.238	1	6
688.746	1	2

File: GaN_sample D_spot15_UVVIS_150 K_200um_450 ms 2x2mm1_218.txt
340.368	1	4
341.565	1	2
342.763	1	-4
343.960	1	4
345.157	1	19
346.354	1	1
347.552	1	16
348.749	1	14
349.946	1	-4
351.143	1	10
352.340	1	7
353.537	1	-4
354.734	1	-2
355.931	1	8
357.127	1	15
358.324	1	6
359.521	1	14
360.718	1	6
361.914	1	13
363.111	1	16
364.308	1	14
365.504	1	9
366.701	1	9
367.897	1	20
369.093	1	27
370.290	1	21
371.486	1	18
372.682	1	22
373.879	1	11
375.075	1	4
376.271	1	11
377.467	1	16
378.663	1	13
379.859	1	4
381.055	1	1
382.251	1	-2
383.447	1	-5
384.643	1	12
385.839	1	5
387.035	1	5
388.230	1	8
389.426	1	-7
390.622	1	-9
391.817	1	-2
393.013	1	6
394.208	1	-4
395.404	1	9
396.599	1	13
397.795	1	0
398.990	1	13
400.186	1	0
401.381	1	-1
402.576	1	6
403.771	1	-7
404.967	1	0
406.162	1	-4
407.357	1	8
408.552	1	-7
409.747	1	0
410.942	1	15
412.137	1	4
413.332	1	12
414.526	1	-4
415.721	1	7
416.916	1	0
418.111	1	15
419.305	1	9
420.500	1	6
421.695	1	12
422.889	1	11
424.084	1	5
425.278	1	4
426.472	1	9
427.667	1	11
428.861	1	8
430.055	1	8
431.250	1	-4
432.444	1	8
433.638	1	11
434.832	1	-6
436.026	1	1
437.220	1	4
438.414	1	6
439.608	1	-4
440.802	1	3
441.996	1	1
443.190	1	9
444.384	1	3
445.578	1	-2
446.771	1	4
447.965	1	-1
449.159	1	1
450.352	1	-1
451.546	1	4
452.739	1	7
453.933	1	-2
455.126	1	-4
456.320	1	15
457.513	1	-4
458.706	1	8
459.899	1	4
461.093	1	1
462.286	1	-15
463.479	1	-3
464.672	1	5
465.865	1	1
467.058	1	1
468.251	1	-10
469.444	1	2
470.637	1	0
471.830	1	2
473.023	1	6
474.215	1	4
475.408	1	4
476.601	1	2
477.793	1	-5
478.986	1	3
480.179	1	3
481.371	1	4
482.564	1	6
483.756	1	11
484.948	1	3
486.141	1	-3
487.333	1	-13
488.525	1	-5
489.718	1	-3
490.910	1	8
492.102	1	0
493.294	1	-4
494.486	1	-4
495.678	1	4
496.870	1	5
498.062	1	7
499.254	1	-3
500.446	1	1
501.638	1	11
502.829	1	-7
504.021	1	1
505.213	1	3
506.404	1	4
507.596	1	10
508.788	1	1
509.979	1	6
511.171	1	14
512.362	1	14
513.553	1	2
514.745	1	0
515.936	1	-4
517.127	1	13
518.319	1	3
519.510	1	6
520.701	1	6
521.892	1	10
523.083	1	-3
524.274	1	2
525.465	1	5
526.656	1	5
527.847	1	-11
529.038	1	-2
530.229	1	10
531.419	1	3
532.610	1	9
533.801	1	8
534.991	1	0
536.182	1	7
537.373	1	7
538.563	1	0
539.754	1	6
540.944	1	7
542.134	1	1
543.325	1	11
544.515	1	3
545.705	1	6
546.896	1	2
548.086	1	8
549.276	1	7
550.466	1	7
551.656	1	7
552.846	1	1
554.036	1	7
555.226	1	4
556.416	1	13
557.606	1	-8
558.796	1	11
559.986	1	6
561.175	1	4
562.365	1	9
563.555	1	6
564.744	1	8
565.934	1	10
567.123	1	4
568.313	1	5
569.502	1	6
570.692	1	9
571.881	1	1
573.070	1	-1
574.260	1	7
575.449	1	1
576.638	1	-1
577.827	1	0
579.016	1	7
580.205	1	-3
581.394	1	2
582.583	1	0
583.772	1	6
584.961	1	7
586.150	1	2
587.339	1	-2
588.528	1	0
589.717	1	10
590.905	1	3
592.094	1	11
593.283	1	10
594.471	1	1
595.660	1	12
596.848	1	3
598.037	1	-4
599.225	1	-5
600.413	1	3
601.602	1	4
602.790	1	5
603.978	1	0
605.166	1	1
606.355	1	-5
607.543	1	5
608.731	1	-8
609.919	1	-4
611.107	1	9
612.295	1	9
613.483	1	6
614.671	1	2
615.858	1	1
617.046	1	-1
618.234	1	-5
619.422	1	16
620.609	1	1
621.797	1	7
622.985	1	2
624.172	1	0
625.360	1	1
626.547	1	-7
627.735	1	3
628.922	1	3
630.109	1	-11
631.297	1	0
632.484	1	13
633.671	1	10
634.858	1	6
636.045	1	-7
637.232	1	1
638.419	1	4
639.606	1	7
640.793	1	8
641.980	1	7
643.167	1	9
644.354	1	7
645.541	1	4
646.728	1	1
647.914	1	2
649.101	1	-1
650.288	1	6
651.474	1	6
652.661	1	11
653.847	1	4
655.034	1	-3
656.220	1	2
657.406	1	3
658.593	1	16
659.779	1	5
660.965	1	0
662.152	1	7
663.338	1	-6
664.524	1	12
665.710	1	14
666.896	1	5
668.082	1	6
669.268	1	-1
670.454	1	3
671.640	1	3
672.826	1	5
674.011	1	3
675.197	1	10
676.383	1	2
677.569	1	13
678.754	1	6
679.940	1	-5
681.125	1	1
682.311	1	15
683.496	1	-5
684.682	1	14
685.867	1	-2
687.053	1	13
688.238	1	16
688.746	1	-2

File: GaN_sample D_spot15_UVVIS_150 K_200um_450 ms 2x2mm1_219.txt
340.368	1	2
341.565	1	11
342.763	1	8
343.960	1	11
345.157	1	11
346.354	1	1
347.552	1	22
348.749	1	9
349.946	1	2
351.143	1	8
352.340	1	-2
353.537	1	1
354.734	1	7
355.931	1	7
357.127	1	9
358.324	1	9
359.521	1	14
360.718	1	12
361.914	1	7
363.111	1	4
364.308	1	16
365.504	1	9
366.701	1	17
367.897	1	30
369.093	1	18
370.290	1	19
371.486	1	25
372.682	1	11
373.879	1	8
375.075	1	5
376.271	1	15
377.467	1	19
378.663	1	10
379.859	1	3
381.055	1	-2
382.251	1	0
383.447	1	2
384.643	1	1
385.839	1	3
387.035	1	0
388.230	1	-1
389.426	1	-7
390.622	1	-5
391.817	1	2
393.013	1	-1
394.208	1	5
395.404	1	14
396.599	1	1
397.795	1	0
398.990	1	11
400.186	1	4
401.381	1	0
402.576	1	-2
403.771	1	-5
404.967	1	8
406.162	1	-6
407.357	1	2
408.552	1	-1
409.747	1	0
410.942	1	8
412.137	1	3
413.332	1	8
414.526	1	4
415.721	1	3
416.916	1	6
418.111	1	14
419.305	1	4
420.500	1	7
421.695	1	12
422.889	1	1
424.084	1	7
425.278	1	9
426.472	1	10
427.667	1	-2
428.861	1	15
430.055	1	16
431.250	1	3
432.444	1	8
433.638	1	8
434.832	1	-7
436.026	1	2
437.220	1	16
438.414	1	6
439.608	1	6
440.802	1	8
441.996	1	-2
443.190	1	10
444.384	1	13
445.578	1	-8
446.771	1	10
447.965	1	8
449.159	1	-4
450.352	1	-6
451.546	1	0
452.739	1	-2
453.933	1	-7
455.126	1	3
456.320	1	9
457.513	1	-6
458.706	1	4
459.899	1	2
461.093	1	5
462.286	1	9
463.479	1	0
464.672	1	3
465.865	1	7
467.058	1	4
468.251	1	-6
469.444	1	5
470.637	1	-2
471.830	1	5
473.023	1	6
474.215	1	4
475.408	1	1
476.601	1	3
477.793	1	1
478.986	1	3
480.179	1	2
481.371	1	-2
482.564	1	3
483.756	1	3
484.948	1	6
486.141	1	3
487.333	1	-11
488.525	1	-7
489.718	1	-15
490.910	1	11
492.102	1	5
493.294	1	-12
494.486	1	5
495.678	1	-3
496.870	1	5
498.062	1	1
499.254	1	1
500.446	1	1
501.638	1	8
502.829	1	-9
504.021	1	7
505.213	1	3
506.404	1	3
507.596	1	6
508.788	1	0
509.979	1	2
511.171	1	6
512.362	1	11
513.553	1	6
514.745	1	1
515.936	1	-2
517.127	1	15
518.319	1	8
519.510	1	-2
520.701	1	14
521.892	1	-4
523.083	1	6
524.274	1	4
525.465	1	12
526.656	1	10
527.847	1	-2
529.038	1	5
530.229	1	10
531.419	1	6
532.610	1	11
533.801	1	9
534.991	1	3
536.182	1	5
537.373	1	4
538.563	1	5
539.754	1	-1
540.944	1	4
542.134	1	11
543.325	1	6
544.515	1	5
545.705	1	4
546.896	1	2
548.086	1	5
549.276	1	8
550.466	1	-2
551.656	1	8
552.846	1	8
554.036	1	12
555.226	1	11
556.416	1	8
557.606	1	-2
558.796	1	13
559.986	1	-4
561.175	1	5
562.365	1	4
563.555	1	10
564.744	1	8
565.934	1	9
567.123	1	0
568.313	1	4
569.502	1	1
570.692	1	0
571.881	1	1
573.070	1	4
574.260	1	11
575.449	1	-1
576.638	1	9
577.827	1	-1
579.016	1	3
580.205	1	3
581.394	1	-1
582.583	1	1
583.772	1	8
584.961	1	-4
586.150	1	10
587.339	1	-1
588.528	1	5
589.717	1	-2
590.905	1	-4
592.094	1	6
593.283	1	2
594.471	1	-4
595.660	1	7
596.848	1	8
598.037	1	6
599.225	1	-3
600.413	1	11
601.602	1	1
602.790	1	1
603.978	1	-3
605.166	1	7
606.355	1	-7
607.543	1	0
608.731	1	-16
609.919	1	-2
611.107	1	12
612.295	1	9
613.483	1	3
614.671	1	10
615.858	1	-3
617.046	1	-4
618.234	1	0
619.422	1	20
620.609	1	-5
621.797	1	6
622.985	1	7
624.172	1	3
625.360	1	7
626.547	1	4
627.735	1	4
628.922	1	11
630.109	1	-2
631.297	1	6
632.484	1	2
633.671	1	16
634.858	1	4
636.045	1	-4
637.232	1	15
638.419	1	6
639.606	1	9
640.793	1	-6
641.980	1	8
643.167	1	-3
644.354	1	13
645.541	1	6
646.728	1	3
647.914	1	1
649.101	1	-6
650.288	1	3
651.474	1	9
652.661	1	0
653.847	1	3
655.034	1	-5
656.220	1	-1
657.406	1	9
658.593	1	3
659.779	1	8
660.965	1	2
662.152	1	4
663.338	1	-2
664.524	1	14
665.710	1	0
666.896	1	3
668.082	1	8
669.268	1	1
670.454	1	8
671.640	1	11
672.826	1	4
674.011	1	5
675.197	1	4
676.383	1	-6
677.569	1	8
678.754	1	3
679.940	1	-3
681.125	1	1
682.311	1	6
683.496	1	5
684.682	1	-1
685.867	1	4
687.053	1	12
688.238	1	3
688.746	1	-8

File: GaN_sample D_spot15_UVVIS_150 K_200um_450 ms 2x2mm1_220.txt
340.368	1	3
341.565	1	4
342.763	1	1
343.960	1	0
345.157	1	11
346.354	1	6
347.552	1	22
348.749	1	13
349.946	1	1
351.143	1	4
352.340	1	8
353.537	1	-8
354.734	1	-7
355.931	1	7
357.127	1	6
358.324	1	10
359.521	1	4
360.718	1	4
361.914	1	10
363.111	1	14
364.308	1	16
365.504	1	10
366.701	1	22
367.897	1	20
369.093	1	25
370.290	1	24
371.486	1	22
372.682	1	17
373.879	1	7
375.075	1	-3
376.271	1	7
377.467	1	16
378.663	1	16
379.859	1	-1
381.055	1	4
382.251	1	0
383.447	1	9
384.643	1	0
385.839	1	3
387.035	1	5
388.230	1	-3
389.426	1	-4
390.622	1	4
391.817	1	-9
393.013	1	1
394.208	1	2
395.404	1	10
396.599	1	0
397.795	1	2
398.990	1	12
400.186	1	1
401.381	1	-3
402.576	1	0
403.771	1	-1
404.967	1	4
406.162	1	6
407.357	1	5
408.552	1	1
409.747	1	8
410.942	1	13
412.137	1	5
413.332	1	13
414.526	1	-6
415.721	1	14
416.916	1	2
418.111	1	4
419.305	1	6
420.500	1	3
421.695	1	7
422.889	1	6
424.084	1	11
425.278	1	4
426.472	1	7
427.667	1	-5
428.861	1	6
430.055	1	7
431.250	1	11
432.444	1	11
433.638	1	1
434.832	1	-4
436.026	1	2
437.220	1	5
438.414	1	10
439.608	1	7
440.802	1	5
441.996	1	-1
443.190	1	6
444.384	1	9
445.578	1	2
446.771	1	-6
447.965	1	7
449.159	1	-9
450.352	1	-2
451.546	1	8
452.739	1	7
453.933	1	-10
455.126	1	3
456.320	1	10
457.513	1	-2
458.706	1	6
459.899	1	-5
461.093	1	1
462.286	1	-6
463.479	1	0
464.672	1	5
465.865	1	-4
467.058	1	10
468.251	1	-10
469.444	1	1
470.637	1	-2
471.830	1	6
473.023	1	2
474.215	1	-3
475.408	1	9
476.601	1	13
477.793	1	-3
478.986	1	5
480.179	1	13
481.371	1	-1
482.564	1	7
483.756	1	2
484.948	1	3
486.141	1	7
487.333	1	4
488.525	1	-4
489.718	1	-5
490.910	1	15
492.102	1	5
493.294	1	-12
494.486	1	0
495.678	1	-9
496.870	1	-2
498.062	1	8
499.254	1	-1
500.446	1	0
501.638	1	-1
502.829	1	1
504.021	1	2
505.213	1	1
506.404	1	0
507.596	1	9
508.788	1	-1
509.979	1	-4
511.171	1	12
512.362	1	11
513.553	1	7
514.745	1	5
515.936	1	7
517.127	1	5
518.319	1	6
519.510	1	-2
520.701	1	13
521.892	1	6
523.083	1	-6
524.274	1	6
525.465	1	21
526.656	1	13
527.847	1	-8
529.038	1	5
530.229	1	10
531.419	1	8
532.610	1	13
533.801	1	5
534.991	1	4
536.182	1	4
537.373	1	2
538.563	1	4
539.754	1	3
540.944	1	7
542.134	1	7
543.325	1	4
544.515	1	9
545.705	1	-5
546.896	1	4
548.086	1	5
549.276	1	6
550.466	1	8
551.656	1	5
552.846	1	12
554.036	1	13
555.226	1	11
556.416	1	5
557.606	1	-12
558.796	1	12
559.986	1	3
561.175	1	8
562.365	1	-1
563.555	1	-2
564.744	1	15
565.934	1	10
567.123	1	-2
568.313	1	3
569.502	1	5
570.692	1	1
571.881	1	0
573.070	1	1
574.260	1	2
575.449	1	3
576.638	1	5
577.827	1	3
579.016	1	-2
580.205	1	6
581.394	1	5
582.583	1	6
583.772	1	9
584.961	1	-4
586.150	1	3
587.339	1	-2
588.528	1	-4
589.717	1	1
590.905	1	1
592.094	1	9
593.283	1	6
594.471	1	6
595.660	1	8
596.848	1	7
598.037	1	0
599.225	1	-3
600.413	1	13
601.602	1	3
602.790	1	4
603.978	1	12
605.166	1	3
606.355	1	-4
607.543	1	-1
608.731	1	-8
609.919	1	-11
611.107	1	13
612.295	1	7
613.483	1	11
614.671	1	3
615.858	1	-2
617.046	1	6
618.234	1	-6
619.422	1	16
620.609	1	-10
621.797	1	1
622.985	1	-2
624.172	1	6
625.360	1	-1
626.547	1	-4
627.735	1	-2
628.922	1	15
630.109	1	2
631.297	1	4
632.484	1	10
633.671	1	5
634.858	1	6
636.045	1	-2
637.232	1	2
638.419	1	-2
639.606	1	7
640.793	1	0
641.980	1	11
643.167	1	19
644.354	1	12
645.541	1	-3
646.728	1	9
647.914	1	0
649.101	1	-3
650.288	1	7
651.474	1	4
652.661	1	8
653.847	1	6
655.034	1	-1
656.220	1	5
657.406	1	1
658.593	1	12
659.779	1	5
660.965	1	-1
662.152	1	-5
663.338	1	-1
664.524	1	7
665.710	1	8
666.896	1	5
668.082	1	7
669.268	1	5
670.454	1	-5
671.640	1	-6
672.826	1	5
674.011	1	3
675.197	1	6
676.383	1	8
677.569	1	11
678.754	1	10
679.940	1	-4
681.125	1	-2
682.311	1	8
683.496	1	0
684.682	1	6
685.867	1	0
687.053	1	18
688.238	1	7
688.746	1	-5

File: GaN_sample D_spot15_UVVIS_150 K_200um_450 ms 2x2mm1_224.txt
340.368	1	1
341.565	1	3
342.763	1	7
343.960	1	8
345.157	1	13
346.354	1	0
347.552	1	11
348.749	1	12
349.946	1	1
351.143	1	14
352.340	1	1
353.537	1	2
354.734	1	7
355.931	1	3
357.127	1	12
358.324	1	3
359.521	1	8
360.718	1	9
361.914	1	7
363.111	1	5
364.308	1	7
365.504	1	6
366.701	1	20
367.897	1	28
369.093	1	17
370.290	1	25
371.486	1	23
372.682	1	16
373.879	1	10
375.075	1	-2
376.271	1	0
377.467	1	19
378.663	1	6
379.859	1	1
381.055	1	3
382.251	1	-2
383.447	1	2
384.643	1	3
385.839	1	2
387.035	1	10
388.230	1	12
389.426	1	6
390.622	1	-1
391.817	1	-1
393.013	1	5
394.208	1	4
395.404	1	1
396.599	1	1
397.795	1	-1
398.990	1	5
400.186	1	6
401.381	1	-4
402.576	1	5
403.771	1	-10
404.967	1	9
406.162	1	4
407.357	1	4
408.552	1	1
409.747	1	6
410.942	1	7
412.137	1	-5
413.332	1	9
414.526	1	-3
415.721	1	4
416.916	1	4
418.111	1	12
419.305	1	6
420.500	1	8
421.695	1	9
422.889	1	14
424.084	1	3
425.278	1	1
426.472	1	6
427.667	1	-2
428.861	1	4
430.055	1	6
431.250	1	2
432.444	1	-3
433.638	1	1
434.832	1	-6
436.026	1	-1
437.220	1	7
438.414	1	2
439.608	1	-2
440.802	1	5
441.996	1	6
443.190	1	2
444.384	1	4
445.578	1	-6
446.771	1	0
447.965	1	7
449.159	1	-2
450.352	1	0
451.546	1	9
452.739	1	-3
453.933	1	-6
455.126	1	2
456.320	1	7
457.513	1	2
458.706	1	4
459.899	1	-4
461.093	1	5
462.286	1	-5
463.479	1	-7
464.672	1	-2
465.865	1	4
467.058	1	0
468.251	1	-3
469.444	1	6
470.637	1	5
471.830	1	2
473.023	1	3
474.215	1	7
475.408	1	6
476.601	1	-7
477.793	1	1
478.986	1	12
480.179	1	5
481.371	1	-5
482.564	1	14
483.756	1	-1
484.948	1	4
486.141	1	13
487.333	1	-5
488.525	1	-7
489.718	1	-10
490.910	1	3
492.102	1	13
493.294	1	-9
494.486	1	0
495.678	1	6
496.870	1	-2
498.062	1	-5
499.254	1	-5
500.446	1	1
501.638	1	-3
502.829	1	0
504.021	1	-5
505.213	1	-2
506.404	1	4
507.596	1	11
508.788	1	-2
509.979	1	3
511.171	1	2
512.362	1	7
513.553	1	9
514.745	1	1
515.936	1	0
517.127	1	13
518.319	1	-3
519.510	1	-2
520.701	1	7
521.892	1	3
523.083	1	-5
524.274	1	4
525.465	1	20
526.656	1	1
527.847	1	1
529.038	1	3
530.229	1	12
531.419	1	5
532.610	1	10
533.801	1	0
534.991	1	5
536.182	1	-3
537.373	1	9
538.563	1	3
539.754	1	6
540.944	1	5
542.134	1	1
543.325	1	9
544.515	1	5
545.705	1	10
546.896	1	8
548.086	1	5
549.276	1	4
550.466	1	1
551.656	1	6
552.846	1	2
554.036	1	13
555.226	1	4
556.416	1	12
557.606	1	-15
558.796	1	9
559.986	1	12
561.175	1	-5
562.365	1	1
563.555	1	8
564.744	1	13
565.934	1	4
567.123	1	5
568.313	1	6
569.502	1	4
570.692	1	10
571.881	1	-1
573.070	1	4
574.260	1	9
575.449	1	-12
576.638	1	11
577.827	1	3
579.016	1	-5
580.205	1	7
581.394	1	2
582.583	1	2
583.772	1	2
584.961	1	-4
586.150	1	8
587.339	1	2
588.528	1	-2
589.717	1	8
590.905	1	5
592.094	1	13
593.283	1	5
594.471	1	-7
595.660	1	5
596.848	1	-2
598.037	1	4
599.225	1	1
600.413	1	2
601.602	1	1
602.790	1	2
603.978	1	-4
605.166	1	3
606.355	1	-6
607.543	1	4
608.731	1	-12
609.919	1	-12
611.107	1	7
612.295	1	2
613.483	1	0
614.671	1	4
615.858	1	-7
617.046	1	7
618.234	1	-4
619.422	1	13
620.609	1	4
621.797	1	-3
622.985	1	-6
624.172	1	4
625.360	1	5
626.547	1	-7
627.735	1	-1
628.922	1	13
630.109	1	-2
631.297	1	2
632.484	1	13
633.671	1	9
634.858	1	6
636.045	1	-2
637.232	1	-2
638.419	1	-2
639.606	1	6
640.793	1	-1
641.980	1	7
643.167	1	-2
644.354	1	9
645.541	1	2
646.728	1	2
647.914	1	9
649.101	1	4
650.288	1	-5
651.474	1	2
652.661	1	15
653.847	1	8
655.034	1	-6
656.220	1	6
657.406	1	2
658.593	1	9
659.779	1	10
660.965	1	6
662.152	1	4
663.338	1	0
664.524	1	11
665.710	1	7
666.896	1	3
668.082	1	2
669.268	1	-4
670.454	1	8
671.640	1	7
672.826	1	-4
674.011	1	13
675.197	1	8
676.383	1	0
677.569	1	12
678.754	1	1
679.940	1	-4
681.125	1	5
682.311	1	9
683.496	1	-6
684.682	1	11
685.867	1	-6
687.053	1	21
688.238	1	5
688.746	1	-2