Folder: cryo-il_analysis/Data/GaN_170K_550ms (part 3)

File: GaN_sample D_spot 18_UVVIS_170 K_200um_550 ms 2x2mm1_44.txt
340.368	1	1
341.565	1	5
342.763	1	5
343.960	1	-1
345.157	1	8
346.354	1	2
347.552	1	12
348.749	1	8
349.946	1	9
351.143	1	-1
352.340	1	8
353.537	1	7
354.734	1	13
355.931	1	-8
357.127	1	4
358.324	1	8
359.521	1	6
360.718	1	-5
361.914	1	1
363.111	1	13
364.308	1	2
365.504	1	-3
366.701	1	-5
367.897	1	0
369.093	1	-11
370.290	1	-1
371.486	1	-8
372.682	1	6
373.879	1	11
375.075	1	-7
376.271	1	2
377.467	1	4
378.663	1	7
379.859	1	1
381.055	1	7
382.251	1	-5
383.447	1	-2
384.643	1	1
385.839	1	-1
387.035	1	1
388.230	1	-6
389.426	1	2
390.622	1	2
391.817	1	4
393.013	1	0
394.208	1	5
395.404	1	3
396.599	1	-5
397.795	1	-6
398.990	1	-9
400.186	1	-4
401.381	1	14
402.576	1	1
403.771	1	5
404.967	1	3
406.162	1	6
407.357	1	-8
408.552	1	2
409.747	1	-3
410.942	1	4
412.137	1	-11
413.332	1	-7
414.526	1	5
415.721	1	4
416.916	1	0
418.111	1	7
419.305	1	4
420.500	1	4
421.695	1	-8
422.889	1	-3
424.084	1	14
425.278	1	7
426.472	1	-1
427.667	1	6
428.861	1	6
430.055	1	10
431.250	1	16
432.444	1	2
433.638	1	18
434.832	1	7
436.026	1	1
437.220	1	3
438.414	1	-2
439.608	1	-3
440.802	1	6
441.996	1	-2
443.190	1	-6
444.384	1	4
445.578	1	11
446.771	1	-2
447.965	1	1
449.159	1	4
450.352	1	2
451.546	1	-5
452.739	1	-1
453.933	1	2
455.126	1	9
456.320	1	7
457.513	1	9
458.706	1	10
459.899	1	2
461.093	1	4
462.286	1	1
463.479	1	5
464.672	1	-7
465.865	1	-4
467.058	1	1
468.251	1	-2
469.444	1	4
470.637	1	3
471.830	1	7
473.023	1	6
474.215	1	2
475.408	1	1
476.601	1	6
477.793	1	8
478.986	1	-1
480.179	1	-3
481.371	1	5
482.564	1	6
483.756	1	6
484.948	1	0
486.141	1	10
487.333	1	-7
488.525	1	6
489.718	1	14
490.910	1	0
492.102	1	-5
493.294	1	3
494.486	1	2
495.678	1	-1
496.870	1	3
498.062	1	6
499.254	1	1
500.446	1	5
501.638	1	-5
502.829	1	-2
504.021	1	4
505.213	1	-5
506.404	1	5
507.596	1	11
508.788	1	-7
509.979	1	6
511.171	1	9
512.362	1	-3
513.553	1	-1
514.745	1	-6
515.936	1	-2
517.127	1	0
518.319	1	10
519.510	1	3
520.701	1	0
521.892	1	-2
523.083	1	-3
524.274	1	-2
525.465	1	0
526.656	1	7
527.847	1	0
529.038	1	-4
530.229	1	12
531.419	1	12
532.610	1	11
533.801	1	1
534.991	1	2
536.182	1	6
537.373	1	2
538.563	1	-3
539.754	1	3
540.944	1	-3
542.134	1	9
543.325	1	4
544.515	1	-1
545.705	1	2
546.896	1	1
548.086	1	-3
549.276	1	9
550.466	1	-4
551.656	1	11
552.846	1	2
554.036	1	-2
555.226	1	-3
556.416	1	1
557.606	1	3
558.796	1	-2
559.986	1	6
561.175	1	-10
562.365	1	-1
563.555	1	0
564.744	1	0
565.934	1	2
567.123	1	-2
568.313	1	-2
569.502	1	2
570.692	1	3
571.881	1	-8
573.070	1	-8
574.260	1	6
575.449	1	3
576.638	1	7
577.827	1	0
579.016	1	7
580.205	1	-3
581.394	1	6
582.583	1	-8
583.772	1	1
584.961	1	2
586.150	1	1
587.339	1	5
588.528	1	-8
589.717	1	6
590.905	1	3
592.094	1	6
593.283	1	9
594.471	1	14
595.660	1	-8
596.848	1	0
598.037	1	1
599.225	1	-8
600.413	1	-5
601.602	1	6
602.790	1	8
603.978	1	2
605.166	1	8
606.355	1	4
607.543	1	8
608.731	1	6
609.919	1	-1
611.107	1	-7
612.295	1	0
613.483	1	-10
614.671	1	8
615.858	1	-1
617.046	1	-6
618.234	1	2
619.422	1	-6
620.609	1	2
621.797	1	0
622.985	1	7
624.172	1	-3
625.360	1	-1
626.547	1	-7
627.735	1	-7
628.922	1	-5
630.109	1	1
631.297	1	-3
632.484	1	-2
633.671	1	11
634.858	1	-2
636.045	1	11
637.232	1	7
638.419	1	-5
639.606	1	0
640.793	1	1
641.980	1	-6
643.167	1	-2
644.354	1	6
645.541	1	11
646.728	1	6
647.914	1	5
649.101	1	5
650.288	1	1
651.474	1	15
652.661	1	4
653.847	1	3
655.034	1	8
656.220	1	0
657.406	1	0
658.593	1	-4
659.779	1	7
660.965	1	14
662.152	1	8
663.338	1	7
664.524	1	3
665.710	1	1
666.896	1	4
668.082	1	15
669.268	1	-5
670.454	1	-7
671.640	1	4
672.826	1	0
674.011	1	3
675.197	1	6
676.383	1	11
677.569	1	-2
678.754	1	-1
679.940	1	9
681.125	1	8
682.311	1	5
683.496	1	9
684.682	1	1
685.867	1	8
687.053	1	0
688.238	1	1
688.746	1	-9

File: GaN_sample D_spot 18_UVVIS_170 K_200um_550 ms 2x2mm1_46.txt
340.368	1	-3
341.565	1	10
342.763	1	3
343.960	1	0
345.157	1	4
346.354	1	-2
347.552	1	4
348.749	1	5
349.946	1	0
351.143	1	-1
352.340	1	6
353.537	1	7
354.734	1	10
355.931	1	1
357.127	1	1
358.324	1	9
359.521	1	10
360.718	1	-6
361.914	1	3
363.111	1	6
364.308	1	0
365.504	1	-9
366.701	1	1
367.897	1	-5
369.093	1	-4
370.290	1	1
371.486	1	-6
372.682	1	-2
373.879	1	6
375.075	1	6
376.271	1	0
377.467	1	3
378.663	1	6
379.859	1	5
381.055	1	-1
382.251	1	0
383.447	1	8
384.643	1	5
385.839	1	6
387.035	1	-2
388.230	1	3
389.426	1	5
390.622	1	-3
391.817	1	9
393.013	1	2
394.208	1	13
395.404	1	12
396.599	1	4
397.795	1	-6
398.990	1	1
400.186	1	-6
401.381	1	7
402.576	1	0
403.771	1	2
404.967	1	9
406.162	1	1
407.357	1	-7
408.552	1	4
409.747	1	0
410.942	1	6
412.137	1	-6
413.332	1	-2
414.526	1	0
415.721	1	5
416.916	1	-10
418.111	1	15
419.305	1	3
420.500	1	3
421.695	1	-4
422.889	1	-3
424.084	1	20
425.278	1	-11
426.472	1	3
427.667	1	3
428.861	1	5
430.055	1	4
431.250	1	10
432.444	1	3
433.638	1	14
434.832	1	3
436.026	1	-1
437.220	1	13
438.414	1	-8
439.608	1	-4
440.802	1	9
441.996	1	9
443.190	1	-3
444.384	1	-6
445.578	1	6
446.771	1	-12
447.965	1	2
449.159	1	0
450.352	1	-4
451.546	1	-4
452.739	1	-2
453.933	1	5
455.126	1	6
456.320	1	1
457.513	1	9
458.706	1	4
459.899	1	-1
461.093	1	11
462.286	1	-4
463.479	1	0
464.672	1	4
465.865	1	0
467.058	1	6
468.251	1	2
469.444	1	3
470.637	1	2
471.830	1	3
473.023	1	1
474.215	1	6
475.408	1	-2
476.601	1	3
477.793	1	6
478.986	1	-5
480.179	1	-1
481.371	1	4
482.564	1	-4
483.756	1	8
484.948	1	-3
486.141	1	6
487.333	1	-1
488.525	1	5
489.718	1	14
490.910	1	3
492.102	1	-5
493.294	1	-2
494.486	1	11
495.678	1	-3
496.870	1	2
498.062	1	-3
499.254	1	-3
500.446	1	-2
501.638	1	-5
502.829	1	1
504.021	1	4
505.213	1	2
506.404	1	1
507.596	1	9
508.788	1	-4
509.979	1	5
511.171	1	7
512.362	1	1
513.553	1	4
514.745	1	-10
515.936	1	2
517.127	1	5
518.319	1	10
519.510	1	3
520.701	1	7
521.892	1	1
523.083	1	1
524.274	1	-7
525.465	1	11
526.656	1	10
527.847	1	2
529.038	1	-5
530.229	1	4
531.419	1	7
532.610	1	0
533.801	1	2
534.991	1	2
536.182	1	4
537.373	1	1
538.563	1	6
539.754	1	-5
540.944	1	-4
542.134	1	-5
543.325	1	8
544.515	1	1
545.705	1	8
546.896	1	1
548.086	1	-5
549.276	1	2
550.466	1	-2
551.656	1	3
552.846	1	3
554.036	1	0
555.226	1	-6
556.416	1	-4
557.606	1	5
558.796	1	3
559.986	1	10
561.175	1	-9
562.365	1	6
563.555	1	2
564.744	1	9
565.934	1	6
567.123	1	3
568.313	1	0
569.502	1	7
570.692	1	1
571.881	1	1
573.070	1	5
574.260	1	13
575.449	1	5
576.638	1	5
577.827	1	1
579.016	1	1
580.205	1	1
581.394	1	-3
582.583	1	-2
583.772	1	-3
584.961	1	5
586.150	1	-1
587.339	1	0
588.528	1	-3
589.717	1	1
590.905	1	10
592.094	1	10
593.283	1	6
594.471	1	10
595.660	1	10
596.848	1	-5
598.037	1	2
599.225	1	8
600.413	1	-1
601.602	1	3
602.790	1	5
603.978	1	3
605.166	1	2
606.355	1	13
607.543	1	3
608.731	1	5
609.919	1	-12
611.107	1	-3
612.295	1	-4
613.483	1	0
614.671	1	7
615.858	1	2
617.046	1	-1
618.234	1	7
619.422	1	-7
620.609	1	-9
621.797	1	4
622.985	1	-1
624.172	1	5
625.360	1	1
626.547	1	6
627.735	1	-4
628.922	1	-3
630.109	1	0
631.297	1	-3
632.484	1	-4
633.671	1	7
634.858	1	-6
636.045	1	5
637.232	1	7
638.419	1	-4
639.606	1	-7
640.793	1	4
641.980	1	-5
643.167	1	-3
644.354	1	3
645.541	1	0
646.728	1	1
647.914	1	-1
649.101	1	6
650.288	1	1
651.474	1	4
652.661	1	0
653.847	1	2
655.034	1	2
656.220	1	-4
657.406	1	2
658.593	1	0
659.779	1	5
660.965	1	11
662.152	1	1
663.338	1	3
664.524	1	4
665.710	1	-1
666.896	1	7
668.082	1	12
669.268	1	-9
670.454	1	-13
671.640	1	10
672.826	1	0
674.011	1	4
675.197	1	13
676.383	1	2
677.569	1	6
678.754	1	-3
679.940	1	3
681.125	1	9
682.311	1	3
683.496	1	7
684.682	1	0
685.867	1	9
687.053	1	-4
688.238	1	-5
688.746	1	0

File: GaN_sample D_spot 18_UVVIS_170 K_200um_550 ms 2x2mm1_54.txt
340.368	1	7
341.565	1	-1
342.763	1	8
343.960	1	9
345.157	1	1
346.354	1	1
347.552	1	12
348.749	1	7
349.946	1	18
351.143	1	8
352.340	1	17
353.537	1	29
354.734	1	24
355.931	1	25
357.127	1	34
358.324	1	49
359.521	1	54
360.718	1	99
361.914	1	146
363.111	1	259
364.308	1	425
365.504	1	719
366.701	1	1182
367.897	1	1590
369.093	1	1708
370.290	1	1495
371.486	1	1120
372.682	1	850
373.879	1	673
375.075	1	553
376.271	1	442
377.467	1	358
378.663	1	285
379.859	1	236
381.055	1	205
382.251	1	211
383.447	1	236
384.643	1	245
385.839	1	251
387.035	1	215
388.230	1	200
389.426	1	198
390.622	1	182
391.817	1	176
393.013	1	153
394.208	1	152
395.404	1	149
396.599	1	153
397.795	1	157
398.990	1	149
400.186	1	120
401.381	1	124
402.576	1	100
403.771	1	111
404.967	1	98
406.162	1	96
407.357	1	90
408.552	1	92
409.747	1	90
410.942	1	85
412.137	1	54
413.332	1	65
414.526	1	66
415.721	1	66
416.916	1	58
418.111	1	62
419.305	1	66
420.500	1	58
421.695	1	47
422.889	1	49
424.084	1	57
425.278	1	36
426.472	1	48
427.667	1	44
428.861	1	55
430.055	1	38
431.250	1	48
432.444	1	34
433.638	1	48
434.832	1	50
436.026	1	34
437.220	1	35
438.414	1	19
439.608	1	42
440.802	1	39
441.996	1	30
443.190	1	38
444.384	1	32
445.578	1	35
446.771	1	11
447.965	1	29
449.159	1	32
450.352	1	18
451.546	1	9
452.739	1	17
453.933	1	27
455.126	1	31
456.320	1	30
457.513	1	34
458.706	1	18
459.899	1	23
461.093	1	31
462.286	1	15
463.479	1	15
464.672	1	20
465.865	1	24
467.058	1	24
468.251	1	27
469.444	1	25
470.637	1	26
471.830	1	24
473.023	1	19
474.215	1	19
475.408	1	20
476.601	1	21
477.793	1	33
478.986	1	19
480.179	1	18
481.371	1	41
482.564	1	39
483.756	1	41
484.948	1	32
486.141	1	47
487.333	1	31
488.525	1	51
489.718	1	54
490.910	1	55
492.102	1	64
493.294	1	59
494.486	1	65
495.678	1	59
496.870	1	58
498.062	1	68
499.254	1	76
500.446	1	85
501.638	1	75
502.829	1	95
504.021	1	98
505.213	1	107
506.404	1	110
507.596	1	115
508.788	1	118
509.979	1	127
511.171	1	134
512.362	1	135
513.553	1	140
514.745	1	149
515.936	1	138
517.127	1	157
518.319	1	166
519.510	1	189
520.701	1	177
521.892	1	185
523.083	1	181
524.274	1	190
525.465	1	209
526.656	1	227
527.847	1	224
529.038	1	232
530.229	1	248
531.419	1	248
532.610	1	244
533.801	1	263
534.991	1	230
536.182	1	221
537.373	1	224
538.563	1	239
539.754	1	229
540.944	1	230
542.134	1	232
543.325	1	252
544.515	1	256
545.705	1	265
546.896	1	285
548.086	1	268
549.276	1	296
550.466	1	299
551.656	1	302
552.846	1	273
554.036	1	288
555.226	1	281
556.416	1	275
557.606	1	282
558.796	1	278
559.986	1	281
561.175	1	281
562.365	1	281
563.555	1	279
564.744	1	286
565.934	1	283
567.123	1	281
568.313	1	264
569.502	1	270
570.692	1	279
571.881	1	258
573.070	1	252
574.260	1	263
575.449	1	259
576.638	1	258
577.827	1	249
579.016	1	253
580.205	1	268
581.394	1	251
582.583	1	270
583.772	1	247
584.961	1	264
586.150	1	250
587.339	1	235
588.528	1	240
589.717	1	217
590.905	1	228
592.094	1	220
593.283	1	219
594.471	1	220
595.660	1	199
596.848	1	210
598.037	1	220
599.225	1	215
600.413	1	192
601.602	1	207
602.790	1	223
603.978	1	222
605.166	1	210
606.355	1	208
607.543	1	216
608.731	1	202
609.919	1	206
611.107	1	174
612.295	1	176
613.483	1	169
614.671	1	163
615.858	1	172
617.046	1	151
618.234	1	148
619.422	1	145
620.609	1	153
621.797	1	142
622.985	1	139
624.172	1	148
625.360	1	135
626.547	1	139
627.735	1	131
628.922	1	126
630.109	1	137
631.297	1	125
632.484	1	122
633.671	1	136
634.858	1	118
636.045	1	125
637.232	1	118
638.419	1	103
639.606	1	106
640.793	1	101
641.980	1	93
643.167	1	112
644.354	1	99
645.541	1	119
646.728	1	104
647.914	1	93
649.101	1	96
650.288	1	93
651.474	1	105
652.661	1	90
653.847	1	90
655.034	1	87
656.220	1	82
657.406	1	76
658.593	1	60
659.779	1	74
660.965	1	77
662.152	1	78
663.338	1	65
664.524	1	71
665.710	1	66
666.896	1	70
668.082	1	72
669.268	1	53
670.454	1	53
671.640	1	65
672.826	1	73
674.011	1	58
675.197	1	78
676.383	1	58
677.569	1	56
678.754	1	55
679.940	1	61
681.125	1	52
682.311	1	68
683.496	1	51
684.682	1	52
685.867	1	52
687.053	1	50
688.238	1	43
688.746	1	49

File: GaN_sample D_spot 18_UVVIS_170 K_200um_550 ms 2x2mm1_55.txt
340.368	1	4
341.565	1	9
342.763	1	10
343.960	1	14
345.157	1	-3
346.354	1	3
347.552	1	20
348.749	1	3
349.946	1	13
351.143	1	15
352.340	1	26
353.537	1	24
354.734	1	25
355.931	1	43
357.127	1	43
358.324	1	68
359.521	1	96
360.718	1	127
361.914	1	211
363.111	1	341
364.308	1	576
365.504	1	950
366.701	1	1469
367.897	1	1926
369.093	1	2056
370.290	1	1758
371.486	1	1370
372.682	1	1054
373.879	1	829
375.075	1	675
376.271	1	551
377.467	1	432
378.663	1	353
379.859	1	279
381.055	1	245
382.251	1	231
383.447	1	231
384.643	1	220
385.839	1	193
387.035	1	191
388.230	1	151
389.426	1	143
390.622	1	131
391.817	1	135
393.013	1	115
394.208	1	118
395.404	1	121
396.599	1	107
397.795	1	112
398.990	1	94
400.186	1	88
401.381	1	87
402.576	1	81
403.771	1	63
404.967	1	67
406.162	1	69
407.357	1	66
408.552	1	63
409.747	1	67
410.942	1	56
412.137	1	43
413.332	1	49
414.526	1	63
415.721	1	45
416.916	1	43
418.111	1	52
419.305	1	53
420.500	1	41
421.695	1	33
422.889	1	35
424.084	1	50
425.278	1	39
426.472	1	39
427.667	1	39
428.861	1	36
430.055	1	36
431.250	1	47
432.444	1	47
433.638	1	38
434.832	1	35
436.026	1	30
437.220	1	35
438.414	1	27
439.608	1	21
440.802	1	26
441.996	1	17
443.190	1	34
444.384	1	41
445.578	1	32
446.771	1	12
447.965	1	19
449.159	1	17
450.352	1	18
451.546	1	28
452.739	1	19
453.933	1	23
455.126	1	41
456.320	1	17
457.513	1	23
458.706	1	32
459.899	1	11
461.093	1	27
462.286	1	21
463.479	1	16
464.672	1	14
465.865	1	20
467.058	1	22
468.251	1	33
469.444	1	30
470.637	1	22
471.830	1	19
473.023	1	39
474.215	1	18
475.408	1	23
476.601	1	30
477.793	1	33
478.986	1	22
480.179	1	33
481.371	1	29
482.564	1	41
483.756	1	43
484.948	1	42
486.141	1	55
487.333	1	53
488.525	1	68
489.718	1	61
490.910	1	55
492.102	1	67
493.294	1	68
494.486	1	77
495.678	1	80
496.870	1	86
498.062	1	66
499.254	1	95
500.446	1	93
501.638	1	98
502.829	1	117
504.021	1	124
505.213	1	129
506.404	1	121
507.596	1	132
508.788	1	114
509.979	1	126
511.171	1	142
512.362	1	138
513.553	1	154
514.745	1	139
515.936	1	174
517.127	1	183
518.319	1	187
519.510	1	180
520.701	1	182
521.892	1	186
523.083	1	178
524.274	1	186
525.465	1	197
526.656	1	211
527.847	1	223
529.038	1	218
530.229	1	244
531.419	1	239
532.610	1	234
533.801	1	226
534.991	1	227
536.182	1	210
537.373	1	208
538.563	1	214
539.754	1	203
540.944	1	198
542.134	1	218
543.325	1	219
544.515	1	217
545.705	1	242
546.896	1	234
548.086	1	223
549.276	1	229
550.466	1	225
551.656	1	229
552.846	1	225
554.036	1	213
555.226	1	215
556.416	1	221
557.606	1	212
558.796	1	212
559.986	1	229
561.175	1	198
562.365	1	217
563.555	1	210
564.744	1	213
565.934	1	216
567.123	1	201
568.313	1	204
569.502	1	194
570.692	1	183
571.881	1	186
573.070	1	179
574.260	1	180
575.449	1	193
576.638	1	193
577.827	1	166
579.016	1	191
580.205	1	171
581.394	1	186
582.583	1	178
583.772	1	170
584.961	1	179
586.150	1	151
587.339	1	159
588.528	1	162
589.717	1	163
590.905	1	150
592.094	1	145
593.283	1	135
594.471	1	145
595.660	1	130
596.848	1	131
598.037	1	135
599.225	1	136
600.413	1	137
601.602	1	132
602.790	1	143
603.978	1	137
605.166	1	140
606.355	1	142
607.543	1	135
608.731	1	122
609.919	1	124
611.107	1	120
612.295	1	121
613.483	1	97
614.671	1	116
615.858	1	105
617.046	1	103
618.234	1	102
619.422	1	85
620.609	1	105
621.797	1	89
622.985	1	90
624.172	1	84
625.360	1	95
626.547	1	78
627.735	1	82
628.922	1	76
630.109	1	77
631.297	1	81
632.484	1	71
633.671	1	84
634.858	1	83
636.045	1	75
637.232	1	82
638.419	1	65
639.606	1	65
640.793	1	69
641.980	1	76
643.167	1	70
644.354	1	63
645.541	1	68
646.728	1	72
647.914	1	68
649.101	1	65
650.288	1	61
651.474	1	68
652.661	1	60
653.847	1	59
655.034	1	61
656.220	1	58
657.406	1	45
658.593	1	51
659.779	1	53
660.965	1	57
662.152	1	44
663.338	1	56
664.524	1	45
665.710	1	50
666.896	1	47
668.082	1	50
669.268	1	39
670.454	1	45
671.640	1	45
672.826	1	46
674.011	1	44
675.197	1	54
676.383	1	47
677.569	1	37
678.754	1	47
679.940	1	49
681.125	1	57
682.311	1	41
683.496	1	43
684.682	1	41
685.867	1	50
687.053	1	42
688.238	1	43
688.746	1	33

File: GaN_sample D_spot 18_UVVIS_170 K_200um_550 ms 2x2mm1_56.txt
340.368	1	4
341.565	1	5
342.763	1	11
343.960	1	5
345.157	1	8
346.354	1	3
347.552	1	16
348.749	1	14
349.946	1	15
351.143	1	15
352.340	1	18
353.537	1	24
354.734	1	30
355.931	1	35
357.127	1	42
358.324	1	66
359.521	1	82
360.718	1	118
361.914	1	179
363.111	1	298
364.308	1	472
365.504	1	750
366.701	1	1143
367.897	1	1457
369.093	1	1566
370.290	1	1326
371.486	1	1018
372.682	1	788
373.879	1	646
375.075	1	523
376.271	1	429
377.467	1	343
378.663	1	277
379.859	1	227
381.055	1	201
382.251	1	157
383.447	1	173
384.643	1	155
385.839	1	132
387.035	1	132
388.230	1	94
389.426	1	100
390.622	1	91
391.817	1	75
393.013	1	72
394.208	1	73
395.404	1	69
396.599	1	58
397.795	1	62
398.990	1	56
400.186	1	55
401.381	1	52
402.576	1	48
403.771	1	42
404.967	1	40
406.162	1	52
407.357	1	36
408.552	1	29
409.747	1	30
410.942	1	29
412.137	1	29
413.332	1	41
414.526	1	28
415.721	1	21
416.916	1	21
418.111	1	29
419.305	1	23
420.500	1	23
421.695	1	13
422.889	1	12
424.084	1	32
425.278	1	26
426.472	1	22
427.667	1	24
428.861	1	14
430.055	1	29
431.250	1	42
432.444	1	15
433.638	1	21
434.832	1	14
436.026	1	19
437.220	1	7
438.414	1	18
439.608	1	14
440.802	1	20
441.996	1	6
443.190	1	9
444.384	1	23
445.578	1	23
446.771	1	4
447.965	1	21
449.159	1	17
450.352	1	5
451.546	1	14
452.739	1	13
453.933	1	18
455.126	1	26
456.320	1	11
457.513	1	25
458.706	1	33
459.899	1	13
461.093	1	30
462.286	1	14
463.479	1	17
464.672	1	7
465.865	1	18
467.058	1	13
468.251	1	11
469.444	1	14
470.637	1	17
471.830	1	14
473.023	1	20
474.215	1	25
475.408	1	19
476.601	1	19
477.793	1	33
478.986	1	27
480.179	1	39
481.371	1	26
482.564	1	33
483.756	1	26
484.948	1	30
486.141	1	45
487.333	1	34
488.525	1	47
489.718	1	58
490.910	1	54
492.102	1	47
493.294	1	55
494.486	1	63
495.678	1	53
496.870	1	62
498.062	1	70
499.254	1	76
500.446	1	80
501.638	1	77
502.829	1	79
504.021	1	95
505.213	1	100
506.404	1	106
507.596	1	106
508.788	1	98
509.979	1	111
511.171	1	123
512.362	1	117
513.553	1	116
514.745	1	125
515.936	1	119
517.127	1	130
518.319	1	140
519.510	1	147
520.701	1	147
521.892	1	140
523.083	1	143
524.274	1	139
525.465	1	152
526.656	1	162
527.847	1	150
529.038	1	166
530.229	1	175
531.419	1	174
532.610	1	160
533.801	1	163
534.991	1	157
536.182	1	151
537.373	1	137
538.563	1	148
539.754	1	143
540.944	1	144
542.134	1	155
543.325	1	156
544.515	1	151
545.705	1	165
546.896	1	160
548.086	1	172
549.276	1	163
550.466	1	164
551.656	1	159
552.846	1	163
554.036	1	146
555.226	1	133
556.416	1	143
557.606	1	144
558.796	1	134
559.986	1	134
561.175	1	120
562.365	1	130
563.555	1	127
564.744	1	133
565.934	1	123
567.123	1	122
568.313	1	117
569.502	1	128
570.692	1	124
571.881	1	124
573.070	1	108
574.260	1	107
575.449	1	113
576.638	1	105
577.827	1	111
579.016	1	109
580.205	1	107
581.394	1	109
582.583	1	100
583.772	1	101
584.961	1	109
586.150	1	97
587.339	1	87
588.528	1	93
589.717	1	88
590.905	1	85
592.094	1	87
593.283	1	85
594.471	1	71
595.660	1	68
596.848	1	75
598.037	1	75
599.225	1	79
600.413	1	77
601.602	1	78
602.790	1	80
603.978	1	73
605.166	1	77
606.355	1	77
607.543	1	79
608.731	1	72
609.919	1	69
611.107	1	68
612.295	1	66
613.483	1	60
614.671	1	63
615.858	1	46
617.046	1	62
618.234	1	57
619.422	1	49
620.609	1	55
621.797	1	55
622.985	1	58
624.172	1	54
625.360	1	57
626.547	1	49
627.735	1	46
628.922	1	53
630.109	1	57
631.297	1	41
632.484	1	45
633.671	1	44
634.858	1	43
636.045	1	55
637.232	1	40
638.419	1	36
639.606	1	38
640.793	1	35
641.980	1	43
643.167	1	32
644.354	1	42
645.541	1	43
646.728	1	45
647.914	1	44
649.101	1	41
650.288	1	36
651.474	1	38
652.661	1	40
653.847	1	43
655.034	1	33
656.220	1	31
657.406	1	30
658.593	1	30
659.779	1	39
660.965	1	35
662.152	1	36
663.338	1	28
664.524	1	19
665.710	1	25
666.896	1	28
668.082	1	36
669.268	1	27
670.454	1	12
671.640	1	28
672.826	1	21
674.011	1	28
675.197	1	32
676.383	1	26
677.569	1	19
678.754	1	26
679.940	1	37
681.125	1	28
682.311	1	28
683.496	1	27
684.682	1	43
685.867	1	33
687.053	1	16
688.238	1	28
688.746	1	16

File: GaN_sample D_spot 18_UVVIS_170 K_200um_550 ms 2x2mm1_57.txt
340.368	1	-5
341.565	1	11
342.763	1	5
343.960	1	1
345.157	1	8
346.354	1	-4
347.552	1	9
348.749	1	13
349.946	1	17
351.143	1	4
352.340	1	15
353.537	1	23
354.734	1	26
355.931	1	24
357.127	1	45
358.324	1	61
359.521	1	71
360.718	1	109
361.914	1	149
363.111	1	263
364.308	1	403
365.504	1	638
366.701	1	930
367.897	1	1175
369.093	1	1198
370.290	1	1067
371.486	1	840
372.682	1	666
373.879	1	545
375.075	1	440
376.271	1	340
377.467	1	302
378.663	1	235
379.859	1	187
381.055	1	154
382.251	1	142
383.447	1	141
384.643	1	118
385.839	1	98
387.035	1	96
388.230	1	84
389.426	1	84
390.622	1	73
391.817	1	68
393.013	1	56
394.208	1	49
395.404	1	46
396.599	1	45
397.795	1	46
398.990	1	32
400.186	1	36
401.381	1	39
402.576	1	38
403.771	1	30
404.967	1	31
406.162	1	32
407.357	1	22
408.552	1	34
409.747	1	21
410.942	1	31
412.137	1	14
413.332	1	18
414.526	1	16
415.721	1	16
416.916	1	9
418.111	1	24
419.305	1	12
420.500	1	19
421.695	1	9
422.889	1	16
424.084	1	29
425.278	1	16
426.472	1	19
427.667	1	26
428.861	1	24
430.055	1	14
431.250	1	30
432.444	1	20
433.638	1	18
434.832	1	18
436.026	1	10
437.220	1	15
438.414	1	7
439.608	1	10
440.802	1	14
441.996	1	6
443.190	1	12
444.384	1	8
445.578	1	14
446.771	1	0
447.965	1	17
449.159	1	6
450.352	1	0
451.546	1	7
452.739	1	6
453.933	1	9
455.126	1	20
456.320	1	7
457.513	1	16
458.706	1	8
459.899	1	8
461.093	1	30
462.286	1	9
463.479	1	16
464.672	1	10
465.865	1	20
467.058	1	13
468.251	1	14
469.444	1	5
470.637	1	10
471.830	1	9
473.023	1	21
474.215	1	19
475.408	1	14
476.601	1	19
477.793	1	28
478.986	1	23
480.179	1	10
481.371	1	19
482.564	1	14
483.756	1	27
484.948	1	40
486.141	1	38
487.333	1	33
488.525	1	51
489.718	1	44
490.910	1	40
492.102	1	43
493.294	1	45
494.486	1	64
495.678	1	48
496.870	1	50
498.062	1	57
499.254	1	63
500.446	1	62
501.638	1	59
502.829	1	81
504.021	1	91
505.213	1	81
506.404	1	90
507.596	1	99
508.788	1	86
509.979	1	82
511.171	1	97
512.362	1	92
513.553	1	93
514.745	1	104
515.936	1	103
517.127	1	115
518.319	1	109
519.510	1	110
520.701	1	113
521.892	1	121
523.083	1	118
524.274	1	115
525.465	1	122
526.656	1	139
527.847	1	126
529.038	1	138
530.229	1	149
531.419	1	135
532.610	1	143
533.801	1	140
534.991	1	127
536.182	1	120
537.373	1	111
538.563	1	113
539.754	1	109
540.944	1	113
542.134	1	112
543.325	1	128
544.515	1	119
545.705	1	121
546.896	1	131
548.086	1	124
549.276	1	124
550.466	1	128
551.656	1	124
552.846	1	126
554.036	1	109
555.226	1	108
556.416	1	112
557.606	1	107
558.796	1	95
559.986	1	101
561.175	1	88
562.365	1	102
563.555	1	100
564.744	1	95
565.934	1	107
567.123	1	95
568.313	1	92
569.502	1	93
570.692	1	97
571.881	1	77
573.070	1	89
574.260	1	91
575.449	1	78
576.638	1	75
577.827	1	72
579.016	1	75
580.205	1	56
581.394	1	71
582.583	1	72
583.772	1	68
584.961	1	66
586.150	1	70
587.339	1	64
588.528	1	66
589.717	1	65
590.905	1	61
592.094	1	57
593.283	1	56
594.471	1	57
595.660	1	54
596.848	1	53
598.037	1	58
599.225	1	62
600.413	1	50
601.602	1	49
602.790	1	59
603.978	1	60
605.166	1	58
606.355	1	54
607.543	1	63
608.731	1	57
609.919	1	47
611.107	1	50
612.295	1	47
613.483	1	40
614.671	1	51
615.858	1	35
617.046	1	26
618.234	1	40
619.422	1	29
620.609	1	38
621.797	1	38
622.985	1	43
624.172	1	32
625.360	1	33
626.547	1	46
627.735	1	38
628.922	1	40
630.109	1	37
631.297	1	25
632.484	1	33
633.671	1	45
634.858	1	31
636.045	1	35
637.232	1	38
638.419	1	22
639.606	1	22
640.793	1	31
641.980	1	17
643.167	1	14
644.354	1	43
645.541	1	35
646.728	1	33
647.914	1	27
649.101	1	33
650.288	1	21
651.474	1	35
652.661	1	29
653.847	1	22
655.034	1	22
656.220	1	18
657.406	1	23
658.593	1	14
659.779	1	26
660.965	1	30
662.152	1	20
663.338	1	18
664.524	1	20
665.710	1	18
666.896	1	11
668.082	1	23
669.268	1	22
670.454	1	16
671.640	1	17
672.826	1	19
674.011	1	26
675.197	1	21
676.383	1	22
677.569	1	14
678.754	1	17
679.940	1	20
681.125	1	22
682.311	1	13
683.496	1	18
684.682	1	21
685.867	1	19
687.053	1	12
688.238	1	20
688.746	1	11