Folder: cryo-il_analysis/Data/GaN_150K_450ms (part 24)

File: GaN_sample D_spot15_UVVIS_150 K_200um_450 ms 2x2mm1_207.txt
340.368	1	8
341.565	1	12
342.763	1	3
343.960	1	7
345.157	1	16
346.354	1	3
347.552	1	16
348.749	1	9
349.946	1	-5
351.143	1	16
352.340	1	10
353.537	1	2
354.734	1	3
355.931	1	9
357.127	1	13
358.324	1	-2
359.521	1	19
360.718	1	9
361.914	1	13
363.111	1	6
364.308	1	17
365.504	1	10
366.701	1	14
367.897	1	18
369.093	1	31
370.290	1	27
371.486	1	20
372.682	1	14
373.879	1	0
375.075	1	6
376.271	1	16
377.467	1	17
378.663	1	4
379.859	1	10
381.055	1	4
382.251	1	-3
383.447	1	2
384.643	1	0
385.839	1	5
387.035	1	2
388.230	1	5
389.426	1	-2
390.622	1	-3
391.817	1	2
393.013	1	8
394.208	1	2
395.404	1	2
396.599	1	-2
397.795	1	-1
398.990	1	8
400.186	1	4
401.381	1	2
402.576	1	0
403.771	1	-3
404.967	1	2
406.162	1	1
407.357	1	6
408.552	1	-5
409.747	1	-4
410.942	1	12
412.137	1	12
413.332	1	9
414.526	1	-7
415.721	1	0
416.916	1	4
418.111	1	10
419.305	1	4
420.500	1	8
421.695	1	8
422.889	1	-2
424.084	1	-3
425.278	1	10
426.472	1	11
427.667	1	2
428.861	1	17
430.055	1	13
431.250	1	6
432.444	1	14
433.638	1	9
434.832	1	3
436.026	1	8
437.220	1	2
438.414	1	9
439.608	1	0
440.802	1	3
441.996	1	2
443.190	1	14
444.384	1	7
445.578	1	5
446.771	1	4
447.965	1	0
449.159	1	1
450.352	1	2
451.546	1	5
452.739	1	-5
453.933	1	1
455.126	1	3
456.320	1	2
457.513	1	13
458.706	1	14
459.899	1	-3
461.093	1	6
462.286	1	-5
463.479	1	-1
464.672	1	9
465.865	1	4
467.058	1	6
468.251	1	-2
469.444	1	12
470.637	1	2
471.830	1	-4
473.023	1	7
474.215	1	-1
475.408	1	8
476.601	1	0
477.793	1	-4
478.986	1	5
480.179	1	15
481.371	1	-5
482.564	1	13
483.756	1	7
484.948	1	8
486.141	1	12
487.333	1	-8
488.525	1	-1
489.718	1	2
490.910	1	7
492.102	1	14
493.294	1	-1
494.486	1	1
495.678	1	-1
496.870	1	6
498.062	1	1
499.254	1	1
500.446	1	3
501.638	1	9
502.829	1	2
504.021	1	1
505.213	1	1
506.404	1	10
507.596	1	5
508.788	1	3
509.979	1	0
511.171	1	8
512.362	1	16
513.553	1	1
514.745	1	9
515.936	1	5
517.127	1	15
518.319	1	3
519.510	1	2
520.701	1	3
521.892	1	6
523.083	1	-1
524.274	1	12
525.465	1	13
526.656	1	8
527.847	1	-13
529.038	1	12
530.229	1	6
531.419	1	-2
532.610	1	9
533.801	1	6
534.991	1	-3
536.182	1	5
537.373	1	1
538.563	1	-1
539.754	1	-3
540.944	1	10
542.134	1	3
543.325	1	7
544.515	1	0
545.705	1	1
546.896	1	10
548.086	1	7
549.276	1	7
550.466	1	12
551.656	1	2
552.846	1	13
554.036	1	15
555.226	1	10
556.416	1	7
557.606	1	-5
558.796	1	9
559.986	1	8
561.175	1	7
562.365	1	7
563.555	1	8
564.744	1	15
565.934	1	10
567.123	1	1
568.313	1	-4
569.502	1	2
570.692	1	6
571.881	1	3
573.070	1	1
574.260	1	11
575.449	1	-4
576.638	1	11
577.827	1	3
579.016	1	4
580.205	1	0
581.394	1	4
582.583	1	9
583.772	1	-3
584.961	1	-5
586.150	1	7
587.339	1	3
588.528	1	-4
589.717	1	5
590.905	1	10
592.094	1	6
593.283	1	6
594.471	1	-4
595.660	1	4
596.848	1	12
598.037	1	-2
599.225	1	-3
600.413	1	4
601.602	1	9
602.790	1	3
603.978	1	-2
605.166	1	-1
606.355	1	-10
607.543	1	-2
608.731	1	-13
609.919	1	-8
611.107	1	7
612.295	1	9
613.483	1	5
614.671	1	-1
615.858	1	-5
617.046	1	-1
618.234	1	-6
619.422	1	14
620.609	1	2
621.797	1	1
622.985	1	6
624.172	1	8
625.360	1	-5
626.547	1	0
627.735	1	-1
628.922	1	2
630.109	1	-5
631.297	1	2
632.484	1	11
633.671	1	5
634.858	1	7
636.045	1	5
637.232	1	0
638.419	1	-2
639.606	1	9
640.793	1	5
641.980	1	12
643.167	1	6
644.354	1	16
645.541	1	-3
646.728	1	8
647.914	1	8
649.101	1	-4
650.288	1	4
651.474	1	10
652.661	1	0
653.847	1	10
655.034	1	-11
656.220	1	12
657.406	1	-3
658.593	1	11
659.779	1	8
660.965	1	3
662.152	1	4
663.338	1	-1
664.524	1	14
665.710	1	1
666.896	1	8
668.082	1	8
669.268	1	-3
670.454	1	5
671.640	1	6
672.826	1	1
674.011	1	2
675.197	1	18
676.383	1	-8
677.569	1	10
678.754	1	-1
679.940	1	-6
681.125	1	-6
682.311	1	10
683.496	1	-5
684.682	1	7
685.867	1	0
687.053	1	8
688.238	1	10
688.746	1	-5

File: GaN_sample D_spot15_UVVIS_150 K_200um_450 ms 2x2mm1_208.txt
340.368	1	4
341.565	1	11
342.763	1	2
343.960	1	7
345.157	1	19
346.354	1	9
347.552	1	15
348.749	1	9
349.946	1	-1
351.143	1	-7
352.340	1	9
353.537	1	-5
354.734	1	-2
355.931	1	2
357.127	1	5
358.324	1	7
359.521	1	8
360.718	1	9
361.914	1	15
363.111	1	3
364.308	1	10
365.504	1	5
366.701	1	18
367.897	1	28
369.093	1	25
370.290	1	13
371.486	1	29
372.682	1	14
373.879	1	17
375.075	1	6
376.271	1	13
377.467	1	20
378.663	1	13
379.859	1	-1
381.055	1	-3
382.251	1	-3
383.447	1	8
384.643	1	4
385.839	1	4
387.035	1	6
388.230	1	3
389.426	1	-2
390.622	1	-7
391.817	1	-4
393.013	1	3
394.208	1	4
395.404	1	7
396.599	1	5
397.795	1	2
398.990	1	18
400.186	1	11
401.381	1	2
402.576	1	8
403.771	1	-3
404.967	1	4
406.162	1	-7
407.357	1	7
408.552	1	-3
409.747	1	-2
410.942	1	12
412.137	1	0
413.332	1	12
414.526	1	-15
415.721	1	6
416.916	1	2
418.111	1	8
419.305	1	8
420.500	1	2
421.695	1	-3
422.889	1	8
424.084	1	6
425.278	1	4
426.472	1	21
427.667	1	3
428.861	1	11
430.055	1	16
431.250	1	8
432.444	1	9
433.638	1	13
434.832	1	-3
436.026	1	-4
437.220	1	7
438.414	1	6
439.608	1	1
440.802	1	7
441.996	1	-2
443.190	1	8
444.384	1	10
445.578	1	-7
446.771	1	10
447.965	1	7
449.159	1	1
450.352	1	-2
451.546	1	3
452.739	1	9
453.933	1	-11
455.126	1	8
456.320	1	11
457.513	1	2
458.706	1	13
459.899	1	1
461.093	1	8
462.286	1	-2
463.479	1	-1
464.672	1	8
465.865	1	1
467.058	1	2
468.251	1	-11
469.444	1	2
470.637	1	-3
471.830	1	3
473.023	1	-3
474.215	1	0
475.408	1	4
476.601	1	8
477.793	1	2
478.986	1	13
480.179	1	9
481.371	1	1
482.564	1	11
483.756	1	7
484.948	1	11
486.141	1	15
487.333	1	4
488.525	1	-1
489.718	1	-2
490.910	1	8
492.102	1	1
493.294	1	4
494.486	1	11
495.678	1	-8
496.870	1	5
498.062	1	5
499.254	1	-6
500.446	1	0
501.638	1	6
502.829	1	3
504.021	1	0
505.213	1	-4
506.404	1	8
507.596	1	3
508.788	1	6
509.979	1	7
511.171	1	8
512.362	1	10
513.553	1	9
514.745	1	2
515.936	1	-6
517.127	1	18
518.319	1	6
519.510	1	1
520.701	1	6
521.892	1	10
523.083	1	2
524.274	1	11
525.465	1	12
526.656	1	10
527.847	1	1
529.038	1	7
530.229	1	14
531.419	1	0
532.610	1	4
533.801	1	2
534.991	1	-1
536.182	1	5
537.373	1	-3
538.563	1	-2
539.754	1	2
540.944	1	8
542.134	1	3
543.325	1	10
544.515	1	2
545.705	1	10
546.896	1	-1
548.086	1	7
549.276	1	11
550.466	1	5
551.656	1	9
552.846	1	15
554.036	1	2
555.226	1	10
556.416	1	13
557.606	1	1
558.796	1	12
559.986	1	15
561.175	1	6
562.365	1	1
563.555	1	8
564.744	1	17
565.934	1	11
567.123	1	6
568.313	1	5
569.502	1	10
570.692	1	10
571.881	1	2
573.070	1	7
574.260	1	4
575.449	1	-8
576.638	1	10
577.827	1	-1
579.016	1	-1
580.205	1	7
581.394	1	2
582.583	1	8
583.772	1	10
584.961	1	0
586.150	1	6
587.339	1	4
588.528	1	-5
589.717	1	5
590.905	1	-8
592.094	1	18
593.283	1	6
594.471	1	0
595.660	1	10
596.848	1	6
598.037	1	-4
599.225	1	2
600.413	1	4
601.602	1	15
602.790	1	7
603.978	1	11
605.166	1	4
606.355	1	-4
607.543	1	2
608.731	1	-8
609.919	1	-9
611.107	1	17
612.295	1	14
613.483	1	3
614.671	1	8
615.858	1	-2
617.046	1	-1
618.234	1	-1
619.422	1	8
620.609	1	-7
621.797	1	3
622.985	1	4
624.172	1	1
625.360	1	4
626.547	1	0
627.735	1	3
628.922	1	11
630.109	1	-3
631.297	1	5
632.484	1	10
633.671	1	6
634.858	1	7
636.045	1	-1
637.232	1	-2
638.419	1	-1
639.606	1	3
640.793	1	2
641.980	1	2
643.167	1	4
644.354	1	9
645.541	1	-5
646.728	1	8
647.914	1	8
649.101	1	6
650.288	1	10
651.474	1	6
652.661	1	11
653.847	1	7
655.034	1	-2
656.220	1	5
657.406	1	4
658.593	1	11
659.779	1	10
660.965	1	4
662.152	1	3
663.338	1	-2
664.524	1	15
665.710	1	-3
666.896	1	9
668.082	1	0
669.268	1	-2
670.454	1	9
671.640	1	4
672.826	1	-4
674.011	1	8
675.197	1	3
676.383	1	-1
677.569	1	10
678.754	1	5
679.940	1	-1
681.125	1	-1
682.311	1	7
683.496	1	8
684.682	1	5
685.867	1	-2
687.053	1	22
688.238	1	11
688.746	1	-4

File: GaN_sample D_spot15_UVVIS_150 K_200um_450 ms 2x2mm1_210.txt
340.368	1	10
341.565	1	0
342.763	1	7
343.960	1	4
345.157	1	10
346.354	1	3
347.552	1	12
348.749	1	9
349.946	1	1
351.143	1	5
352.340	1	14
353.537	1	-1
354.734	1	12
355.931	1	3
357.127	1	11
358.324	1	9
359.521	1	10
360.718	1	3
361.914	1	14
363.111	1	4
364.308	1	13
365.504	1	19
366.701	1	3
367.897	1	20
369.093	1	25
370.290	1	22
371.486	1	23
372.682	1	13
373.879	1	13
375.075	1	4
376.271	1	16
377.467	1	21
378.663	1	8
379.859	1	5
381.055	1	4
382.251	1	0
383.447	1	0
384.643	1	1
385.839	1	7
387.035	1	8
388.230	1	1
389.426	1	-1
390.622	1	-2
391.817	1	-13
393.013	1	13
394.208	1	5
395.404	1	3
396.599	1	6
397.795	1	-7
398.990	1	12
400.186	1	6
401.381	1	-3
402.576	1	5
403.771	1	-2
404.967	1	6
406.162	1	-2
407.357	1	10
408.552	1	5
409.747	1	-5
410.942	1	13
412.137	1	1
413.332	1	9
414.526	1	-6
415.721	1	11
416.916	1	6
418.111	1	16
419.305	1	16
420.500	1	-3
421.695	1	17
422.889	1	4
424.084	1	13
425.278	1	4
426.472	1	8
427.667	1	3
428.861	1	15
430.055	1	15
431.250	1	9
432.444	1	5
433.638	1	12
434.832	1	4
436.026	1	-3
437.220	1	11
438.414	1	9
439.608	1	5
440.802	1	6
441.996	1	8
443.190	1	3
444.384	1	10
445.578	1	-2
446.771	1	7
447.965	1	0
449.159	1	-7
450.352	1	2
451.546	1	7
452.739	1	6
453.933	1	-4
455.126	1	1
456.320	1	12
457.513	1	5
458.706	1	14
459.899	1	-2
461.093	1	7
462.286	1	-2
463.479	1	-5
464.672	1	7
465.865	1	2
467.058	1	8
468.251	1	0
469.444	1	5
470.637	1	0
471.830	1	8
473.023	1	1
474.215	1	0
475.408	1	7
476.601	1	9
477.793	1	3
478.986	1	9
480.179	1	1
481.371	1	-8
482.564	1	1
483.756	1	13
484.948	1	9
486.141	1	6
487.333	1	-7
488.525	1	-3
489.718	1	-6
490.910	1	11
492.102	1	2
493.294	1	-12
494.486	1	-5
495.678	1	5
496.870	1	-3
498.062	1	-4
499.254	1	-3
500.446	1	-1
501.638	1	7
502.829	1	1
504.021	1	4
505.213	1	-2
506.404	1	9
507.596	1	19
508.788	1	7
509.979	1	0
511.171	1	14
512.362	1	5
513.553	1	13
514.745	1	1
515.936	1	-1
517.127	1	12
518.319	1	9
519.510	1	-3
520.701	1	5
521.892	1	1
523.083	1	4
524.274	1	2
525.465	1	6
526.656	1	6
527.847	1	1
529.038	1	7
530.229	1	4
531.419	1	2
532.610	1	4
533.801	1	9
534.991	1	1
536.182	1	10
537.373	1	6
538.563	1	1
539.754	1	1
540.944	1	10
542.134	1	11
543.325	1	8
544.515	1	5
545.705	1	-1
546.896	1	4
548.086	1	1
549.276	1	11
550.466	1	5
551.656	1	3
552.846	1	9
554.036	1	7
555.226	1	-1
556.416	1	16
557.606	1	-8
558.796	1	12
559.986	1	10
561.175	1	4
562.365	1	6
563.555	1	9
564.744	1	4
565.934	1	17
567.123	1	3
568.313	1	8
569.502	1	16
570.692	1	8
571.881	1	7
573.070	1	12
574.260	1	6
575.449	1	2
576.638	1	5
577.827	1	9
579.016	1	3
580.205	1	0
581.394	1	8
582.583	1	8
583.772	1	-1
584.961	1	-3
586.150	1	0
587.339	1	7
588.528	1	0
589.717	1	0
590.905	1	1
592.094	1	11
593.283	1	11
594.471	1	-10
595.660	1	3
596.848	1	-4
598.037	1	-8
599.225	1	4
600.413	1	-5
601.602	1	10
602.790	1	6
603.978	1	-1
605.166	1	2
606.355	1	-12
607.543	1	1
608.731	1	0
609.919	1	-12
611.107	1	7
612.295	1	8
613.483	1	3
614.671	1	6
615.858	1	-7
617.046	1	-6
618.234	1	-4
619.422	1	15
620.609	1	-1
621.797	1	12
622.985	1	-3
624.172	1	4
625.360	1	13
626.547	1	-4
627.735	1	-1
628.922	1	12
630.109	1	-5
631.297	1	4
632.484	1	4
633.671	1	7
634.858	1	3
636.045	1	1
637.232	1	-4
638.419	1	4
639.606	1	11
640.793	1	5
641.980	1	15
643.167	1	-4
644.354	1	8
645.541	1	5
646.728	1	7
647.914	1	7
649.101	1	-4
650.288	1	0
651.474	1	2
652.661	1	2
653.847	1	-2
655.034	1	0
656.220	1	3
657.406	1	5
658.593	1	11
659.779	1	-4
660.965	1	4
662.152	1	-1
663.338	1	4
664.524	1	7
665.710	1	3
666.896	1	4
668.082	1	6
669.268	1	0
670.454	1	0
671.640	1	1
672.826	1	6
674.011	1	6
675.197	1	0
676.383	1	9
677.569	1	7
678.754	1	-2
679.940	1	5
681.125	1	3
682.311	1	9
683.496	1	0
684.682	1	6
685.867	1	6
687.053	1	22
688.238	1	4
688.746	1	-3

File: GaN_sample D_spot15_UVVIS_150 K_200um_450 ms 2x2mm1_211.txt
340.368	1	6
341.565	1	-2
342.763	1	-1
343.960	1	7
345.157	1	10
346.354	1	3
347.552	1	14
348.749	1	11
349.946	1	0
351.143	1	1
352.340	1	10
353.537	1	5
354.734	1	2
355.931	1	14
357.127	1	11
358.324	1	7
359.521	1	8
360.718	1	1
361.914	1	6
363.111	1	-1
364.308	1	9
365.504	1	13
366.701	1	11
367.897	1	10
369.093	1	33
370.290	1	25
371.486	1	16
372.682	1	10
373.879	1	13
375.075	1	10
376.271	1	5
377.467	1	20
378.663	1	9
379.859	1	7
381.055	1	4
382.251	1	-15
383.447	1	4
384.643	1	-3
385.839	1	3
387.035	1	11
388.230	1	11
389.426	1	-3
390.622	1	2
391.817	1	-6
393.013	1	13
394.208	1	2
395.404	1	4
396.599	1	5
397.795	1	1
398.990	1	12
400.186	1	9
401.381	1	4
402.576	1	10
403.771	1	-16
404.967	1	7
406.162	1	7
407.357	1	14
408.552	1	3
409.747	1	-2
410.942	1	15
412.137	1	-5
413.332	1	8
414.526	1	0
415.721	1	10
416.916	1	5
418.111	1	11
419.305	1	7
420.500	1	0
421.695	1	10
422.889	1	4
424.084	1	8
425.278	1	-1
426.472	1	4
427.667	1	-1
428.861	1	9
430.055	1	12
431.250	1	-1
432.444	1	9
433.638	1	14
434.832	1	3
436.026	1	8
437.220	1	11
438.414	1	2
439.608	1	3
440.802	1	5
441.996	1	5
443.190	1	4
444.384	1	6
445.578	1	-6
446.771	1	-2
447.965	1	9
449.159	1	-5
450.352	1	4
451.546	1	11
452.739	1	5
453.933	1	-6
455.126	1	-2
456.320	1	12
457.513	1	-4
458.706	1	9
459.899	1	1
461.093	1	11
462.286	1	-5
463.479	1	-2
464.672	1	8
465.865	1	5
467.058	1	7
468.251	1	-4
469.444	1	7
470.637	1	5
471.830	1	5
473.023	1	7
474.215	1	-2
475.408	1	10
476.601	1	-2
477.793	1	7
478.986	1	2
480.179	1	6
481.371	1	-3
482.564	1	-1
483.756	1	7
484.948	1	2
486.141	1	2
487.333	1	0
488.525	1	-7
489.718	1	-5
490.910	1	4
492.102	1	6
493.294	1	-8
494.486	1	5
495.678	1	-2
496.870	1	1
498.062	1	1
499.254	1	-6
500.446	1	-3
501.638	1	12
502.829	1	0
504.021	1	12
505.213	1	-1
506.404	1	-1
507.596	1	8
508.788	1	3
509.979	1	2
511.171	1	6
512.362	1	7
513.553	1	11
514.745	1	5
515.936	1	3
517.127	1	13
518.319	1	5
519.510	1	-3
520.701	1	8
521.892	1	6
523.083	1	8
524.274	1	8
525.465	1	15
526.656	1	5
527.847	1	-5
529.038	1	5
530.229	1	10
531.419	1	5
532.610	1	4
533.801	1	10
534.991	1	10
536.182	1	1
537.373	1	1
538.563	1	5
539.754	1	3
540.944	1	4
542.134	1	2
543.325	1	13
544.515	1	5
545.705	1	13
546.896	1	9
548.086	1	1
549.276	1	6
550.466	1	10
551.656	1	3
552.846	1	6
554.036	1	7
555.226	1	12
556.416	1	9
557.606	1	-9
558.796	1	13
559.986	1	6
561.175	1	1
562.365	1	12
563.555	1	5
564.744	1	15
565.934	1	7
567.123	1	-5
568.313	1	2
569.502	1	5
570.692	1	1
571.881	1	-1
573.070	1	8
574.260	1	7
575.449	1	2
576.638	1	15
577.827	1	-4
579.016	1	5
580.205	1	3
581.394	1	1
582.583	1	11
583.772	1	2
584.961	1	-3
586.150	1	9
587.339	1	6
588.528	1	-3
589.717	1	3
590.905	1	-6
592.094	1	2
593.283	1	7
594.471	1	-3
595.660	1	8
596.848	1	4
598.037	1	0
599.225	1	2
600.413	1	-6
601.602	1	0
602.790	1	6
603.978	1	-2
605.166	1	0
606.355	1	-9
607.543	1	7
608.731	1	-4
609.919	1	-7
611.107	1	19
612.295	1	6
613.483	1	-2
614.671	1	8
615.858	1	2
617.046	1	7
618.234	1	-6
619.422	1	6
620.609	1	9
621.797	1	3
622.985	1	2
624.172	1	11
625.360	1	-6
626.547	1	-9
627.735	1	12
628.922	1	3
630.109	1	-6
631.297	1	2
632.484	1	0
633.671	1	13
634.858	1	9
636.045	1	-6
637.232	1	1
638.419	1	2
639.606	1	5
640.793	1	1
641.980	1	9
643.167	1	5
644.354	1	6
645.541	1	5
646.728	1	9
647.914	1	4
649.101	1	-6
650.288	1	5
651.474	1	16
652.661	1	6
653.847	1	-1
655.034	1	1
656.220	1	7
657.406	1	0
658.593	1	9
659.779	1	8
660.965	1	7
662.152	1	2
663.338	1	9
664.524	1	12
665.710	1	5
666.896	1	-5
668.082	1	1
669.268	1	-5
670.454	1	13
671.640	1	8
672.826	1	1
674.011	1	6
675.197	1	5
676.383	1	-3
677.569	1	20
678.754	1	2
679.940	1	-3
681.125	1	0
682.311	1	9
683.496	1	4
684.682	1	1
685.867	1	-7
687.053	1	22
688.238	1	14
688.746	1	-6

File: GaN_sample D_spot15_UVVIS_150 K_200um_450 ms 2x2mm1_212.txt
340.368	1	7
341.565	1	14
342.763	1	-2
343.960	1	6
345.157	1	10
346.354	1	-1
347.552	1	5
348.749	1	14
349.946	1	9
351.143	1	5
352.340	1	9
353.537	1	-6
354.734	1	4
355.931	1	7
357.127	1	12
358.324	1	10
359.521	1	11
360.718	1	5
361.914	1	12
363.111	1	8
364.308	1	8
365.504	1	5
366.701	1	12
367.897	1	17
369.093	1	25
370.290	1	26
371.486	1	25
372.682	1	8
373.879	1	15
375.075	1	3
376.271	1	14
377.467	1	17
378.663	1	5
379.859	1	-4
381.055	1	3
382.251	1	-5
383.447	1	-1
384.643	1	-3
385.839	1	0
387.035	1	3
388.230	1	8
389.426	1	-2
390.622	1	-4
391.817	1	-1
393.013	1	8
394.208	1	0
395.404	1	13
396.599	1	8
397.795	1	1
398.990	1	20
400.186	1	2
401.381	1	0
402.576	1	0
403.771	1	-12
404.967	1	-2
406.162	1	-6
407.357	1	12
408.552	1	3
409.747	1	3
410.942	1	12
412.137	1	2
413.332	1	13
414.526	1	1
415.721	1	2
416.916	1	0
418.111	1	9
419.305	1	7
420.500	1	5
421.695	1	9
422.889	1	11
424.084	1	12
425.278	1	10
426.472	1	9
427.667	1	14
428.861	1	4
430.055	1	11
431.250	1	4
432.444	1	2
433.638	1	12
434.832	1	-6
436.026	1	0
437.220	1	4
438.414	1	4
439.608	1	1
440.802	1	-5
441.996	1	1
443.190	1	5
444.384	1	3
445.578	1	-2
446.771	1	6
447.965	1	7
449.159	1	4
450.352	1	-2
451.546	1	0
452.739	1	9
453.933	1	4
455.126	1	6
456.320	1	1
457.513	1	1
458.706	1	10
459.899	1	-4
461.093	1	15
462.286	1	-2
463.479	1	-8
464.672	1	4
465.865	1	7
467.058	1	14
468.251	1	6
469.444	1	11
470.637	1	2
471.830	1	4
473.023	1	-5
474.215	1	-2
475.408	1	1
476.601	1	1
477.793	1	10
478.986	1	10
480.179	1	-2
481.371	1	-3
482.564	1	16
483.756	1	6
484.948	1	-2
486.141	1	3
487.333	1	-2
488.525	1	-4
489.718	1	-9
490.910	1	11
492.102	1	5
493.294	1	-2
494.486	1	-3
495.678	1	2
496.870	1	7
498.062	1	2
499.254	1	-2
500.446	1	-1
501.638	1	1
502.829	1	-3
504.021	1	-2
505.213	1	-1
506.404	1	4
507.596	1	8
508.788	1	3
509.979	1	-3
511.171	1	8
512.362	1	16
513.553	1	2
514.745	1	-1
515.936	1	1
517.127	1	11
518.319	1	7
519.510	1	4
520.701	1	9
521.892	1	4
523.083	1	4
524.274	1	1
525.465	1	16
526.656	1	13
527.847	1	-4
529.038	1	5
530.229	1	9
531.419	1	7
532.610	1	17
533.801	1	9
534.991	1	-1
536.182	1	-1
537.373	1	11
538.563	1	4
539.754	1	0
540.944	1	7
542.134	1	9
543.325	1	3
544.515	1	1
545.705	1	6
546.896	1	2
548.086	1	6
549.276	1	9
550.466	1	3
551.656	1	3
552.846	1	11
554.036	1	6
555.226	1	5
556.416	1	10
557.606	1	-10
558.796	1	9
559.986	1	12
561.175	1	-3
562.365	1	0
563.555	1	6
564.744	1	10
565.934	1	13
567.123	1	0
568.313	1	6
569.502	1	12
570.692	1	5
571.881	1	-1
573.070	1	8
574.260	1	9
575.449	1	3
576.638	1	6
577.827	1	5
579.016	1	2
580.205	1	4
581.394	1	-1
582.583	1	5
583.772	1	10
584.961	1	-5
586.150	1	9
587.339	1	2
588.528	1	-1
589.717	1	0
590.905	1	0
592.094	1	-3
593.283	1	8
594.471	1	-6
595.660	1	6
596.848	1	7
598.037	1	2
599.225	1	5
600.413	1	3
601.602	1	0
602.790	1	-4
603.978	1	-2
605.166	1	-3
606.355	1	-12
607.543	1	5
608.731	1	-2
609.919	1	0
611.107	1	18
612.295	1	3
613.483	1	2
614.671	1	3
615.858	1	-7
617.046	1	5
618.234	1	2
619.422	1	16
620.609	1	-4
621.797	1	5
622.985	1	-1
624.172	1	4
625.360	1	-3
626.547	1	-8
627.735	1	1
628.922	1	9
630.109	1	-1
631.297	1	4
632.484	1	1
633.671	1	9
634.858	1	9
636.045	1	-3
637.232	1	6
638.419	1	-3
639.606	1	4
640.793	1	-4
641.980	1	12
643.167	1	2
644.354	1	12
645.541	1	3
646.728	1	4
647.914	1	4
649.101	1	3
650.288	1	1
651.474	1	10
652.661	1	0
653.847	1	18
655.034	1	2
656.220	1	3
657.406	1	2
658.593	1	6
659.779	1	12
660.965	1	4
662.152	1	-6
663.338	1	-6
664.524	1	5
665.710	1	2
666.896	1	6
668.082	1	5
669.268	1	4
670.454	1	4
671.640	1	9
672.826	1	6
674.011	1	4
675.197	1	3
676.383	1	-3
677.569	1	10
678.754	1	5
679.940	1	-3
681.125	1	-1
682.311	1	10
683.496	1	3
684.682	1	4
685.867	1	8
687.053	1	13
688.238	1	12
688.746	1	9

File: GaN_sample D_spot15_UVVIS_150 K_200um_450 ms 2x2mm1_215.txt
340.368	1	0
341.565	1	17
342.763	1	1
343.960	1	7
345.157	1	8
346.354	1	5
347.552	1	19
348.749	1	14
349.946	1	4
351.143	1	5
352.340	1	11
353.537	1	3
354.734	1	12
355.931	1	12
357.127	1	9
358.324	1	4
359.521	1	10
360.718	1	12
361.914	1	8
363.111	1	11
364.308	1	6
365.504	1	6
366.701	1	12
367.897	1	18
369.093	1	30
370.290	1	23
371.486	1	22
372.682	1	28
373.879	1	3
375.075	1	8
376.271	1	3
377.467	1	18
378.663	1	3
379.859	1	8
381.055	1	3
382.251	1	3
383.447	1	5
384.643	1	-6
385.839	1	-1
387.035	1	10
388.230	1	5
389.426	1	-2
390.622	1	-4
391.817	1	-1
393.013	1	2
394.208	1	0
395.404	1	12
396.599	1	9
397.795	1	3
398.990	1	12
400.186	1	6
401.381	1	1
402.576	1	12
403.771	1	2
404.967	1	1
406.162	1	-5
407.357	1	7
408.552	1	2
409.747	1	9
410.942	1	9
412.137	1	4
413.332	1	4
414.526	1	4
415.721	1	1
416.916	1	1
418.111	1	8
419.305	1	11
420.500	1	10
421.695	1	6
422.889	1	5
424.084	1	-1
425.278	1	3
426.472	1	11
427.667	1	-5
428.861	1	10
430.055	1	9
431.250	1	7
432.444	1	11
433.638	1	13
434.832	1	-1
436.026	1	0
437.220	1	3
438.414	1	7
439.608	1	5
440.802	1	8
441.996	1	8
443.190	1	14
444.384	1	6
445.578	1	3
446.771	1	7
447.965	1	1
449.159	1	8
450.352	1	-2
451.546	1	4
452.739	1	5
453.933	1	9
455.126	1	5
456.320	1	12
457.513	1	-8
458.706	1	6
459.899	1	-3
461.093	1	6
462.286	1	-2
463.479	1	4
464.672	1	0
465.865	1	3
467.058	1	2
468.251	1	-14
469.444	1	1
470.637	1	-6
471.830	1	5
473.023	1	3
474.215	1	6
475.408	1	5
476.601	1	10
477.793	1	2
478.986	1	6
480.179	1	12
481.371	1	-2
482.564	1	7
483.756	1	2
484.948	1	1
486.141	1	4
487.333	1	-3
488.525	1	-12
489.718	1	5
490.910	1	8
492.102	1	-3
493.294	1	-2
494.486	1	0
495.678	1	-1
496.870	1	1
498.062	1	-1
499.254	1	0
500.446	1	-5
501.638	1	6
502.829	1	-7
504.021	1	6
505.213	1	8
506.404	1	13
507.596	1	14
508.788	1	5
509.979	1	-1
511.171	1	5
512.362	1	9
513.553	1	15
514.745	1	8
515.936	1	-1
517.127	1	-1
518.319	1	2
519.510	1	4
520.701	1	11
521.892	1	7
523.083	1	2
524.274	1	0
525.465	1	15
526.656	1	2
527.847	1	-6
529.038	1	7
530.229	1	14
531.419	1	12
532.610	1	8
533.801	1	0
534.991	1	-2
536.182	1	7
537.373	1	4
538.563	1	-4
539.754	1	5
540.944	1	8
542.134	1	10
543.325	1	7
544.515	1	9
545.705	1	0
546.896	1	12
548.086	1	-4
549.276	1	12
550.466	1	3
551.656	1	4
552.846	1	5
554.036	1	8
555.226	1	7
556.416	1	14
557.606	1	-5
558.796	1	13
559.986	1	10
561.175	1	8
562.365	1	0
563.555	1	4
564.744	1	6
565.934	1	7
567.123	1	1
568.313	1	4
569.502	1	0
570.692	1	8
571.881	1	6
573.070	1	7
574.260	1	4
575.449	1	-3
576.638	1	16
577.827	1	1
579.016	1	-1
580.205	1	2
581.394	1	8
582.583	1	7
583.772	1	10
584.961	1	-9
586.150	1	10
587.339	1	2
588.528	1	2
589.717	1	3
590.905	1	-10
592.094	1	5
593.283	1	3
594.471	1	-7
595.660	1	10
596.848	1	13
598.037	1	5
599.225	1	4
600.413	1	1
601.602	1	8
602.790	1	8
603.978	1	3
605.166	1	7
606.355	1	-12
607.543	1	11
608.731	1	-5
609.919	1	-7
611.107	1	12
612.295	1	15
613.483	1	7
614.671	1	3
615.858	1	-1
617.046	1	2
618.234	1	-1
619.422	1	5
620.609	1	-3
621.797	1	9
622.985	1	1
624.172	1	6
625.360	1	4
626.547	1	1
627.735	1	9
628.922	1	5
630.109	1	-2
631.297	1	6
632.484	1	1
633.671	1	13
634.858	1	15
636.045	1	-8
637.232	1	6
638.419	1	-2
639.606	1	10
640.793	1	0
641.980	1	6
643.167	1	10
644.354	1	3
645.541	1	6
646.728	1	4
647.914	1	3
649.101	1	-3
650.288	1	5
651.474	1	7
652.661	1	9
653.847	1	4
655.034	1	-10
656.220	1	9
657.406	1	4
658.593	1	1
659.779	1	1
660.965	1	5
662.152	1	5
663.338	1	-2
664.524	1	9
665.710	1	0
666.896	1	-2
668.082	1	2
669.268	1	-1
670.454	1	3
671.640	1	6
672.826	1	3
674.011	1	9
675.197	1	6
676.383	1	-4
677.569	1	16
678.754	1	-1
679.940	1	-4
681.125	1	2
682.311	1	7
683.496	1	1
684.682	1	16
685.867	1	7
687.053	1	20
688.238	1	3
688.746	1	-2