Folder: cryo-il_analysis/Data/GaN_200K_800ms (part 34)

File: GaN_sample F_spot 12_UVVIS_200 K_200um_800 ms 2x2mm1_352.txt
340.368	1	-3
341.565	1	-8
342.763	1	2
343.960	1	5
345.157	1	-9
346.354	1	-2
347.552	1	3
348.749	1	-17
349.946	1	-3
351.143	1	6
352.340	1	3
353.537	1	-5
354.734	1	8
355.931	1	-8
357.127	1	-3
358.324	1	-14
359.521	1	1
360.718	1	0
361.914	1	1
363.111	1	6
364.308	1	14
365.504	1	6
366.701	1	7
367.897	1	10
369.093	1	6
370.290	1	11
371.486	1	22
372.682	1	17
373.879	1	7
375.075	1	11
376.271	1	11
377.467	1	13
378.663	1	-3
379.859	1	3
381.055	1	16
382.251	1	-11
383.447	1	-2
384.643	1	16
385.839	1	2
387.035	1	3
388.230	1	6
389.426	1	1
390.622	1	1
391.817	1	-2
393.013	1	-3
394.208	1	-3
395.404	1	-13
396.599	1	-4
397.795	1	6
398.990	1	3
400.186	1	-1
401.381	1	2
402.576	1	-1
403.771	1	4
404.967	1	11
406.162	1	-1
407.357	1	-4
408.552	1	-4
409.747	1	0
410.942	1	11
412.137	1	0
413.332	1	-6
414.526	1	-7
415.721	1	-3
416.916	1	-10
418.111	1	0
419.305	1	-3
420.500	1	-5
421.695	1	-5
422.889	1	-2
424.084	1	3
425.278	1	1
426.472	1	10
427.667	1	-1
428.861	1	-2
430.055	1	0
431.250	1	0
432.444	1	3
433.638	1	-13
434.832	1	7
436.026	1	8
437.220	1	2
438.414	1	-5
439.608	1	-9
440.802	1	-5
441.996	1	1
443.190	1	-4
444.384	1	-6
445.578	1	-10
446.771	1	2
447.965	1	-4
449.159	1	-8
450.352	1	-9
451.546	1	-7
452.739	1	2
453.933	1	0
455.126	1	-2
456.320	1	2
457.513	1	14
458.706	1	0
459.899	1	-2
461.093	1	-6
462.286	1	-3
463.479	1	-8
464.672	1	6
465.865	1	3
467.058	1	2
468.251	1	2
469.444	1	-12
470.637	1	-8
471.830	1	-5
473.023	1	2
474.215	1	17
475.408	1	0
476.601	1	6
477.793	1	-2
478.986	1	2
480.179	1	-4
481.371	1	1
482.564	1	-6
483.756	1	13
484.948	1	0
486.141	1	-9
487.333	1	6
488.525	1	1
489.718	1	-2
490.910	1	-2
492.102	1	-2
493.294	1	4
494.486	1	7
495.678	1	0
496.870	1	4
498.062	1	0
499.254	1	4
500.446	1	-14
501.638	1	-8
502.829	1	2
504.021	1	1
505.213	1	4
506.404	1	-1
507.596	1	-2
508.788	1	8
509.979	1	0
511.171	1	-6
512.362	1	-14
513.553	1	-13
514.745	1	0
515.936	1	-4
517.127	1	3
518.319	1	-3
519.510	1	0
520.701	1	3
521.892	1	3
523.083	1	-2
524.274	1	2
525.465	1	8
526.656	1	-6
527.847	1	3
529.038	1	-1
530.229	1	-2
531.419	1	11
532.610	1	-2
533.801	1	11
534.991	1	-3
536.182	1	2
537.373	1	4
538.563	1	3
539.754	1	7
540.944	1	-11
542.134	1	9
543.325	1	0
544.515	1	-11
545.705	1	6
546.896	1	-5
548.086	1	-1
549.276	1	-8
550.466	1	4
551.656	1	0
552.846	1	-2
554.036	1	2
555.226	1	-12
556.416	1	-8
557.606	1	2
558.796	1	-10
559.986	1	0
561.175	1	3
562.365	1	2
563.555	1	-11
564.744	1	3
565.934	1	1
567.123	1	4
568.313	1	4
569.502	1	-6
570.692	1	6
571.881	1	12
573.070	1	0
574.260	1	2
575.449	1	-2
576.638	1	-7
577.827	1	-5
579.016	1	8
580.205	1	-2
581.394	1	-4
582.583	1	6
583.772	1	10
584.961	1	6
586.150	1	3
587.339	1	-3
588.528	1	2
589.717	1	-3
590.905	1	6
592.094	1	-1
593.283	1	-3
594.471	1	2
595.660	1	-3
596.848	1	-4
598.037	1	3
599.225	1	-3
600.413	1	10
601.602	1	10
602.790	1	6
603.978	1	3
605.166	1	4
606.355	1	0
607.543	1	-11
608.731	1	-4
609.919	1	7
611.107	1	2
612.295	1	-3
613.483	1	7
614.671	1	6
615.858	1	2
617.046	1	5
618.234	1	-1
619.422	1	-10
620.609	1	-1
621.797	1	-7
622.985	1	4
624.172	1	2
625.360	1	3
626.547	1	4
627.735	1	2
628.922	1	-2
630.109	1	-11
631.297	1	-4
632.484	1	-2
633.671	1	-3
634.858	1	-7
636.045	1	12
637.232	1	-2
638.419	1	-9
639.606	1	8
640.793	1	7
641.980	1	3
643.167	1	-4
644.354	1	4
645.541	1	-2
646.728	1	4
647.914	1	-12
649.101	1	3
650.288	1	9
651.474	1	-2
652.661	1	-9
653.847	1	3
655.034	1	12
656.220	1	-4
657.406	1	1
658.593	1	-1
659.779	1	2
660.965	1	7
662.152	1	3
663.338	1	0
664.524	1	2
665.710	1	5
666.896	1	0
668.082	1	-2
669.268	1	-1
670.454	1	14
671.640	1	0
672.826	1	2
674.011	1	-3
675.197	1	-10
676.383	1	6
677.569	1	-1
678.754	1	-6
679.940	1	1
681.125	1	1
682.311	1	-2
683.496	1	6
684.682	1	-3
685.867	1	-4
687.053	1	-2
688.238	1	6
688.746	1	-3

File: GaN_sample F_spot 12_UVVIS_200 K_200um_800 ms 2x2mm1_353.txt
340.368	1	-4
341.565	1	-1
342.763	1	8
343.960	1	-3
345.157	1	-6
346.354	1	0
347.552	1	-2
348.749	1	-5
349.946	1	-11
351.143	1	-10
352.340	1	5
353.537	1	1
354.734	1	7
355.931	1	-4
357.127	1	0
358.324	1	3
359.521	1	11
360.718	1	1
361.914	1	5
363.111	1	4
364.308	1	2
365.504	1	14
366.701	1	8
367.897	1	17
369.093	1	5
370.290	1	14
371.486	1	17
372.682	1	18
373.879	1	10
375.075	1	1
376.271	1	10
377.467	1	4
378.663	1	2
379.859	1	-11
381.055	1	7
382.251	1	7
383.447	1	0
384.643	1	9
385.839	1	-1
387.035	1	-5
388.230	1	0
389.426	1	-1
390.622	1	-4
391.817	1	-1
393.013	1	-9
394.208	1	4
395.404	1	-10
396.599	1	4
397.795	1	4
398.990	1	-1
400.186	1	-8
401.381	1	-9
402.576	1	-9
403.771	1	4
404.967	1	6
406.162	1	6
407.357	1	-5
408.552	1	-7
409.747	1	-1
410.942	1	6
412.137	1	7
413.332	1	2
414.526	1	1
415.721	1	-1
416.916	1	-3
418.111	1	11
419.305	1	1
420.500	1	-13
421.695	1	-10
422.889	1	-11
424.084	1	-1
425.278	1	12
426.472	1	3
427.667	1	0
428.861	1	-7
430.055	1	3
431.250	1	-3
432.444	1	4
433.638	1	-7
434.832	1	-3
436.026	1	3
437.220	1	-2
438.414	1	-6
439.608	1	-9
440.802	1	-2
441.996	1	6
443.190	1	-1
444.384	1	-2
445.578	1	-6
446.771	1	5
447.965	1	-6
449.159	1	-6
450.352	1	3
451.546	1	4
452.739	1	0
453.933	1	-7
455.126	1	-2
456.320	1	-3
457.513	1	3
458.706	1	4
459.899	1	-7
461.093	1	4
462.286	1	0
463.479	1	1
464.672	1	-5
465.865	1	-3
467.058	1	-1
468.251	1	-2
469.444	1	-9
470.637	1	2
471.830	1	-8
473.023	1	5
474.215	1	2
475.408	1	-6
476.601	1	-4
477.793	1	-4
478.986	1	-7
480.179	1	3
481.371	1	4
482.564	1	11
483.756	1	2
484.948	1	-7
486.141	1	-1
487.333	1	3
488.525	1	6
489.718	1	0
490.910	1	3
492.102	1	-3
493.294	1	1
494.486	1	7
495.678	1	-3
496.870	1	3
498.062	1	-9
499.254	1	6
500.446	1	-7
501.638	1	-12
502.829	1	-5
504.021	1	7
505.213	1	4
506.404	1	4
507.596	1	0
508.788	1	16
509.979	1	-4
511.171	1	-2
512.362	1	-4
513.553	1	-6
514.745	1	-3
515.936	1	1
517.127	1	-7
518.319	1	7
519.510	1	-1
520.701	1	-1
521.892	1	3
523.083	1	-2
524.274	1	6
525.465	1	13
526.656	1	4
527.847	1	6
529.038	1	0
530.229	1	-4
531.419	1	0
532.610	1	-5
533.801	1	14
534.991	1	7
536.182	1	-1
537.373	1	9
538.563	1	-4
539.754	1	1
540.944	1	-5
542.134	1	-2
543.325	1	0
544.515	1	1
545.705	1	5
546.896	1	0
548.086	1	7
549.276	1	-5
550.466	1	-3
551.656	1	11
552.846	1	1
554.036	1	-5
555.226	1	-15
556.416	1	-5
557.606	1	4
558.796	1	-9
559.986	1	0
561.175	1	4
562.365	1	12
563.555	1	-2
564.744	1	-1
565.934	1	6
567.123	1	1
568.313	1	4
569.502	1	-8
570.692	1	-1
571.881	1	5
573.070	1	-1
574.260	1	14
575.449	1	1
576.638	1	-2
577.827	1	1
579.016	1	6
580.205	1	-8
581.394	1	-6
582.583	1	1
583.772	1	8
584.961	1	1
586.150	1	-2
587.339	1	10
588.528	1	5
589.717	1	-3
590.905	1	3
592.094	1	2
593.283	1	4
594.471	1	14
595.660	1	-6
596.848	1	7
598.037	1	-1
599.225	1	-3
600.413	1	8
601.602	1	10
602.790	1	-2
603.978	1	0
605.166	1	-3
606.355	1	9
607.543	1	2
608.731	1	8
609.919	1	7
611.107	1	3
612.295	1	-11
613.483	1	6
614.671	1	-2
615.858	1	2
617.046	1	0
618.234	1	-1
619.422	1	-10
620.609	1	2
621.797	1	-1
622.985	1	1
624.172	1	2
625.360	1	-3
626.547	1	2
627.735	1	-1
628.922	1	2
630.109	1	-19
631.297	1	-5
632.484	1	-4
633.671	1	-9
634.858	1	2
636.045	1	4
637.232	1	-6
638.419	1	1
639.606	1	2
640.793	1	11
641.980	1	-3
643.167	1	0
644.354	1	-2
645.541	1	2
646.728	1	0
647.914	1	-4
649.101	1	-9
650.288	1	4
651.474	1	-8
652.661	1	0
653.847	1	6
655.034	1	-10
656.220	1	-8
657.406	1	-1
658.593	1	8
659.779	1	3
660.965	1	6
662.152	1	3
663.338	1	9
664.524	1	4
665.710	1	1
666.896	1	-4
668.082	1	-2
669.268	1	-4
670.454	1	1
671.640	1	0
672.826	1	-2
674.011	1	4
675.197	1	-6
676.383	1	0
677.569	1	-3
678.754	1	-6
679.940	1	-1
681.125	1	6
682.311	1	6
683.496	1	3
684.682	1	-9
685.867	1	1
687.053	1	-3
688.238	1	1
688.746	1	3

File: GaN_sample F_spot 12_UVVIS_200 K_200um_800 ms 2x2mm1_358.txt
340.368	1	9
341.565	1	-17
342.763	1	1
343.960	1	-3
345.157	1	-2
346.354	1	-5
347.552	1	-9
348.749	1	-6
349.946	1	3
351.143	1	4
352.340	1	6
353.537	1	-2
354.734	1	9
355.931	1	-10
357.127	1	-2
358.324	1	-4
359.521	1	4
360.718	1	-1
361.914	1	-1
363.111	1	1
364.308	1	3
365.504	1	11
366.701	1	9
367.897	1	10
369.093	1	7
370.290	1	3
371.486	1	15
372.682	1	20
373.879	1	0
375.075	1	7
376.271	1	11
377.467	1	6
378.663	1	-3
379.859	1	-2
381.055	1	3
382.251	1	-3
383.447	1	1
384.643	1	9
385.839	1	10
387.035	1	-4
388.230	1	9
389.426	1	0
390.622	1	-3
391.817	1	-3
393.013	1	-6
394.208	1	-2
395.404	1	1
396.599	1	-4
397.795	1	-6
398.990	1	1
400.186	1	2
401.381	1	-4
402.576	1	-9
403.771	1	6
404.967	1	6
406.162	1	5
407.357	1	-12
408.552	1	4
409.747	1	-4
410.942	1	-1
412.137	1	7
413.332	1	7
414.526	1	-1
415.721	1	1
416.916	1	-3
418.111	1	2
419.305	1	5
420.500	1	-13
421.695	1	-5
422.889	1	-7
424.084	1	3
425.278	1	10
426.472	1	-6
427.667	1	5
428.861	1	-7
430.055	1	-1
431.250	1	4
432.444	1	0
433.638	1	-7
434.832	1	-4
436.026	1	3
437.220	1	6
438.414	1	-4
439.608	1	-4
440.802	1	-4
441.996	1	1
443.190	1	2
444.384	1	-1
445.578	1	-9
446.771	1	16
447.965	1	-1
449.159	1	-2
450.352	1	-8
451.546	1	-4
452.739	1	-6
453.933	1	-2
455.126	1	-10
456.320	1	-11
457.513	1	2
458.706	1	4
459.899	1	6
461.093	1	1
462.286	1	2
463.479	1	-6
464.672	1	0
465.865	1	2
467.058	1	0
468.251	1	0
469.444	1	-3
470.637	1	-9
471.830	1	-6
473.023	1	8
474.215	1	12
475.408	1	-6
476.601	1	0
477.793	1	-3
478.986	1	-5
480.179	1	3
481.371	1	9
482.564	1	-5
483.756	1	9
484.948	1	-4
486.141	1	-2
487.333	1	-5
488.525	1	-4
489.718	1	1
490.910	1	-3
492.102	1	-5
493.294	1	-2
494.486	1	3
495.678	1	1
496.870	1	5
498.062	1	-2
499.254	1	-3
500.446	1	-9
501.638	1	-8
502.829	1	1
504.021	1	4
505.213	1	10
506.404	1	12
507.596	1	7
508.788	1	8
509.979	1	-7
511.171	1	-6
512.362	1	-5
513.553	1	-9
514.745	1	-9
515.936	1	-8
517.127	1	-4
518.319	1	2
519.510	1	3
520.701	1	-2
521.892	1	7
523.083	1	-1
524.274	1	0
525.465	1	4
526.656	1	-5
527.847	1	2
529.038	1	0
530.229	1	7
531.419	1	4
532.610	1	-12
533.801	1	4
534.991	1	3
536.182	1	-1
537.373	1	3
538.563	1	8
539.754	1	7
540.944	1	-3
542.134	1	2
543.325	1	-4
544.515	1	-5
545.705	1	4
546.896	1	-12
548.086	1	3
549.276	1	-10
550.466	1	0
551.656	1	1
552.846	1	1
554.036	1	0
555.226	1	-11
556.416	1	-5
557.606	1	3
558.796	1	4
559.986	1	-7
561.175	1	0
562.365	1	1
563.555	1	-1
564.744	1	-2
565.934	1	1
567.123	1	7
568.313	1	8
569.502	1	-3
570.692	1	-5
571.881	1	5
573.070	1	-1
574.260	1	5
575.449	1	-4
576.638	1	-3
577.827	1	-3
579.016	1	13
580.205	1	-3
581.394	1	-9
582.583	1	15
583.772	1	4
584.961	1	4
586.150	1	-4
587.339	1	-5
588.528	1	-6
589.717	1	-7
590.905	1	1
592.094	1	-3
593.283	1	3
594.471	1	6
595.660	1	-3
596.848	1	-1
598.037	1	5
599.225	1	-11
600.413	1	6
601.602	1	13
602.790	1	6
603.978	1	5
605.166	1	6
606.355	1	-10
607.543	1	-2
608.731	1	1
609.919	1	3
611.107	1	-1
612.295	1	-5
613.483	1	-6
614.671	1	1
615.858	1	4
617.046	1	7
618.234	1	2
619.422	1	-5
620.609	1	5
621.797	1	1
622.985	1	-3
624.172	1	-4
625.360	1	-4
626.547	1	3
627.735	1	10
628.922	1	-5
630.109	1	-12
631.297	1	-11
632.484	1	-8
633.671	1	-4
634.858	1	-2
636.045	1	16
637.232	1	-12
638.419	1	8
639.606	1	4
640.793	1	7
641.980	1	0
643.167	1	-2
644.354	1	-7
645.541	1	1
646.728	1	0
647.914	1	-1
649.101	1	-7
650.288	1	11
651.474	1	6
652.661	1	-9
653.847	1	3
655.034	1	5
656.220	1	-11
657.406	1	-1
658.593	1	4
659.779	1	0
660.965	1	8
662.152	1	7
663.338	1	0
664.524	1	-1
665.710	1	0
666.896	1	1
668.082	1	-1
669.268	1	-3
670.454	1	3
671.640	1	1
672.826	1	-1
674.011	1	-6
675.197	1	1
676.383	1	-8
677.569	1	2
678.754	1	-9
679.940	1	-5
681.125	1	2
682.311	1	6
683.496	1	2
684.682	1	-3
685.867	1	-2
687.053	1	-2
688.238	1	-3
688.746	1	2

File: GaN_sample F_spot 12_UVVIS_200 K_200um_800 ms 2x2mm1_362.txt
340.368	1	-1
341.565	1	0
342.763	1	2
343.960	1	5
345.157	1	-8
346.354	1	1
347.552	1	-8
348.749	1	-8
349.946	1	-8
351.143	1	1
352.340	1	8
353.537	1	0
354.734	1	-1
355.931	1	0
357.127	1	-1
358.324	1	-6
359.521	1	4
360.718	1	4
361.914	1	3
363.111	1	1
364.308	1	4
365.504	1	15
366.701	1	17
367.897	1	13
369.093	1	4
370.290	1	8
371.486	1	18
372.682	1	12
373.879	1	5
375.075	1	4
376.271	1	8
377.467	1	1
378.663	1	7
379.859	1	4
381.055	1	10
382.251	1	1
383.447	1	-3
384.643	1	12
385.839	1	0
387.035	1	-1
388.230	1	7
389.426	1	-3
390.622	1	-6
391.817	1	0
393.013	1	4
394.208	1	6
395.404	1	-4
396.599	1	-6
397.795	1	1
398.990	1	-2
400.186	1	1
401.381	1	-10
402.576	1	-10
403.771	1	2
404.967	1	8
406.162	1	3
407.357	1	-4
408.552	1	2
409.747	1	3
410.942	1	2
412.137	1	7
413.332	1	7
414.526	1	0
415.721	1	4
416.916	1	-9
418.111	1	5
419.305	1	0
420.500	1	-4
421.695	1	-5
422.889	1	-6
424.084	1	-1
425.278	1	8
426.472	1	-2
427.667	1	9
428.861	1	1
430.055	1	0
431.250	1	-5
432.444	1	-5
433.638	1	-10
434.832	1	4
436.026	1	5
437.220	1	2
438.414	1	-16
439.608	1	-14
440.802	1	-1
441.996	1	0
443.190	1	-9
444.384	1	4
445.578	1	-7
446.771	1	16
447.965	1	3
449.159	1	-10
450.352	1	-10
451.546	1	-5
452.739	1	3
453.933	1	-12
455.126	1	-4
456.320	1	-5
457.513	1	5
458.706	1	0
459.899	1	-3
461.093	1	-1
462.286	1	-3
463.479	1	-3
464.672	1	-6
465.865	1	-6
467.058	1	3
468.251	1	-3
469.444	1	-4
470.637	1	-3
471.830	1	-3
473.023	1	-1
474.215	1	5
475.408	1	3
476.601	1	-7
477.793	1	-6
478.986	1	-2
480.179	1	6
481.371	1	0
482.564	1	1
483.756	1	0
484.948	1	0
486.141	1	-4
487.333	1	2
488.525	1	6
489.718	1	2
490.910	1	-6
492.102	1	-2
493.294	1	-7
494.486	1	1
495.678	1	10
496.870	1	5
498.062	1	-2
499.254	1	-3
500.446	1	-8
501.638	1	-4
502.829	1	0
504.021	1	1
505.213	1	12
506.404	1	-1
507.596	1	11
508.788	1	9
509.979	1	-1
511.171	1	-1
512.362	1	-8
513.553	1	-1
514.745	1	-3
515.936	1	-9
517.127	1	-4
518.319	1	-1
519.510	1	3
520.701	1	5
521.892	1	6
523.083	1	-4
524.274	1	4
525.465	1	10
526.656	1	2
527.847	1	4
529.038	1	4
530.229	1	1
531.419	1	12
532.610	1	0
533.801	1	4
534.991	1	1
536.182	1	-1
537.373	1	-4
538.563	1	5
539.754	1	5
540.944	1	-2
542.134	1	-5
543.325	1	-2
544.515	1	-9
545.705	1	0
546.896	1	1
548.086	1	4
549.276	1	2
550.466	1	2
551.656	1	6
552.846	1	5
554.036	1	-8
555.226	1	-13
556.416	1	1
557.606	1	2
558.796	1	0
559.986	1	2
561.175	1	1
562.365	1	2
563.555	1	1
564.744	1	9
565.934	1	15
567.123	1	4
568.313	1	7
569.502	1	0
570.692	1	3
571.881	1	12
573.070	1	-5
574.260	1	10
575.449	1	4
576.638	1	-9
577.827	1	-6
579.016	1	4
580.205	1	-5
581.394	1	1
582.583	1	13
583.772	1	2
584.961	1	3
586.150	1	-1
587.339	1	11
588.528	1	7
589.717	1	-1
590.905	1	5
592.094	1	-1
593.283	1	9
594.471	1	15
595.660	1	-1
596.848	1	1
598.037	1	3
599.225	1	-6
600.413	1	11
601.602	1	13
602.790	1	1
603.978	1	-5
605.166	1	5
606.355	1	5
607.543	1	1
608.731	1	5
609.919	1	7
611.107	1	-4
612.295	1	-7
613.483	1	-1
614.671	1	7
615.858	1	9
617.046	1	9
618.234	1	4
619.422	1	-2
620.609	1	2
621.797	1	-3
622.985	1	3
624.172	1	-2
625.360	1	2
626.547	1	1
627.735	1	1
628.922	1	2
630.109	1	-4
631.297	1	5
632.484	1	-2
633.671	1	-7
634.858	1	-2
636.045	1	8
637.232	1	0
638.419	1	-3
639.606	1	2
640.793	1	1
641.980	1	6
643.167	1	-10
644.354	1	0
645.541	1	-5
646.728	1	3
647.914	1	-6
649.101	1	4
650.288	1	-6
651.474	1	-10
652.661	1	-2
653.847	1	6
655.034	1	4
656.220	1	1
657.406	1	4
658.593	1	14
659.779	1	7
660.965	1	8
662.152	1	4
663.338	1	6
664.524	1	-3
665.710	1	2
666.896	1	-15
668.082	1	3
669.268	1	0
670.454	1	3
671.640	1	6
672.826	1	-9
674.011	1	6
675.197	1	-8
676.383	1	5
677.569	1	-1
678.754	1	-15
679.940	1	-4
681.125	1	5
682.311	1	7
683.496	1	1
684.682	1	-7
685.867	1	-2
687.053	1	-3
688.238	1	-3
688.746	1	-2

File: GaN_sample F_spot 12_UVVIS_200 K_200um_800 ms 2x2mm1_366.txt
340.368	1	5
341.565	1	-15
342.763	1	6
343.960	1	-3
345.157	1	-5
346.354	1	3
347.552	1	-7
348.749	1	-3
349.946	1	-2
351.143	1	1
352.340	1	1
353.537	1	-5
354.734	1	5
355.931	1	-2
357.127	1	-8
358.324	1	-3
359.521	1	12
360.718	1	7
361.914	1	6
363.111	1	3
364.308	1	6
365.504	1	13
366.701	1	18
367.897	1	17
369.093	1	6
370.290	1	3
371.486	1	8
372.682	1	11
373.879	1	7
375.075	1	6
376.271	1	24
377.467	1	1
378.663	1	-5
379.859	1	-5
381.055	1	9
382.251	1	-5
383.447	1	6
384.643	1	19
385.839	1	-1
387.035	1	4
388.230	1	13
389.426	1	3
390.622	1	-6
391.817	1	-1
393.013	1	-5
394.208	1	-4
395.404	1	3
396.599	1	-3
397.795	1	-6
398.990	1	14
400.186	1	2
401.381	1	-5
402.576	1	1
403.771	1	-3
404.967	1	3
406.162	1	2
407.357	1	-6
408.552	1	-9
409.747	1	-4
410.942	1	3
412.137	1	2
413.332	1	-7
414.526	1	-4
415.721	1	-2
416.916	1	-7
418.111	1	-2
419.305	1	-4
420.500	1	5
421.695	1	-8
422.889	1	-12
424.084	1	4
425.278	1	14
426.472	1	-2
427.667	1	5
428.861	1	-3
430.055	1	1
431.250	1	-6
432.444	1	5
433.638	1	0
434.832	1	-1
436.026	1	-1
437.220	1	8
438.414	1	-10
439.608	1	-11
440.802	1	-6
441.996	1	2
443.190	1	-4
444.384	1	-11
445.578	1	-4
446.771	1	8
447.965	1	8
449.159	1	-8
450.352	1	-1
451.546	1	2
452.739	1	0
453.933	1	-8
455.126	1	0
456.320	1	-5
457.513	1	5
458.706	1	2
459.899	1	-5
461.093	1	0
462.286	1	-3
463.479	1	-3
464.672	1	0
465.865	1	-1
467.058	1	-8
468.251	1	-5
469.444	1	-9
470.637	1	-1
471.830	1	-4
473.023	1	-2
474.215	1	3
475.408	1	5
476.601	1	-5
477.793	1	-7
478.986	1	-3
480.179	1	-6
481.371	1	1
482.564	1	5
483.756	1	4
484.948	1	-5
486.141	1	1
487.333	1	4
488.525	1	-1
489.718	1	-2
490.910	1	-2
492.102	1	-4
493.294	1	1
494.486	1	5
495.678	1	-3
496.870	1	-1
498.062	1	2
499.254	1	-2
500.446	1	-12
501.638	1	-12
502.829	1	-7
504.021	1	-4
505.213	1	8
506.404	1	0
507.596	1	-4
508.788	1	17
509.979	1	-1
511.171	1	-3
512.362	1	-3
513.553	1	-8
514.745	1	-3
515.936	1	0
517.127	1	-5
518.319	1	-1
519.510	1	4
520.701	1	-4
521.892	1	1
523.083	1	0
524.274	1	0
525.465	1	6
526.656	1	1
527.847	1	5
529.038	1	4
530.229	1	-1
531.419	1	-1
532.610	1	-9
533.801	1	6
534.991	1	-1
536.182	1	5
537.373	1	-1
538.563	1	5
539.754	1	5
540.944	1	-5
542.134	1	7
543.325	1	-2
544.515	1	5
545.705	1	2
546.896	1	3
548.086	1	-6
549.276	1	-2
550.466	1	3
551.656	1	2
552.846	1	1
554.036	1	1
555.226	1	-14
556.416	1	-2
557.606	1	7
558.796	1	3
559.986	1	-3
561.175	1	0
562.365	1	3
563.555	1	-3
564.744	1	-3
565.934	1	5
567.123	1	3
568.313	1	11
569.502	1	-2
570.692	1	4
571.881	1	15
573.070	1	0
574.260	1	8
575.449	1	3
576.638	1	-5
577.827	1	-5
579.016	1	7
580.205	1	-6
581.394	1	0
582.583	1	5
583.772	1	9
584.961	1	-2
586.150	1	-6
587.339	1	2
588.528	1	1
589.717	1	6
590.905	1	3
592.094	1	-2
593.283	1	-5
594.471	1	9
595.660	1	7
596.848	1	-3
598.037	1	-5
599.225	1	-7
600.413	1	4
601.602	1	7
602.790	1	-3
603.978	1	-4
605.166	1	-1
606.355	1	0
607.543	1	4
608.731	1	-8
609.919	1	7
611.107	1	-4
612.295	1	-10
613.483	1	10
614.671	1	2
615.858	1	5
617.046	1	4
618.234	1	-11
619.422	1	-7
620.609	1	8
621.797	1	-4
622.985	1	2
624.172	1	3
625.360	1	-6
626.547	1	5
627.735	1	-2
628.922	1	8
630.109	1	-6
631.297	1	-4
632.484	1	-2
633.671	1	-8
634.858	1	-3
636.045	1	0
637.232	1	-5
638.419	1	-4
639.606	1	-6
640.793	1	6
641.980	1	5
643.167	1	4
644.354	1	-5
645.541	1	4
646.728	1	-5
647.914	1	1
649.101	1	-8
650.288	1	1
651.474	1	-1
652.661	1	-8
653.847	1	8
655.034	1	-2
656.220	1	2
657.406	1	2
658.593	1	5
659.779	1	1
660.965	1	10
662.152	1	1
663.338	1	10
664.524	1	6
665.710	1	-2
666.896	1	-8
668.082	1	8
669.268	1	-1
670.454	1	3
671.640	1	7
672.826	1	-4
674.011	1	-5
675.197	1	-9
676.383	1	-1
677.569	1	-1
678.754	1	-7
679.940	1	-6
681.125	1	-1
682.311	1	6
683.496	1	11
684.682	1	-12
685.867	1	-3
687.053	1	4
688.238	1	5
688.746	1	-2

File: GaN_sample F_spot 12_UVVIS_200 K_200um_800 ms 2x2mm1_367.txt
340.368	1	11
341.565	1	-7
342.763	1	0
343.960	1	-10
345.157	1	-7
346.354	1	-8
347.552	1	-2
348.749	1	-3
349.946	1	-9
351.143	1	-1
352.340	1	-5
353.537	1	-1
354.734	1	3
355.931	1	-4
357.127	1	-3
358.324	1	-1
359.521	1	3
360.718	1	9
361.914	1	-2
363.111	1	6
364.308	1	6
365.504	1	10
366.701	1	23
367.897	1	9
369.093	1	6
370.290	1	16
371.486	1	5
372.682	1	16
373.879	1	6
375.075	1	0
376.271	1	7
377.467	1	6
378.663	1	3
379.859	1	6
381.055	1	10
382.251	1	6
383.447	1	-3
384.643	1	8
385.839	1	1
387.035	1	4
388.230	1	16
389.426	1	-1
390.622	1	-8
391.817	1	7
393.013	1	-6
394.208	1	2
395.404	1	-6
396.599	1	-3
397.795	1	-3
398.990	1	7
400.186	1	1
401.381	1	0
402.576	1	2
403.771	1	6
404.967	1	0
406.162	1	10
407.357	1	-5
408.552	1	-6
409.747	1	-5
410.942	1	6
412.137	1	4
413.332	1	2
414.526	1	4
415.721	1	7
416.916	1	-7
418.111	1	-7
419.305	1	3
420.500	1	-3
421.695	1	3
422.889	1	-12
424.084	1	-1
425.278	1	9
426.472	1	6
427.667	1	9
428.861	1	-8
430.055	1	11
431.250	1	-6
432.444	1	5
433.638	1	-2
434.832	1	4
436.026	1	5
437.220	1	4
438.414	1	-14
439.608	1	-16
440.802	1	-6
441.996	1	3
443.190	1	-5
444.384	1	-8
445.578	1	-15
446.771	1	13
447.965	1	-5
449.159	1	-5
450.352	1	-2
451.546	1	3
452.739	1	1
453.933	1	-2
455.126	1	-3
456.320	1	-6
457.513	1	9
458.706	1	-1
459.899	1	-1
461.093	1	3
462.286	1	-1
463.479	1	-10
464.672	1	-4
465.865	1	1
467.058	1	-4
468.251	1	-7
469.444	1	-5
470.637	1	2
471.830	1	-5
473.023	1	-5
474.215	1	3
475.408	1	-6
476.601	1	-4
477.793	1	-3
478.986	1	0
480.179	1	-3
481.371	1	1
482.564	1	3
483.756	1	5
484.948	1	-10
486.141	1	-1
487.333	1	6
488.525	1	1
489.718	1	4
490.910	1	0
492.102	1	-14
493.294	1	-3
494.486	1	5
495.678	1	3
496.870	1	-4
498.062	1	1
499.254	1	-3
500.446	1	-10
501.638	1	-4
502.829	1	0
504.021	1	7
505.213	1	14
506.404	1	6
507.596	1	-1
508.788	1	16
509.979	1	8
511.171	1	-10
512.362	1	2
513.553	1	-10
514.745	1	-11
515.936	1	-2
517.127	1	2
518.319	1	2
519.510	1	-3
520.701	1	-3
521.892	1	2
523.083	1	-9
524.274	1	6
525.465	1	5
526.656	1	1
527.847	1	3
529.038	1	-6
530.229	1	-1
531.419	1	4
532.610	1	-16
533.801	1	16
534.991	1	1
536.182	1	-8
537.373	1	2
538.563	1	-2
539.754	1	1
540.944	1	-9
542.134	1	2
543.325	1	4
544.515	1	-3
545.705	1	2
546.896	1	4
548.086	1	6
549.276	1	-3
550.466	1	2
551.656	1	1
552.846	1	-4
554.036	1	-3
555.226	1	-8
556.416	1	-6
557.606	1	1
558.796	1	3
559.986	1	-1
561.175	1	7
562.365	1	-2
563.555	1	-1
564.744	1	9
565.934	1	6
567.123	1	-1
568.313	1	2
569.502	1	-1
570.692	1	8
571.881	1	13
573.070	1	-4
574.260	1	8
575.449	1	-2
576.638	1	-5
577.827	1	-9
579.016	1	8
580.205	1	4
581.394	1	4
582.583	1	15
583.772	1	3
584.961	1	17
586.150	1	-2
587.339	1	6
588.528	1	10
589.717	1	7
590.905	1	5
592.094	1	-10
593.283	1	2
594.471	1	7
595.660	1	-4
596.848	1	0
598.037	1	-6
599.225	1	-5
600.413	1	19
601.602	1	10
602.790	1	6
603.978	1	-6
605.166	1	-3
606.355	1	5
607.543	1	-15
608.731	1	6
609.919	1	7
611.107	1	2
612.295	1	-3
613.483	1	-1
614.671	1	5
615.858	1	-1
617.046	1	-4
618.234	1	-7
619.422	1	-8
620.609	1	1
621.797	1	-7
622.985	1	5
624.172	1	1
625.360	1	0
626.547	1	-5
627.735	1	5
628.922	1	5
630.109	1	-12
631.297	1	1
632.484	1	-6
633.671	1	-2
634.858	1	-2
636.045	1	-1
637.232	1	1
638.419	1	10
639.606	1	5
640.793	1	5
641.980	1	-1
643.167	1	-2
644.354	1	1
645.541	1	-4
646.728	1	-10
647.914	1	-1
649.101	1	2
650.288	1	-2
651.474	1	-8
652.661	1	1
653.847	1	9
655.034	1	6
656.220	1	-3
657.406	1	5
658.593	1	-3
659.779	1	-4
660.965	1	8
662.152	1	-2
663.338	1	7
664.524	1	4
665.710	1	4
666.896	1	-2
668.082	1	-5
669.268	1	1
670.454	1	3
671.640	1	-1
672.826	1	-1
674.011	1	-4
675.197	1	-14
676.383	1	2
677.569	1	-9
678.754	1	-5
679.940	1	-5
681.125	1	0
682.311	1	5
683.496	1	-4
684.682	1	3
685.867	1	0
687.053	1	4
688.238	1	3
688.746	1	1