Folder: cryo-il_analysis/Data/GaN_200K_800ms (part 40)

File: GaN_sample F_spot 12_UVVIS_200 K_200um_800 ms 2x2mm1_471.txt
340.368	1	-1
341.565	1	-7
342.763	1	3
343.960	1	-2
345.157	1	-1
346.354	1	-4
347.552	1	-4
348.749	1	-9
349.946	1	-11
351.143	1	-6
352.340	1	10
353.537	1	-3
354.734	1	7
355.931	1	4
357.127	1	-5
358.324	1	-2
359.521	1	4
360.718	1	11
361.914	1	-4
363.111	1	1
364.308	1	1
365.504	1	10
366.701	1	6
367.897	1	8
369.093	1	2
370.290	1	5
371.486	1	4
372.682	1	10
373.879	1	1
375.075	1	0
376.271	1	16
377.467	1	0
378.663	1	-1
379.859	1	2
381.055	1	15
382.251	1	-3
383.447	1	3
384.643	1	9
385.839	1	-7
387.035	1	1
388.230	1	8
389.426	1	-4
390.622	1	-8
391.817	1	3
393.013	1	-7
394.208	1	-3
395.404	1	-8
396.599	1	-1
397.795	1	-3
398.990	1	-4
400.186	1	-5
401.381	1	-10
402.576	1	-5
403.771	1	6
404.967	1	-1
406.162	1	7
407.357	1	2
408.552	1	-4
409.747	1	-3
410.942	1	10
412.137	1	5
413.332	1	3
414.526	1	0
415.721	1	-4
416.916	1	-8
418.111	1	-5
419.305	1	0
420.500	1	-8
421.695	1	-6
422.889	1	-9
424.084	1	1
425.278	1	12
426.472	1	5
427.667	1	-7
428.861	1	-5
430.055	1	2
431.250	1	-13
432.444	1	3
433.638	1	-14
434.832	1	7
436.026	1	6
437.220	1	3
438.414	1	-11
439.608	1	-6
440.802	1	-1
441.996	1	2
443.190	1	-1
444.384	1	-12
445.578	1	-12
446.771	1	14
447.965	1	-6
449.159	1	-4
450.352	1	-2
451.546	1	-3
452.739	1	2
453.933	1	-3
455.126	1	-14
456.320	1	-1
457.513	1	10
458.706	1	-5
459.899	1	-2
461.093	1	-3
462.286	1	-3
463.479	1	4
464.672	1	-10
465.865	1	-2
467.058	1	-5
468.251	1	1
469.444	1	-11
470.637	1	-2
471.830	1	4
473.023	1	-7
474.215	1	6
475.408	1	3
476.601	1	1
477.793	1	-5
478.986	1	-8
480.179	1	0
481.371	1	0
482.564	1	-4
483.756	1	5
484.948	1	-9
486.141	1	-1
487.333	1	-1
488.525	1	-5
489.718	1	-2
490.910	1	-6
492.102	1	-2
493.294	1	-6
494.486	1	2
495.678	1	2
496.870	1	5
498.062	1	3
499.254	1	3
500.446	1	-20
501.638	1	5
502.829	1	-2
504.021	1	-2
505.213	1	3
506.404	1	1
507.596	1	-4
508.788	1	11
509.979	1	0
511.171	1	-7
512.362	1	-3
513.553	1	-8
514.745	1	-8
515.936	1	-6
517.127	1	0
518.319	1	7
519.510	1	5
520.701	1	-3
521.892	1	4
523.083	1	-5
524.274	1	1
525.465	1	8
526.656	1	0
527.847	1	-2
529.038	1	-1
530.229	1	1
531.419	1	0
532.610	1	3
533.801	1	12
534.991	1	2
536.182	1	-4
537.373	1	1
538.563	1	2
539.754	1	7
540.944	1	-3
542.134	1	8
543.325	1	5
544.515	1	-6
545.705	1	0
546.896	1	-5
548.086	1	7
549.276	1	-6
550.466	1	-3
551.656	1	3
552.846	1	-1
554.036	1	1
555.226	1	-8
556.416	1	-6
557.606	1	9
558.796	1	7
559.986	1	0
561.175	1	1
562.365	1	3
563.555	1	-1
564.744	1	5
565.934	1	4
567.123	1	-2
568.313	1	2
569.502	1	-1
570.692	1	9
571.881	1	4
573.070	1	-3
574.260	1	6
575.449	1	-3
576.638	1	-9
577.827	1	2
579.016	1	7
580.205	1	1
581.394	1	-7
582.583	1	10
583.772	1	5
584.961	1	4
586.150	1	3
587.339	1	-3
588.528	1	8
589.717	1	0
590.905	1	-2
592.094	1	-2
593.283	1	-4
594.471	1	4
595.660	1	-5
596.848	1	-4
598.037	1	-3
599.225	1	1
600.413	1	4
601.602	1	6
602.790	1	-2
603.978	1	0
605.166	1	0
606.355	1	2
607.543	1	2
608.731	1	-4
609.919	1	8
611.107	1	-1
612.295	1	-4
613.483	1	4
614.671	1	-2
615.858	1	-3
617.046	1	-3
618.234	1	-3
619.422	1	-12
620.609	1	5
621.797	1	-8
622.985	1	-10
624.172	1	-11
625.360	1	-4
626.547	1	-3
627.735	1	3
628.922	1	3
630.109	1	-11
631.297	1	0
632.484	1	-3
633.671	1	-3
634.858	1	-11
636.045	1	18
637.232	1	-2
638.419	1	-8
639.606	1	2
640.793	1	4
641.980	1	8
643.167	1	0
644.354	1	-1
645.541	1	-2
646.728	1	-1
647.914	1	0
649.101	1	-2
650.288	1	2
651.474	1	-2
652.661	1	-5
653.847	1	2
655.034	1	7
656.220	1	-11
657.406	1	5
658.593	1	5
659.779	1	6
660.965	1	3
662.152	1	5
663.338	1	6
664.524	1	6
665.710	1	0
666.896	1	-7
668.082	1	3
669.268	1	-2
670.454	1	3
671.640	1	6
672.826	1	-2
674.011	1	1
675.197	1	-11
676.383	1	-5
677.569	1	-13
678.754	1	1
679.940	1	0
681.125	1	1
682.311	1	3
683.496	1	-1
684.682	1	-7
685.867	1	0
687.053	1	2
688.238	1	5
688.746	1	-5

File: GaN_sample F_spot 12_UVVIS_200 K_200um_800 ms 2x2mm1_472.txt
340.368	1	5
341.565	1	-12
342.763	1	-5
343.960	1	0
345.157	1	-3
346.354	1	-8
347.552	1	2
348.749	1	-4
349.946	1	-17
351.143	1	1
352.340	1	2
353.537	1	-5
354.734	1	10
355.931	1	-3
357.127	1	2
358.324	1	6
359.521	1	-1
360.718	1	-6
361.914	1	2
363.111	1	8
364.308	1	1
365.504	1	14
366.701	1	4
367.897	1	5
369.093	1	-6
370.290	1	5
371.486	1	11
372.682	1	5
373.879	1	3
375.075	1	4
376.271	1	10
377.467	1	-1
378.663	1	-5
379.859	1	3
381.055	1	10
382.251	1	-7
383.447	1	0
384.643	1	9
385.839	1	-3
387.035	1	-1
388.230	1	-1
389.426	1	-7
390.622	1	-8
391.817	1	-10
393.013	1	-5
394.208	1	-6
395.404	1	-4
396.599	1	2
397.795	1	-4
398.990	1	3
400.186	1	1
401.381	1	-4
402.576	1	-3
403.771	1	2
404.967	1	7
406.162	1	6
407.357	1	-9
408.552	1	-10
409.747	1	1
410.942	1	6
412.137	1	1
413.332	1	6
414.526	1	-6
415.721	1	-1
416.916	1	-3
418.111	1	3
419.305	1	-4
420.500	1	-3
421.695	1	-4
422.889	1	-9
424.084	1	-1
425.278	1	13
426.472	1	-8
427.667	1	6
428.861	1	9
430.055	1	-2
431.250	1	-8
432.444	1	-1
433.638	1	-1
434.832	1	4
436.026	1	-4
437.220	1	5
438.414	1	-12
439.608	1	-2
440.802	1	-6
441.996	1	5
443.190	1	1
444.384	1	-8
445.578	1	-15
446.771	1	11
447.965	1	3
449.159	1	-1
450.352	1	-2
451.546	1	-2
452.739	1	0
453.933	1	-3
455.126	1	-2
456.320	1	-14
457.513	1	5
458.706	1	3
459.899	1	2
461.093	1	-6
462.286	1	0
463.479	1	-10
464.672	1	-1
465.865	1	-3
467.058	1	2
468.251	1	1
469.444	1	0
470.637	1	-1
471.830	1	-6
473.023	1	-1
474.215	1	9
475.408	1	-4
476.601	1	1
477.793	1	-3
478.986	1	-8
480.179	1	6
481.371	1	1
482.564	1	-2
483.756	1	4
484.948	1	-14
486.141	1	-6
487.333	1	-3
488.525	1	6
489.718	1	-2
490.910	1	-2
492.102	1	-10
493.294	1	0
494.486	1	11
495.678	1	-4
496.870	1	12
498.062	1	1
499.254	1	-12
500.446	1	0
501.638	1	-10
502.829	1	8
504.021	1	2
505.213	1	6
506.404	1	1
507.596	1	0
508.788	1	14
509.979	1	-5
511.171	1	-2
512.362	1	-4
513.553	1	-13
514.745	1	1
515.936	1	-4
517.127	1	-3
518.319	1	-3
519.510	1	3
520.701	1	-10
521.892	1	-2
523.083	1	-9
524.274	1	6
525.465	1	0
526.656	1	-5
527.847	1	-3
529.038	1	2
530.229	1	2
531.419	1	-1
532.610	1	2
533.801	1	11
534.991	1	-1
536.182	1	3
537.373	1	4
538.563	1	10
539.754	1	6
540.944	1	0
542.134	1	9
543.325	1	-8
544.515	1	-4
545.705	1	-8
546.896	1	4
548.086	1	-8
549.276	1	-1
550.466	1	7
551.656	1	-3
552.846	1	1
554.036	1	1
555.226	1	-9
556.416	1	4
557.606	1	-2
558.796	1	-2
559.986	1	-8
561.175	1	-1
562.365	1	1
563.555	1	0
564.744	1	-11
565.934	1	8
567.123	1	1
568.313	1	6
569.502	1	-8
570.692	1	4
571.881	1	7
573.070	1	-3
574.260	1	1
575.449	1	3
576.638	1	-5
577.827	1	2
579.016	1	-2
580.205	1	-6
581.394	1	4
582.583	1	9
583.772	1	5
584.961	1	2
586.150	1	-3
587.339	1	-8
588.528	1	5
589.717	1	4
590.905	1	4
592.094	1	-3
593.283	1	7
594.471	1	9
595.660	1	-6
596.848	1	0
598.037	1	5
599.225	1	-10
600.413	1	5
601.602	1	7
602.790	1	-4
603.978	1	-4
605.166	1	2
606.355	1	3
607.543	1	0
608.731	1	7
609.919	1	7
611.107	1	-6
612.295	1	0
613.483	1	-1
614.671	1	9
615.858	1	4
617.046	1	-2
618.234	1	-2
619.422	1	-6
620.609	1	5
621.797	1	-7
622.985	1	10
624.172	1	-9
625.360	1	-2
626.547	1	-6
627.735	1	-2
628.922	1	1
630.109	1	-11
631.297	1	4
632.484	1	-7
633.671	1	-9
634.858	1	-9
636.045	1	12
637.232	1	-4
638.419	1	-9
639.606	1	5
640.793	1	0
641.980	1	3
643.167	1	-3
644.354	1	-12
645.541	1	-9
646.728	1	-2
647.914	1	-10
649.101	1	1
650.288	1	-2
651.474	1	-2
652.661	1	4
653.847	1	9
655.034	1	-2
656.220	1	-2
657.406	1	2
658.593	1	4
659.779	1	5
660.965	1	5
662.152	1	-2
663.338	1	8
664.524	1	-2
665.710	1	0
666.896	1	-11
668.082	1	0
669.268	1	0
670.454	1	-1
671.640	1	3
672.826	1	-1
674.011	1	-2
675.197	1	-7
676.383	1	-1
677.569	1	-2
678.754	1	-10
679.940	1	-4
681.125	1	7
682.311	1	4
683.496	1	-2
684.682	1	-6
685.867	1	-2
687.053	1	1
688.238	1	-4
688.746	1	-1

File: GaN_sample F_spot 12_UVVIS_200 K_200um_800 ms 2x2mm1_473.txt
340.368	1	-3
341.565	1	-10
342.763	1	-7
343.960	1	1
345.157	1	-10
346.354	1	0
347.552	1	-11
348.749	1	-12
349.946	1	-3
351.143	1	0
352.340	1	-4
353.537	1	-8
354.734	1	1
355.931	1	6
357.127	1	-1
358.324	1	-1
359.521	1	9
360.718	1	7
361.914	1	3
363.111	1	6
364.308	1	-5
365.504	1	12
366.701	1	9
367.897	1	7
369.093	1	8
370.290	1	3
371.486	1	4
372.682	1	11
373.879	1	-2
375.075	1	2
376.271	1	7
377.467	1	-2
378.663	1	-5
379.859	1	6
381.055	1	8
382.251	1	-6
383.447	1	-7
384.643	1	12
385.839	1	4
387.035	1	1
388.230	1	8
389.426	1	-3
390.622	1	-3
391.817	1	-1
393.013	1	-2
394.208	1	-2
395.404	1	-1
396.599	1	2
397.795	1	-1
398.990	1	4
400.186	1	-4
401.381	1	-12
402.576	1	2
403.771	1	5
404.967	1	-4
406.162	1	7
407.357	1	-5
408.552	1	0
409.747	1	-7
410.942	1	9
412.137	1	3
413.332	1	1
414.526	1	-5
415.721	1	1
416.916	1	-8
418.111	1	-4
419.305	1	0
420.500	1	0
421.695	1	-3
422.889	1	-5
424.084	1	6
425.278	1	9
426.472	1	-4
427.667	1	9
428.861	1	-6
430.055	1	6
431.250	1	-6
432.444	1	11
433.638	1	-4
434.832	1	3
436.026	1	3
437.220	1	0
438.414	1	-7
439.608	1	-7
440.802	1	0
441.996	1	12
443.190	1	3
444.384	1	-3
445.578	1	-13
446.771	1	14
447.965	1	1
449.159	1	-9
450.352	1	2
451.546	1	6
452.739	1	-1
453.933	1	-3
455.126	1	-6
456.320	1	7
457.513	1	5
458.706	1	-5
459.899	1	1
461.093	1	-7
462.286	1	-3
463.479	1	0
464.672	1	-4
465.865	1	-7
467.058	1	1
468.251	1	-1
469.444	1	0
470.637	1	-1
471.830	1	3
473.023	1	-1
474.215	1	9
475.408	1	-5
476.601	1	-3
477.793	1	-6
478.986	1	-14
480.179	1	-5
481.371	1	-5
482.564	1	-3
483.756	1	11
484.948	1	-9
486.141	1	-3
487.333	1	1
488.525	1	-8
489.718	1	-1
490.910	1	-3
492.102	1	-7
493.294	1	-5
494.486	1	0
495.678	1	-4
496.870	1	6
498.062	1	0
499.254	1	0
500.446	1	-8
501.638	1	-6
502.829	1	1
504.021	1	-2
505.213	1	3
506.404	1	1
507.596	1	2
508.788	1	9
509.979	1	-4
511.171	1	2
512.362	1	-7
513.553	1	-10
514.745	1	-4
515.936	1	-7
517.127	1	0
518.319	1	3
519.510	1	-5
520.701	1	1
521.892	1	3
523.083	1	-2
524.274	1	0
525.465	1	4
526.656	1	-5
527.847	1	7
529.038	1	2
530.229	1	-4
531.419	1	0
532.610	1	4
533.801	1	16
534.991	1	-2
536.182	1	-8
537.373	1	-9
538.563	1	18
539.754	1	5
540.944	1	-4
542.134	1	4
543.325	1	0
544.515	1	1
545.705	1	-3
546.896	1	-5
548.086	1	4
549.276	1	-9
550.466	1	1
551.656	1	0
552.846	1	7
554.036	1	-5
555.226	1	-8
556.416	1	-9
557.606	1	-1
558.796	1	-9
559.986	1	-8
561.175	1	10
562.365	1	-5
563.555	1	3
564.744	1	5
565.934	1	3
567.123	1	7
568.313	1	9
569.502	1	5
570.692	1	5
571.881	1	12
573.070	1	2
574.260	1	8
575.449	1	-6
576.638	1	-4
577.827	1	-6
579.016	1	12
580.205	1	-2
581.394	1	-8
582.583	1	10
583.772	1	3
584.961	1	5
586.150	1	2
587.339	1	-2
588.528	1	-1
589.717	1	4
590.905	1	-2
592.094	1	3
593.283	1	1
594.471	1	15
595.660	1	10
596.848	1	2
598.037	1	3
599.225	1	-5
600.413	1	12
601.602	1	12
602.790	1	-3
603.978	1	-4
605.166	1	0
606.355	1	7
607.543	1	1
608.731	1	-2
609.919	1	7
611.107	1	-11
612.295	1	-4
613.483	1	-5
614.671	1	-2
615.858	1	-3
617.046	1	-1
618.234	1	-6
619.422	1	-4
620.609	1	1
621.797	1	-8
622.985	1	-3
624.172	1	-5
625.360	1	-13
626.547	1	2
627.735	1	-7
628.922	1	2
630.109	1	-12
631.297	1	3
632.484	1	-8
633.671	1	-2
634.858	1	-3
636.045	1	10
637.232	1	-6
638.419	1	-6
639.606	1	0
640.793	1	3
641.980	1	11
643.167	1	-2
644.354	1	-6
645.541	1	3
646.728	1	-5
647.914	1	-9
649.101	1	0
650.288	1	7
651.474	1	-3
652.661	1	-4
653.847	1	2
655.034	1	-3
656.220	1	-10
657.406	1	7
658.593	1	8
659.779	1	0
660.965	1	-2
662.152	1	-2
663.338	1	13
664.524	1	0
665.710	1	-5
666.896	1	-4
668.082	1	3
669.268	1	4
670.454	1	5
671.640	1	7
672.826	1	4
674.011	1	-2
675.197	1	-17
676.383	1	3
677.569	1	-2
678.754	1	-9
679.940	1	-6
681.125	1	4
682.311	1	11
683.496	1	4
684.682	1	-9
685.867	1	-5
687.053	1	3
688.238	1	-4
688.746	1	-11

File: GaN_sample F_spot 12_UVVIS_200 K_200um_800 ms 2x2mm1_475.txt
340.368	1	0
341.565	1	-7
342.763	1	7
343.960	1	-4
345.157	1	-6
346.354	1	-3
347.552	1	-5
348.749	1	-14
349.946	1	1
351.143	1	5
352.340	1	-3
353.537	1	0
354.734	1	-2
355.931	1	-8
357.127	1	-1
358.324	1	-8
359.521	1	7
360.718	1	9
361.914	1	6
363.111	1	5
364.308	1	-4
365.504	1	8
366.701	1	6
367.897	1	2
369.093	1	-1
370.290	1	9
371.486	1	16
372.682	1	14
373.879	1	-4
375.075	1	-4
376.271	1	5
377.467	1	0
378.663	1	2
379.859	1	4
381.055	1	5
382.251	1	-4
383.447	1	-3
384.643	1	11
385.839	1	-7
387.035	1	2
388.230	1	9
389.426	1	2
390.622	1	-1
391.817	1	5
393.013	1	-3
394.208	1	-1
395.404	1	-2
396.599	1	-2
397.795	1	-2
398.990	1	1
400.186	1	-5
401.381	1	-1
402.576	1	2
403.771	1	6
404.967	1	-3
406.162	1	4
407.357	1	-8
408.552	1	-3
409.747	1	-2
410.942	1	3
412.137	1	6
413.332	1	1
414.526	1	-4
415.721	1	0
416.916	1	-8
418.111	1	0
419.305	1	-5
420.500	1	2
421.695	1	1
422.889	1	-4
424.084	1	-2
425.278	1	10
426.472	1	-3
427.667	1	-1
428.861	1	-1
430.055	1	-3
431.250	1	-13
432.444	1	0
433.638	1	1
434.832	1	-8
436.026	1	0
437.220	1	4
438.414	1	-5
439.608	1	0
440.802	1	0
441.996	1	-6
443.190	1	-2
444.384	1	-2
445.578	1	-8
446.771	1	6
447.965	1	3
449.159	1	-7
450.352	1	-3
451.546	1	9
452.739	1	8
453.933	1	3
455.126	1	-10
456.320	1	0
457.513	1	12
458.706	1	-2
459.899	1	-2
461.093	1	-1
462.286	1	-3
463.479	1	-5
464.672	1	-5
465.865	1	-3
467.058	1	6
468.251	1	5
469.444	1	-10
470.637	1	-6
471.830	1	-9
473.023	1	5
474.215	1	11
475.408	1	0
476.601	1	-3
477.793	1	-7
478.986	1	-2
480.179	1	7
481.371	1	-7
482.564	1	9
483.756	1	6
484.948	1	-2
486.141	1	-3
487.333	1	2
488.525	1	0
489.718	1	1
490.910	1	7
492.102	1	-6
493.294	1	-10
494.486	1	3
495.678	1	-1
496.870	1	1
498.062	1	2
499.254	1	-1
500.446	1	-7
501.638	1	-4
502.829	1	5
504.021	1	0
505.213	1	11
506.404	1	4
507.596	1	0
508.788	1	18
509.979	1	-3
511.171	1	-5
512.362	1	-10
513.553	1	-12
514.745	1	-4
515.936	1	-1
517.127	1	-1
518.319	1	8
519.510	1	-4
520.701	1	4
521.892	1	1
523.083	1	-3
524.274	1	-6
525.465	1	9
526.656	1	-2
527.847	1	-2
529.038	1	-7
530.229	1	4
531.419	1	2
532.610	1	3
533.801	1	12
534.991	1	-2
536.182	1	-3
537.373	1	5
538.563	1	0
539.754	1	2
540.944	1	-3
542.134	1	-2
543.325	1	2
544.515	1	-3
545.705	1	-10
546.896	1	-2
548.086	1	-7
549.276	1	-1
550.466	1	-4
551.656	1	-2
552.846	1	5
554.036	1	-2
555.226	1	-14
556.416	1	-2
557.606	1	-1
558.796	1	-3
559.986	1	-2
561.175	1	2
562.365	1	8
563.555	1	-1
564.744	1	0
565.934	1	9
567.123	1	5
568.313	1	3
569.502	1	4
570.692	1	0
571.881	1	11
573.070	1	9
574.260	1	13
575.449	1	-9
576.638	1	-9
577.827	1	-6
579.016	1	13
580.205	1	0
581.394	1	-8
582.583	1	5
583.772	1	-3
584.961	1	2
586.150	1	2
587.339	1	2
588.528	1	5
589.717	1	3
590.905	1	1
592.094	1	-2
593.283	1	-6
594.471	1	4
595.660	1	2
596.848	1	-7
598.037	1	-8
599.225	1	-8
600.413	1	3
601.602	1	9
602.790	1	4
603.978	1	-1
605.166	1	4
606.355	1	-3
607.543	1	1
608.731	1	-1
609.919	1	10
611.107	1	4
612.295	1	-2
613.483	1	-5
614.671	1	1
615.858	1	-5
617.046	1	0
618.234	1	-7
619.422	1	-4
620.609	1	3
621.797	1	-8
622.985	1	-1
624.172	1	-4
625.360	1	-1
626.547	1	3
627.735	1	10
628.922	1	5
630.109	1	-11
631.297	1	-2
632.484	1	3
633.671	1	-1
634.858	1	-4
636.045	1	13
637.232	1	0
638.419	1	4
639.606	1	0
640.793	1	3
641.980	1	6
643.167	1	-1
644.354	1	-1
645.541	1	-2
646.728	1	7
647.914	1	-6
649.101	1	-6
650.288	1	10
651.474	1	-4
652.661	1	4
653.847	1	1
655.034	1	5
656.220	1	-7
657.406	1	5
658.593	1	9
659.779	1	4
660.965	1	10
662.152	1	-3
663.338	1	1
664.524	1	-3
665.710	1	-3
666.896	1	-7
668.082	1	2
669.268	1	-4
670.454	1	-4
671.640	1	-2
672.826	1	-4
674.011	1	-4
675.197	1	-4
676.383	1	-3
677.569	1	-2
678.754	1	-13
679.940	1	-1
681.125	1	5
682.311	1	-4
683.496	1	7
684.682	1	-5
685.867	1	-7
687.053	1	-4
688.238	1	-1
688.746	1	-1

File: GaN_sample F_spot 12_UVVIS_200 K_200um_800 ms 2x2mm1_477.txt
340.368	1	1
341.565	1	-14
342.763	1	0
343.960	1	1
345.157	1	-2
346.354	1	-2
347.552	1	-6
348.749	1	-15
349.946	1	1
351.143	1	-2
352.340	1	-5
353.537	1	-2
354.734	1	3
355.931	1	4
357.127	1	-4
358.324	1	0
359.521	1	1
360.718	1	-3
361.914	1	11
363.111	1	1
364.308	1	1
365.504	1	8
366.701	1	9
367.897	1	0
369.093	1	11
370.290	1	3
371.486	1	11
372.682	1	11
373.879	1	-2
375.075	1	3
376.271	1	8
377.467	1	7
378.663	1	0
379.859	1	6
381.055	1	10
382.251	1	-2
383.447	1	-1
384.643	1	6
385.839	1	7
387.035	1	10
388.230	1	9
389.426	1	2
390.622	1	-9
391.817	1	-1
393.013	1	1
394.208	1	-3
395.404	1	-6
396.599	1	-3
397.795	1	8
398.990	1	-2
400.186	1	5
401.381	1	-4
402.576	1	-6
403.771	1	2
404.967	1	1
406.162	1	4
407.357	1	9
408.552	1	-5
409.747	1	-1
410.942	1	5
412.137	1	1
413.332	1	3
414.526	1	0
415.721	1	2
416.916	1	-3
418.111	1	-2
419.305	1	5
420.500	1	-3
421.695	1	-6
422.889	1	-10
424.084	1	3
425.278	1	12
426.472	1	-3
427.667	1	10
428.861	1	1
430.055	1	-4
431.250	1	-4
432.444	1	6
433.638	1	-3
434.832	1	-5
436.026	1	10
437.220	1	3
438.414	1	-9
439.608	1	-8
440.802	1	0
441.996	1	5
443.190	1	-2
444.384	1	-2
445.578	1	-10
446.771	1	14
447.965	1	-4
449.159	1	5
450.352	1	-7
451.546	1	5
452.739	1	-8
453.933	1	-4
455.126	1	-10
456.320	1	1
457.513	1	9
458.706	1	-2
459.899	1	-3
461.093	1	6
462.286	1	-1
463.479	1	-1
464.672	1	-1
465.865	1	-2
467.058	1	0
468.251	1	-4
469.444	1	-8
470.637	1	1
471.830	1	-3
473.023	1	2
474.215	1	3
475.408	1	1
476.601	1	2
477.793	1	-6
478.986	1	3
480.179	1	8
481.371	1	11
482.564	1	-2
483.756	1	12
484.948	1	-8
486.141	1	3
487.333	1	-8
488.525	1	2
489.718	1	1
490.910	1	-4
492.102	1	-12
493.294	1	-7
494.486	1	3
495.678	1	-1
496.870	1	4
498.062	1	-3
499.254	1	1
500.446	1	-3
501.638	1	0
502.829	1	1
504.021	1	-8
505.213	1	6
506.404	1	-5
507.596	1	-1
508.788	1	12
509.979	1	-7
511.171	1	-4
512.362	1	-8
513.553	1	-8
514.745	1	4
515.936	1	3
517.127	1	-2
518.319	1	0
519.510	1	2
520.701	1	-9
521.892	1	4
523.083	1	3
524.274	1	-5
525.465	1	7
526.656	1	2
527.847	1	2
529.038	1	1
530.229	1	0
531.419	1	1
532.610	1	2
533.801	1	14
534.991	1	-2
536.182	1	-5
537.373	1	6
538.563	1	3
539.754	1	-1
540.944	1	-7
542.134	1	3
543.325	1	0
544.515	1	0
545.705	1	2
546.896	1	-7
548.086	1	0
549.276	1	-6
550.466	1	15
551.656	1	2
552.846	1	1
554.036	1	1
555.226	1	-1
556.416	1	-4
557.606	1	7
558.796	1	-5
559.986	1	-5
561.175	1	-1
562.365	1	-1
563.555	1	-10
564.744	1	0
565.934	1	7
567.123	1	-3
568.313	1	7
569.502	1	-5
570.692	1	12
571.881	1	2
573.070	1	-3
574.260	1	9
575.449	1	-7
576.638	1	-7
577.827	1	-6
579.016	1	11
580.205	1	-2
581.394	1	-1
582.583	1	5
583.772	1	-4
584.961	1	2
586.150	1	-5
587.339	1	3
588.528	1	-1
589.717	1	-3
590.905	1	-2
592.094	1	1
593.283	1	6
594.471	1	6
595.660	1	-1
596.848	1	0
598.037	1	-5
599.225	1	-11
600.413	1	8
601.602	1	8
602.790	1	-8
603.978	1	1
605.166	1	12
606.355	1	3
607.543	1	-3
608.731	1	1
609.919	1	2
611.107	1	-9
612.295	1	-5
613.483	1	6
614.671	1	0
615.858	1	4
617.046	1	1
618.234	1	-5
619.422	1	-8
620.609	1	3
621.797	1	2
622.985	1	-2
624.172	1	-8
625.360	1	-3
626.547	1	2
627.735	1	2
628.922	1	7
630.109	1	-11
631.297	1	-1
632.484	1	2
633.671	1	-3
634.858	1	4
636.045	1	8
637.232	1	3
638.419	1	-7
639.606	1	1
640.793	1	11
641.980	1	3
643.167	1	-2
644.354	1	0
645.541	1	4
646.728	1	-6
647.914	1	-4
649.101	1	2
650.288	1	-9
651.474	1	-9
652.661	1	-5
653.847	1	7
655.034	1	3
656.220	1	-12
657.406	1	10
658.593	1	-2
659.779	1	2
660.965	1	3
662.152	1	5
663.338	1	14
664.524	1	0
665.710	1	-1
666.896	1	-6
668.082	1	2
669.268	1	-4
670.454	1	1
671.640	1	6
672.826	1	-10
674.011	1	6
675.197	1	-20
676.383	1	-5
677.569	1	2
678.754	1	-5
679.940	1	-4
681.125	1	1
682.311	1	-5
683.496	1	-4
684.682	1	-15
685.867	1	2
687.053	1	6
688.238	1	4
688.746	1	-7

File: GaN_sample F_spot 12_UVVIS_200 K_200um_800 ms 2x2mm1_478.txt
340.368	1	7
341.565	1	-9
342.763	1	3
343.960	1	3
345.157	1	-1
346.354	1	-2
347.552	1	-5
348.749	1	-10
349.946	1	-8
351.143	1	-2
352.340	1	0
353.537	1	0
354.734	1	2
355.931	1	-1
357.127	1	-8
358.324	1	-4
359.521	1	-2
360.718	1	3
361.914	1	6
363.111	1	-6
364.308	1	1
365.504	1	9
366.701	1	6
367.897	1	9
369.093	1	3
370.290	1	9
371.486	1	18
372.682	1	13
373.879	1	2
375.075	1	-1
376.271	1	13
377.467	1	3
378.663	1	2
379.859	1	-3
381.055	1	7
382.251	1	-1
383.447	1	-6
384.643	1	10
385.839	1	1
387.035	1	1
388.230	1	6
389.426	1	-3
390.622	1	-7
391.817	1	4
393.013	1	-4
394.208	1	-5
395.404	1	-7
396.599	1	-2
397.795	1	-6
398.990	1	2
400.186	1	7
401.381	1	3
402.576	1	-3
403.771	1	-6
404.967	1	-6
406.162	1	2
407.357	1	-4
408.552	1	-7
409.747	1	3
410.942	1	9
412.137	1	7
413.332	1	4
414.526	1	-1
415.721	1	-3
416.916	1	-12
418.111	1	2
419.305	1	-3
420.500	1	-4
421.695	1	4
422.889	1	-3
424.084	1	1
425.278	1	7
426.472	1	-10
427.667	1	7
428.861	1	-17
430.055	1	-6
431.250	1	-6
432.444	1	-1
433.638	1	-9
434.832	1	7
436.026	1	4
437.220	1	6
438.414	1	1
439.608	1	-4
440.802	1	-7
441.996	1	8
443.190	1	6
444.384	1	-8
445.578	1	-8
446.771	1	9
447.965	1	5
449.159	1	-5
450.352	1	-2
451.546	1	0
452.739	1	2
453.933	1	-5
455.126	1	-9
456.320	1	-3
457.513	1	4
458.706	1	-2
459.899	1	1
461.093	1	-2
462.286	1	3
463.479	1	-7
464.672	1	-7
465.865	1	1
467.058	1	0
468.251	1	-2
469.444	1	-3
470.637	1	-4
471.830	1	-3
473.023	1	-2
474.215	1	4
475.408	1	-7
476.601	1	1
477.793	1	-1
478.986	1	-1
480.179	1	6
481.371	1	1
482.564	1	-4
483.756	1	-3
484.948	1	-9
486.141	1	2
487.333	1	-3
488.525	1	-2
489.718	1	-1
490.910	1	-5
492.102	1	-1
493.294	1	-8
494.486	1	5
495.678	1	-4
496.870	1	-2
498.062	1	-4
499.254	1	-10
500.446	1	-10
501.638	1	3
502.829	1	3
504.021	1	0
505.213	1	12
506.404	1	2
507.596	1	-4
508.788	1	10
509.979	1	-12
511.171	1	-6
512.362	1	-3
513.553	1	-4
514.745	1	-9
515.936	1	4
517.127	1	6
518.319	1	0
519.510	1	-6
520.701	1	-3
521.892	1	0
523.083	1	5
524.274	1	-8
525.465	1	-2
526.656	1	-5
527.847	1	-4
529.038	1	3
530.229	1	2
531.419	1	-3
532.610	1	-6
533.801	1	14
534.991	1	-2
536.182	1	-10
537.373	1	-2
538.563	1	3
539.754	1	6
540.944	1	-5
542.134	1	3
543.325	1	-2
544.515	1	-3
545.705	1	-3
546.896	1	4
548.086	1	-3
549.276	1	1
550.466	1	2
551.656	1	2
552.846	1	1
554.036	1	1
555.226	1	-13
556.416	1	-15
557.606	1	3
558.796	1	-7
559.986	1	-2
561.175	1	0
562.365	1	3
563.555	1	-10
564.744	1	4
565.934	1	1
567.123	1	2
568.313	1	0
569.502	1	-3
570.692	1	2
571.881	1	8
573.070	1	-1
574.260	1	6
575.449	1	-7
576.638	1	-6
577.827	1	-3
579.016	1	4
580.205	1	2
581.394	1	3
582.583	1	13
583.772	1	13
584.961	1	8
586.150	1	-5
587.339	1	-2
588.528	1	8
589.717	1	-2
590.905	1	-5
592.094	1	-8
593.283	1	-1
594.471	1	0
595.660	1	-1
596.848	1	0
598.037	1	-5
599.225	1	-7
600.413	1	14
601.602	1	14
602.790	1	6
603.978	1	-1
605.166	1	4
606.355	1	-2
607.543	1	-4
608.731	1	0
609.919	1	7
611.107	1	-3
612.295	1	-5
613.483	1	7
614.671	1	-3
615.858	1	2
617.046	1	2
618.234	1	0
619.422	1	-9
620.609	1	0
621.797	1	-13
622.985	1	-6
624.172	1	-1
625.360	1	4
626.547	1	-6
627.735	1	1
628.922	1	6
630.109	1	-4
631.297	1	3
632.484	1	-5
633.671	1	4
634.858	1	1
636.045	1	13
637.232	1	-8
638.419	1	-1
639.606	1	3
640.793	1	11
641.980	1	0
643.167	1	-4
644.354	1	-7
645.541	1	-14
646.728	1	-10
647.914	1	-6
649.101	1	1
650.288	1	0
651.474	1	1
652.661	1	-2
653.847	1	7
655.034	1	-1
656.220	1	-4
657.406	1	3
658.593	1	-5
659.779	1	-1
660.965	1	5
662.152	1	0
663.338	1	15
664.524	1	1
665.710	1	0
666.896	1	-5
668.082	1	-1
669.268	1	0
670.454	1	0
671.640	1	0
672.826	1	3
674.011	1	5
675.197	1	-9
676.383	1	-1
677.569	1	-4
678.754	1	-5
679.940	1	-4
681.125	1	7
682.311	1	5
683.496	1	6
684.682	1	-1
685.867	1	0
687.053	1	-1
688.238	1	-3
688.746	1	3