Folder: cryo-il_analysis/Data/GaN_200K_800ms (part 29)

File: GaN_sample F_spot 12_UVVIS_200 K_200um_800 ms 2x2mm1_277.txt
340.368	1	3
341.565	1	-7
342.763	1	6
343.960	1	13
345.157	1	-8
346.354	1	-10
347.552	1	9
348.749	1	-7
349.946	1	-6
351.143	1	1
352.340	1	2
353.537	1	2
354.734	1	1
355.931	1	2
357.127	1	1
358.324	1	1
359.521	1	8
360.718	1	7
361.914	1	4
363.111	1	8
364.308	1	12
365.504	1	19
366.701	1	11
367.897	1	17
369.093	1	13
370.290	1	24
371.486	1	21
372.682	1	19
373.879	1	9
375.075	1	6
376.271	1	9
377.467	1	3
378.663	1	2
379.859	1	2
381.055	1	12
382.251	1	-7
383.447	1	-4
384.643	1	9
385.839	1	-5
387.035	1	5
388.230	1	13
389.426	1	3
390.622	1	-3
391.817	1	2
393.013	1	-2
394.208	1	-2
395.404	1	1
396.599	1	-3
397.795	1	-3
398.990	1	3
400.186	1	3
401.381	1	-5
402.576	1	-7
403.771	1	7
404.967	1	5
406.162	1	7
407.357	1	-2
408.552	1	-7
409.747	1	-2
410.942	1	9
412.137	1	9
413.332	1	6
414.526	1	-3
415.721	1	2
416.916	1	-6
418.111	1	-7
419.305	1	3
420.500	1	-3
421.695	1	1
422.889	1	-12
424.084	1	1
425.278	1	10
426.472	1	-1
427.667	1	6
428.861	1	-11
430.055	1	-3
431.250	1	5
432.444	1	7
433.638	1	2
434.832	1	6
436.026	1	10
437.220	1	2
438.414	1	-8
439.608	1	-4
440.802	1	0
441.996	1	2
443.190	1	3
444.384	1	-9
445.578	1	-6
446.771	1	8
447.965	1	1
449.159	1	-7
450.352	1	-9
451.546	1	1
452.739	1	1
453.933	1	6
455.126	1	-8
456.320	1	-5
457.513	1	-2
458.706	1	-2
459.899	1	-5
461.093	1	3
462.286	1	-3
463.479	1	-5
464.672	1	1
465.865	1	-5
467.058	1	1
468.251	1	-2
469.444	1	-3
470.637	1	3
471.830	1	-6
473.023	1	3
474.215	1	7
475.408	1	-6
476.601	1	-2
477.793	1	-2
478.986	1	0
480.179	1	-4
481.371	1	3
482.564	1	-4
483.756	1	4
484.948	1	-4
486.141	1	-9
487.333	1	3
488.525	1	-8
489.718	1	0
490.910	1	0
492.102	1	2
493.294	1	-1
494.486	1	1
495.678	1	-6
496.870	1	11
498.062	1	-5
499.254	1	8
500.446	1	-8
501.638	1	3
502.829	1	6
504.021	1	-2
505.213	1	2
506.404	1	5
507.596	1	0
508.788	1	10
509.979	1	-4
511.171	1	-2
512.362	1	-14
513.553	1	-15
514.745	1	0
515.936	1	1
517.127	1	2
518.319	1	-5
519.510	1	0
520.701	1	3
521.892	1	-2
523.083	1	0
524.274	1	1
525.465	1	6
526.656	1	3
527.847	1	4
529.038	1	1
530.229	1	1
531.419	1	2
532.610	1	0
533.801	1	8
534.991	1	-3
536.182	1	-2
537.373	1	4
538.563	1	1
539.754	1	11
540.944	1	3
542.134	1	1
543.325	1	1
544.515	1	5
545.705	1	-3
546.896	1	-1
548.086	1	2
549.276	1	-2
550.466	1	-2
551.656	1	11
552.846	1	4
554.036	1	1
555.226	1	-5
556.416	1	-9
557.606	1	5
558.796	1	-4
559.986	1	-2
561.175	1	3
562.365	1	1
563.555	1	-4
564.744	1	1
565.934	1	8
567.123	1	4
568.313	1	12
569.502	1	-9
570.692	1	6
571.881	1	11
573.070	1	5
574.260	1	8
575.449	1	5
576.638	1	-5
577.827	1	0
579.016	1	14
580.205	1	9
581.394	1	1
582.583	1	9
583.772	1	11
584.961	1	6
586.150	1	-7
587.339	1	8
588.528	1	5
589.717	1	-3
590.905	1	4
592.094	1	-1
593.283	1	-6
594.471	1	12
595.660	1	5
596.848	1	2
598.037	1	-5
599.225	1	-10
600.413	1	10
601.602	1	5
602.790	1	3
603.978	1	6
605.166	1	-1
606.355	1	1
607.543	1	-2
608.731	1	-1
609.919	1	6
611.107	1	-2
612.295	1	-7
613.483	1	3
614.671	1	7
615.858	1	-4
617.046	1	3
618.234	1	-4
619.422	1	-6
620.609	1	4
621.797	1	-6
622.985	1	3
624.172	1	3
625.360	1	1
626.547	1	1
627.735	1	4
628.922	1	6
630.109	1	-6
631.297	1	-3
632.484	1	10
633.671	1	-9
634.858	1	0
636.045	1	8
637.232	1	-7
638.419	1	-6
639.606	1	3
640.793	1	6
641.980	1	-2
643.167	1	-8
644.354	1	-3
645.541	1	3
646.728	1	2
647.914	1	-8
649.101	1	-1
650.288	1	5
651.474	1	-7
652.661	1	-9
653.847	1	4
655.034	1	8
656.220	1	-9
657.406	1	7
658.593	1	8
659.779	1	4
660.965	1	13
662.152	1	0
663.338	1	11
664.524	1	1
665.710	1	3
666.896	1	-8
668.082	1	2
669.268	1	-1
670.454	1	5
671.640	1	0
672.826	1	-1
674.011	1	3
675.197	1	-6
676.383	1	5
677.569	1	-8
678.754	1	-3
679.940	1	1
681.125	1	-4
682.311	1	0
683.496	1	4
684.682	1	-2
685.867	1	-4
687.053	1	3
688.238	1	5
688.746	1	6

File: GaN_sample F_spot 12_UVVIS_200 K_200um_800 ms 2x2mm1_281.txt
340.368	1	13
341.565	1	8
342.763	1	-2
343.960	1	2
345.157	1	2
346.354	1	-8
347.552	1	-4
348.749	1	-4
349.946	1	-4
351.143	1	-3
352.340	1	8
353.537	1	3
354.734	1	-1
355.931	1	8
357.127	1	8
358.324	1	1
359.521	1	7
360.718	1	6
361.914	1	9
363.111	1	5
364.308	1	3
365.504	1	9
366.701	1	15
367.897	1	23
369.093	1	16
370.290	1	15
371.486	1	26
372.682	1	13
373.879	1	13
375.075	1	8
376.271	1	14
377.467	1	5
378.663	1	2
379.859	1	9
381.055	1	15
382.251	1	-5
383.447	1	1
384.643	1	11
385.839	1	1
387.035	1	7
388.230	1	9
389.426	1	-5
390.622	1	3
391.817	1	0
393.013	1	3
394.208	1	4
395.404	1	-4
396.599	1	3
397.795	1	-3
398.990	1	1
400.186	1	-4
401.381	1	-11
402.576	1	-5
403.771	1	7
404.967	1	5
406.162	1	13
407.357	1	-19
408.552	1	-3
409.747	1	-11
410.942	1	6
412.137	1	1
413.332	1	-5
414.526	1	-5
415.721	1	-2
416.916	1	-5
418.111	1	-1
419.305	1	9
420.500	1	3
421.695	1	-5
422.889	1	-1
424.084	1	-5
425.278	1	19
426.472	1	-10
427.667	1	8
428.861	1	0
430.055	1	7
431.250	1	-4
432.444	1	-2
433.638	1	-2
434.832	1	-1
436.026	1	-2
437.220	1	-1
438.414	1	-3
439.608	1	-3
440.802	1	-18
441.996	1	0
443.190	1	10
444.384	1	-14
445.578	1	-14
446.771	1	10
447.965	1	-3
449.159	1	-2
450.352	1	-3
451.546	1	-1
452.739	1	-3
453.933	1	-1
455.126	1	-9
456.320	1	-12
457.513	1	8
458.706	1	-4
459.899	1	3
461.093	1	4
462.286	1	-1
463.479	1	-5
464.672	1	3
465.865	1	4
467.058	1	-2
468.251	1	6
469.444	1	-5
470.637	1	-3
471.830	1	-1
473.023	1	8
474.215	1	8
475.408	1	-4
476.601	1	3
477.793	1	-1
478.986	1	-5
480.179	1	-1
481.371	1	3
482.564	1	2
483.756	1	6
484.948	1	-8
486.141	1	-7
487.333	1	6
488.525	1	-3
489.718	1	-3
490.910	1	4
492.102	1	-5
493.294	1	-2
494.486	1	1
495.678	1	-1
496.870	1	2
498.062	1	3
499.254	1	9
500.446	1	-7
501.638	1	-2
502.829	1	1
504.021	1	6
505.213	1	3
506.404	1	2
507.596	1	3
508.788	1	12
509.979	1	6
511.171	1	-7
512.362	1	-7
513.553	1	-15
514.745	1	-5
515.936	1	-3
517.127	1	-7
518.319	1	-4
519.510	1	-1
520.701	1	-4
521.892	1	10
523.083	1	-5
524.274	1	5
525.465	1	2
526.656	1	0
527.847	1	6
529.038	1	3
530.229	1	7
531.419	1	6
532.610	1	-4
533.801	1	14
534.991	1	-4
536.182	1	1
537.373	1	2
538.563	1	11
539.754	1	4
540.944	1	-3
542.134	1	3
543.325	1	-6
544.515	1	9
545.705	1	-2
546.896	1	3
548.086	1	7
549.276	1	6
550.466	1	2
551.656	1	2
552.846	1	6
554.036	1	-3
555.226	1	-4
556.416	1	3
557.606	1	-4
558.796	1	-1
559.986	1	-4
561.175	1	12
562.365	1	7
563.555	1	-8
564.744	1	6
565.934	1	4
567.123	1	10
568.313	1	11
569.502	1	-4
570.692	1	0
571.881	1	7
573.070	1	-4
574.260	1	13
575.449	1	-3
576.638	1	0
577.827	1	-2
579.016	1	11
580.205	1	9
581.394	1	0
582.583	1	15
583.772	1	10
584.961	1	7
586.150	1	-2
587.339	1	4
588.528	1	1
589.717	1	-3
590.905	1	1
592.094	1	2
593.283	1	1
594.471	1	3
595.660	1	6
596.848	1	6
598.037	1	-3
599.225	1	-2
600.413	1	12
601.602	1	11
602.790	1	-1
603.978	1	-9
605.166	1	4
606.355	1	-3
607.543	1	-1
608.731	1	-1
609.919	1	5
611.107	1	-6
612.295	1	-2
613.483	1	-3
614.671	1	10
615.858	1	12
617.046	1	-2
618.234	1	-9
619.422	1	-8
620.609	1	-5
621.797	1	-7
622.985	1	-4
624.172	1	-1
625.360	1	6
626.547	1	-1
627.735	1	5
628.922	1	4
630.109	1	-6
631.297	1	1
632.484	1	1
633.671	1	3
634.858	1	-9
636.045	1	16
637.232	1	2
638.419	1	-1
639.606	1	0
640.793	1	14
641.980	1	-3
643.167	1	-6
644.354	1	9
645.541	1	0
646.728	1	1
647.914	1	-8
649.101	1	8
650.288	1	8
651.474	1	-4
652.661	1	-4
653.847	1	5
655.034	1	8
656.220	1	-4
657.406	1	-1
658.593	1	11
659.779	1	7
660.965	1	11
662.152	1	8
663.338	1	9
664.524	1	-4
665.710	1	-1
666.896	1	-5
668.082	1	-1
669.268	1	-3
670.454	1	-5
671.640	1	1
672.826	1	-3
674.011	1	-6
675.197	1	-9
676.383	1	-7
677.569	1	3
678.754	1	-1
679.940	1	5
681.125	1	0
682.311	1	14
683.496	1	5
684.682	1	-15
685.867	1	3
687.053	1	4
688.238	1	0
688.746	1	4

File: GaN_sample F_spot 12_UVVIS_200 K_200um_800 ms 2x2mm1_283.txt
340.368	1	0
341.565	1	-2
342.763	1	13
343.960	1	-10
345.157	1	-5
346.354	1	-2
347.552	1	-16
348.749	1	-4
349.946	1	1
351.143	1	1
352.340	1	3
353.537	1	3
354.734	1	3
355.931	1	0
357.127	1	0
358.324	1	2
359.521	1	8
360.718	1	3
361.914	1	1
363.111	1	6
364.308	1	2
365.504	1	17
366.701	1	8
367.897	1	16
369.093	1	16
370.290	1	11
371.486	1	26
372.682	1	12
373.879	1	8
375.075	1	6
376.271	1	12
377.467	1	8
378.663	1	2
379.859	1	11
381.055	1	14
382.251	1	5
383.447	1	8
384.643	1	11
385.839	1	5
387.035	1	2
388.230	1	18
389.426	1	-2
390.622	1	-3
391.817	1	9
393.013	1	12
394.208	1	-4
395.404	1	-8
396.599	1	-4
397.795	1	4
398.990	1	-1
400.186	1	0
401.381	1	-6
402.576	1	1
403.771	1	-8
404.967	1	13
406.162	1	6
407.357	1	-7
408.552	1	-1
409.747	1	-2
410.942	1	14
412.137	1	7
413.332	1	5
414.526	1	1
415.721	1	-4
416.916	1	0
418.111	1	3
419.305	1	9
420.500	1	-1
421.695	1	-3
422.889	1	-9
424.084	1	-1
425.278	1	8
426.472	1	-5
427.667	1	4
428.861	1	-11
430.055	1	5
431.250	1	2
432.444	1	0
433.638	1	2
434.832	1	-1
436.026	1	7
437.220	1	-5
438.414	1	-11
439.608	1	-11
440.802	1	-7
441.996	1	7
443.190	1	5
444.384	1	-4
445.578	1	-8
446.771	1	8
447.965	1	-2
449.159	1	-3
450.352	1	-4
451.546	1	8
452.739	1	4
453.933	1	-1
455.126	1	-6
456.320	1	6
457.513	1	7
458.706	1	-6
459.899	1	-1
461.093	1	9
462.286	1	-2
463.479	1	-5
464.672	1	8
465.865	1	-3
467.058	1	-7
468.251	1	3
469.444	1	1
470.637	1	8
471.830	1	-7
473.023	1	8
474.215	1	7
475.408	1	1
476.601	1	3
477.793	1	6
478.986	1	-6
480.179	1	1
481.371	1	0
482.564	1	-2
483.756	1	1
484.948	1	-2
486.141	1	0
487.333	1	9
488.525	1	-9
489.718	1	-6
490.910	1	2
492.102	1	-2
493.294	1	-1
494.486	1	2
495.678	1	3
496.870	1	-5
498.062	1	-2
499.254	1	-6
500.446	1	-7
501.638	1	-6
502.829	1	6
504.021	1	-7
505.213	1	0
506.404	1	9
507.596	1	0
508.788	1	18
509.979	1	-1
511.171	1	-1
512.362	1	-3
513.553	1	-12
514.745	1	-1
515.936	1	-2
517.127	1	0
518.319	1	2
519.510	1	3
520.701	1	5
521.892	1	0
523.083	1	4
524.274	1	-1
525.465	1	10
526.656	1	-3
527.847	1	1
529.038	1	8
530.229	1	4
531.419	1	0
532.610	1	-3
533.801	1	15
534.991	1	5
536.182	1	-3
537.373	1	3
538.563	1	0
539.754	1	2
540.944	1	-6
542.134	1	10
543.325	1	6
544.515	1	-4
545.705	1	-4
546.896	1	5
548.086	1	8
549.276	1	-1
550.466	1	-2
551.656	1	12
552.846	1	10
554.036	1	-11
555.226	1	-1
556.416	1	-2
557.606	1	3
558.796	1	-6
559.986	1	-4
561.175	1	5
562.365	1	6
563.555	1	-5
564.744	1	10
565.934	1	4
567.123	1	-3
568.313	1	3
569.502	1	0
570.692	1	6
571.881	1	14
573.070	1	-7
574.260	1	10
575.449	1	3
576.638	1	2
577.827	1	-8
579.016	1	3
580.205	1	2
581.394	1	3
582.583	1	14
583.772	1	14
584.961	1	4
586.150	1	3
587.339	1	3
588.528	1	2
589.717	1	3
590.905	1	2
592.094	1	-2
593.283	1	5
594.471	1	8
595.660	1	6
596.848	1	-1
598.037	1	-2
599.225	1	6
600.413	1	20
601.602	1	15
602.790	1	-2
603.978	1	2
605.166	1	4
606.355	1	6
607.543	1	9
608.731	1	5
609.919	1	4
611.107	1	-2
612.295	1	-11
613.483	1	-1
614.671	1	4
615.858	1	-3
617.046	1	7
618.234	1	-4
619.422	1	-8
620.609	1	7
621.797	1	-9
622.985	1	6
624.172	1	-2
625.360	1	10
626.547	1	-2
627.735	1	-4
628.922	1	7
630.109	1	-10
631.297	1	0
632.484	1	-3
633.671	1	-1
634.858	1	0
636.045	1	16
637.232	1	-5
638.419	1	-3
639.606	1	6
640.793	1	6
641.980	1	13
643.167	1	-9
644.354	1	-2
645.541	1	1
646.728	1	-2
647.914	1	-6
649.101	1	1
650.288	1	5
651.474	1	0
652.661	1	-2
653.847	1	6
655.034	1	7
656.220	1	-12
657.406	1	9
658.593	1	9
659.779	1	4
660.965	1	16
662.152	1	1
663.338	1	4
664.524	1	0
665.710	1	-1
666.896	1	2
668.082	1	-5
669.268	1	-3
670.454	1	2
671.640	1	-1
672.826	1	-3
674.011	1	-5
675.197	1	-6
676.383	1	1
677.569	1	-3
678.754	1	0
679.940	1	-10
681.125	1	8
682.311	1	4
683.496	1	5
684.682	1	-2
685.867	1	9
687.053	1	0
688.238	1	-2
688.746	1	-4

File: GaN_sample F_spot 12_UVVIS_200 K_200um_800 ms 2x2mm1_284.txt
340.368	1	3
341.565	1	-11
342.763	1	1
343.960	1	8
345.157	1	-6
346.354	1	4
347.552	1	-3
348.749	1	0
349.946	1	-9
351.143	1	-3
352.340	1	1
353.537	1	2
354.734	1	6
355.931	1	-4
357.127	1	4
358.324	1	-1
359.521	1	2
360.718	1	6
361.914	1	5
363.111	1	-4
364.308	1	7
365.504	1	10
366.701	1	7
367.897	1	30
369.093	1	0
370.290	1	13
371.486	1	24
372.682	1	18
373.879	1	8
375.075	1	4
376.271	1	15
377.467	1	2
378.663	1	-6
379.859	1	12
381.055	1	11
382.251	1	4
383.447	1	-9
384.643	1	11
385.839	1	0
387.035	1	7
388.230	1	9
389.426	1	2
390.622	1	-3
391.817	1	-1
393.013	1	1
394.208	1	-2
395.404	1	-2
396.599	1	1
397.795	1	0
398.990	1	3
400.186	1	-6
401.381	1	4
402.576	1	8
403.771	1	8
404.967	1	4
406.162	1	3
407.357	1	2
408.552	1	-3
409.747	1	-2
410.942	1	10
412.137	1	-5
413.332	1	1
414.526	1	-2
415.721	1	-6
416.916	1	0
418.111	1	-3
419.305	1	2
420.500	1	2
421.695	1	-1
422.889	1	-4
424.084	1	-1
425.278	1	6
426.472	1	7
427.667	1	0
428.861	1	0
430.055	1	3
431.250	1	-1
432.444	1	2
433.638	1	2
434.832	1	5
436.026	1	2
437.220	1	11
438.414	1	-7
439.608	1	-6
440.802	1	-3
441.996	1	6
443.190	1	-8
444.384	1	-12
445.578	1	-9
446.771	1	6
447.965	1	-6
449.159	1	-9
450.352	1	5
451.546	1	5
452.739	1	7
453.933	1	2
455.126	1	-5
456.320	1	2
457.513	1	4
458.706	1	0
459.899	1	-2
461.093	1	-4
462.286	1	4
463.479	1	0
464.672	1	2
465.865	1	-4
467.058	1	1
468.251	1	3
469.444	1	-9
470.637	1	-3
471.830	1	-3
473.023	1	2
474.215	1	8
475.408	1	7
476.601	1	0
477.793	1	-2
478.986	1	2
480.179	1	1
481.371	1	-1
482.564	1	0
483.756	1	8
484.948	1	-9
486.141	1	-3
487.333	1	10
488.525	1	5
489.718	1	1
490.910	1	4
492.102	1	-3
493.294	1	4
494.486	1	2
495.678	1	0
496.870	1	0
498.062	1	4
499.254	1	9
500.446	1	-5
501.638	1	5
502.829	1	6
504.021	1	1
505.213	1	2
506.404	1	0
507.596	1	-1
508.788	1	10
509.979	1	-6
511.171	1	-5
512.362	1	6
513.553	1	-12
514.745	1	-2
515.936	1	-5
517.127	1	-11
518.319	1	3
519.510	1	-2
520.701	1	5
521.892	1	-5
523.083	1	-2
524.274	1	9
525.465	1	6
526.656	1	6
527.847	1	-2
529.038	1	-5
530.229	1	2
531.419	1	4
532.610	1	-3
533.801	1	6
534.991	1	12
536.182	1	-8
537.373	1	5
538.563	1	10
539.754	1	4
540.944	1	-3
542.134	1	15
543.325	1	-1
544.515	1	-2
545.705	1	-2
546.896	1	-3
548.086	1	6
549.276	1	-2
550.466	1	0
551.656	1	3
552.846	1	1
554.036	1	-7
555.226	1	-7
556.416	1	-5
557.606	1	-6
558.796	1	6
559.986	1	-2
561.175	1	8
562.365	1	8
563.555	1	-1
564.744	1	3
565.934	1	10
567.123	1	1
568.313	1	14
569.502	1	-1
570.692	1	14
571.881	1	12
573.070	1	-4
574.260	1	11
575.449	1	0
576.638	1	-1
577.827	1	-12
579.016	1	1
580.205	1	2
581.394	1	4
582.583	1	19
583.772	1	3
584.961	1	2
586.150	1	0
587.339	1	-4
588.528	1	5
589.717	1	5
590.905	1	0
592.094	1	-5
593.283	1	0
594.471	1	6
595.660	1	-6
596.848	1	7
598.037	1	-4
599.225	1	-15
600.413	1	14
601.602	1	7
602.790	1	3
603.978	1	6
605.166	1	15
606.355	1	9
607.543	1	1
608.731	1	2
609.919	1	6
611.107	1	1
612.295	1	-8
613.483	1	2
614.671	1	11
615.858	1	-1
617.046	1	3
618.234	1	4
619.422	1	0
620.609	1	11
621.797	1	8
622.985	1	3
624.172	1	-6
625.360	1	2
626.547	1	1
627.735	1	8
628.922	1	4
630.109	1	-4
631.297	1	-1
632.484	1	0
633.671	1	-11
634.858	1	-4
636.045	1	9
637.232	1	-7
638.419	1	-8
639.606	1	5
640.793	1	7
641.980	1	4
643.167	1	-5
644.354	1	2
645.541	1	-2
646.728	1	4
647.914	1	0
649.101	1	0
650.288	1	3
651.474	1	-3
652.661	1	-7
653.847	1	9
655.034	1	-2
656.220	1	-6
657.406	1	3
658.593	1	4
659.779	1	9
660.965	1	7
662.152	1	-10
663.338	1	13
664.524	1	-8
665.710	1	1
666.896	1	0
668.082	1	-4
669.268	1	-3
670.454	1	0
671.640	1	-2
672.826	1	2
674.011	1	4
675.197	1	-4
676.383	1	-3
677.569	1	-6
678.754	1	-2
679.940	1	7
681.125	1	18
682.311	1	8
683.496	1	1
684.682	1	-3
685.867	1	5
687.053	1	4
688.238	1	9
688.746	1	-2

File: GaN_sample F_spot 12_UVVIS_200 K_200um_800 ms 2x2mm1_285.txt
340.368	1	6
341.565	1	-7
342.763	1	0
343.960	1	0
345.157	1	-7
346.354	1	3
347.552	1	0
348.749	1	-13
349.946	1	-16
351.143	1	-3
352.340	1	5
353.537	1	1
354.734	1	9
355.931	1	4
357.127	1	5
358.324	1	-1
359.521	1	11
360.718	1	8
361.914	1	6
363.111	1	2
364.308	1	4
365.504	1	18
366.701	1	4
367.897	1	22
369.093	1	15
370.290	1	17
371.486	1	25
372.682	1	12
373.879	1	4
375.075	1	8
376.271	1	13
377.467	1	12
378.663	1	4
379.859	1	5
381.055	1	11
382.251	1	-2
383.447	1	-2
384.643	1	9
385.839	1	2
387.035	1	4
388.230	1	11
389.426	1	-12
390.622	1	-7
391.817	1	3
393.013	1	0
394.208	1	-2
395.404	1	-4
396.599	1	0
397.795	1	-2
398.990	1	5
400.186	1	8
401.381	1	0
402.576	1	4
403.771	1	15
404.967	1	-3
406.162	1	4
407.357	1	6
408.552	1	-9
409.747	1	-1
410.942	1	8
412.137	1	7
413.332	1	-2
414.526	1	-4
415.721	1	4
416.916	1	-7
418.111	1	-4
419.305	1	-2
420.500	1	-10
421.695	1	-8
422.889	1	-2
424.084	1	6
425.278	1	13
426.472	1	5
427.667	1	3
428.861	1	3
430.055	1	1
431.250	1	-1
432.444	1	6
433.638	1	-7
434.832	1	-1
436.026	1	6
437.220	1	1
438.414	1	-12
439.608	1	-5
440.802	1	-5
441.996	1	5
443.190	1	-9
444.384	1	-14
445.578	1	-8
446.771	1	9
447.965	1	-3
449.159	1	-5
450.352	1	-4
451.546	1	1
452.739	1	6
453.933	1	-7
455.126	1	-2
456.320	1	-2
457.513	1	-2
458.706	1	3
459.899	1	4
461.093	1	3
462.286	1	1
463.479	1	-6
464.672	1	-10
465.865	1	-2
467.058	1	1
468.251	1	5
469.444	1	-5
470.637	1	8
471.830	1	3
473.023	1	7
474.215	1	-4
475.408	1	-2
476.601	1	1
477.793	1	-2
478.986	1	-5
480.179	1	5
481.371	1	2
482.564	1	7
483.756	1	2
484.948	1	-10
486.141	1	0
487.333	1	0
488.525	1	-1
489.718	1	-4
490.910	1	1
492.102	1	-1
493.294	1	-1
494.486	1	4
495.678	1	-1
496.870	1	1
498.062	1	-4
499.254	1	-12
500.446	1	-4
501.638	1	-1
502.829	1	10
504.021	1	-3
505.213	1	3
506.404	1	1
507.596	1	7
508.788	1	7
509.979	1	0
511.171	1	-4
512.362	1	-9
513.553	1	-9
514.745	1	1
515.936	1	1
517.127	1	4
518.319	1	-2
519.510	1	5
520.701	1	-3
521.892	1	1
523.083	1	-5
524.274	1	2
525.465	1	1
526.656	1	5
527.847	1	0
529.038	1	-2
530.229	1	2
531.419	1	1
532.610	1	-1
533.801	1	6
534.991	1	7
536.182	1	3
537.373	1	13
538.563	1	-1
539.754	1	-1
540.944	1	6
542.134	1	6
543.325	1	1
544.515	1	-6
545.705	1	-7
546.896	1	-7
548.086	1	-6
549.276	1	-3
550.466	1	8
551.656	1	6
552.846	1	3
554.036	1	-4
555.226	1	-5
556.416	1	-4
557.606	1	-4
558.796	1	2
559.986	1	-3
561.175	1	-2
562.365	1	3
563.555	1	0
564.744	1	15
565.934	1	6
567.123	1	0
568.313	1	0
569.502	1	-4
570.692	1	2
571.881	1	13
573.070	1	5
574.260	1	7
575.449	1	1
576.638	1	-1
577.827	1	-3
579.016	1	3
580.205	1	-2
581.394	1	3
582.583	1	14
583.772	1	8
584.961	1	-4
586.150	1	-4
587.339	1	-3
588.528	1	5
589.717	1	5
590.905	1	3
592.094	1	-8
593.283	1	-6
594.471	1	1
595.660	1	1
596.848	1	-7
598.037	1	4
599.225	1	-5
600.413	1	11
601.602	1	13
602.790	1	8
603.978	1	1
605.166	1	6
606.355	1	7
607.543	1	0
608.731	1	5
609.919	1	8
611.107	1	3
612.295	1	3
613.483	1	4
614.671	1	0
615.858	1	6
617.046	1	1
618.234	1	9
619.422	1	-5
620.609	1	7
621.797	1	1
622.985	1	5
624.172	1	0
625.360	1	4
626.547	1	1
627.735	1	-5
628.922	1	3
630.109	1	-9
631.297	1	5
632.484	1	2
633.671	1	1
634.858	1	-6
636.045	1	10
637.232	1	-8
638.419	1	-4
639.606	1	7
640.793	1	18
641.980	1	7
643.167	1	-6
644.354	1	3
645.541	1	0
646.728	1	-3
647.914	1	-6
649.101	1	-7
650.288	1	3
651.474	1	-12
652.661	1	-3
653.847	1	0
655.034	1	13
656.220	1	-12
657.406	1	6
658.593	1	5
659.779	1	9
660.965	1	0
662.152	1	0
663.338	1	13
664.524	1	-1
665.710	1	4
666.896	1	-2
668.082	1	-1
669.268	1	-3
670.454	1	-3
671.640	1	-2
672.826	1	9
674.011	1	4
675.197	1	-9
676.383	1	6
677.569	1	0
678.754	1	2
679.940	1	1
681.125	1	3
682.311	1	6
683.496	1	7
684.682	1	-3
685.867	1	3
687.053	1	8
688.238	1	9
688.746	1	1

File: GaN_sample F_spot 12_UVVIS_200 K_200um_800 ms 2x2mm1_288.txt
340.368	1	-1
341.565	1	-11
342.763	1	3
343.960	1	1
345.157	1	-13
346.354	1	0
347.552	1	-5
348.749	1	-7
349.946	1	-3
351.143	1	5
352.340	1	4
353.537	1	0
354.734	1	9
355.931	1	4
357.127	1	-4
358.324	1	3
359.521	1	20
360.718	1	14
361.914	1	7
363.111	1	-3
364.308	1	0
365.504	1	15
366.701	1	12
367.897	1	11
369.093	1	12
370.290	1	14
371.486	1	23
372.682	1	13
373.879	1	6
375.075	1	7
376.271	1	12
377.467	1	5
378.663	1	4
379.859	1	2
381.055	1	7
382.251	1	6
383.447	1	4
384.643	1	-1
385.839	1	4
387.035	1	0
388.230	1	13
389.426	1	-10
390.622	1	1
391.817	1	0
393.013	1	-1
394.208	1	4
395.404	1	-5
396.599	1	1
397.795	1	0
398.990	1	5
400.186	1	-6
401.381	1	-8
402.576	1	-4
403.771	1	2
404.967	1	7
406.162	1	4
407.357	1	-6
408.552	1	3
409.747	1	-2
410.942	1	4
412.137	1	-2
413.332	1	-1
414.526	1	-5
415.721	1	1
416.916	1	-1
418.111	1	-1
419.305	1	-2
420.500	1	0
421.695	1	-8
422.889	1	-9
424.084	1	-1
425.278	1	2
426.472	1	-2
427.667	1	7
428.861	1	-5
430.055	1	1
431.250	1	1
432.444	1	-3
433.638	1	-3
434.832	1	1
436.026	1	7
437.220	1	0
438.414	1	0
439.608	1	-12
440.802	1	2
441.996	1	10
443.190	1	4
444.384	1	-10
445.578	1	-12
446.771	1	7
447.965	1	-3
449.159	1	4
450.352	1	8
451.546	1	-2
452.739	1	2
453.933	1	-3
455.126	1	-10
456.320	1	-1
457.513	1	-1
458.706	1	-2
459.899	1	-3
461.093	1	-5
462.286	1	3
463.479	1	5
464.672	1	-4
465.865	1	-12
467.058	1	4
468.251	1	-1
469.444	1	-7
470.637	1	1
471.830	1	2
473.023	1	-4
474.215	1	15
475.408	1	8
476.601	1	1
477.793	1	1
478.986	1	-5
480.179	1	-1
481.371	1	5
482.564	1	4
483.756	1	2
484.948	1	-1
486.141	1	-5
487.333	1	5
488.525	1	-6
489.718	1	-10
490.910	1	-7
492.102	1	1
493.294	1	1
494.486	1	11
495.678	1	-6
496.870	1	3
498.062	1	8
499.254	1	-2
500.446	1	-10
501.638	1	-5
502.829	1	1
504.021	1	5
505.213	1	10
506.404	1	1
507.596	1	-2
508.788	1	12
509.979	1	3
511.171	1	-6
512.362	1	-1
513.553	1	-16
514.745	1	-5
515.936	1	1
517.127	1	-1
518.319	1	0
519.510	1	8
520.701	1	1
521.892	1	4
523.083	1	-5
524.274	1	9
525.465	1	3
526.656	1	0
527.847	1	4
529.038	1	3
530.229	1	-1
531.419	1	4
532.610	1	-6
533.801	1	13
534.991	1	11
536.182	1	-1
537.373	1	-2
538.563	1	11
539.754	1	7
540.944	1	-2
542.134	1	2
543.325	1	-4
544.515	1	5
545.705	1	7
546.896	1	-3
548.086	1	-1
549.276	1	-2
550.466	1	-3
551.656	1	9
552.846	1	7
554.036	1	3
555.226	1	-5
556.416	1	-6
557.606	1	7
558.796	1	1
559.986	1	1
561.175	1	2
562.365	1	1
563.555	1	-2
564.744	1	7
565.934	1	4
567.123	1	4
568.313	1	-4
569.502	1	-7
570.692	1	7
571.881	1	17
573.070	1	-3
574.260	1	9
575.449	1	8
576.638	1	1
577.827	1	-6
579.016	1	8
580.205	1	1
581.394	1	-3
582.583	1	5
583.772	1	0
584.961	1	-4
586.150	1	5
587.339	1	-3
588.528	1	1
589.717	1	5
590.905	1	5
592.094	1	2
593.283	1	-4
594.471	1	6
595.660	1	1
596.848	1	4
598.037	1	-2
599.225	1	-4
600.413	1	11
601.602	1	9
602.790	1	1
603.978	1	-2
605.166	1	6
606.355	1	1
607.543	1	2
608.731	1	0
609.919	1	11
611.107	1	5
612.295	1	-5
613.483	1	3
614.671	1	6
615.858	1	6
617.046	1	2
618.234	1	-3
619.422	1	-5
620.609	1	2
621.797	1	-6
622.985	1	3
624.172	1	-1
625.360	1	2
626.547	1	4
627.735	1	2
628.922	1	16
630.109	1	-12
631.297	1	-3
632.484	1	-11
633.671	1	-12
634.858	1	-6
636.045	1	1
637.232	1	-4
638.419	1	-5
639.606	1	12
640.793	1	5
641.980	1	-5
643.167	1	-4
644.354	1	-4
645.541	1	4
646.728	1	0
647.914	1	1
649.101	1	-8
650.288	1	3
651.474	1	0
652.661	1	-1
653.847	1	7
655.034	1	8
656.220	1	-5
657.406	1	7
658.593	1	7
659.779	1	-5
660.965	1	3
662.152	1	3
663.338	1	8
664.524	1	-1
665.710	1	2
666.896	1	-6
668.082	1	11
669.268	1	4
670.454	1	5
671.640	1	2
672.826	1	-2
674.011	1	-2
675.197	1	-7
676.383	1	6
677.569	1	0
678.754	1	0
679.940	1	3
681.125	1	6
682.311	1	7
683.496	1	10
684.682	1	-11
685.867	1	2
687.053	1	-4
688.238	1	5
688.746	1	6