Folder: cryo-il_analysis/Data/GaN_170K_550ms (part 15)

File: GaN_sample D_spot 18_UVVIS_170 K_200um_550 ms 2x2mm1_157.txt
340.368	1	2
341.565	1	9
342.763	1	-2
343.960	1	-5
345.157	1	-6
346.354	1	-8
347.552	1	-4
348.749	1	1
349.946	1	13
351.143	1	-3
352.340	1	7
353.537	1	-1
354.734	1	12
355.931	1	6
357.127	1	1
358.324	1	9
359.521	1	10
360.718	1	15
361.914	1	16
363.111	1	28
364.308	1	6
365.504	1	19
366.701	1	24
367.897	1	43
369.093	1	25
370.290	1	23
371.486	1	31
372.682	1	19
373.879	1	23
375.075	1	16
376.271	1	17
377.467	1	19
378.663	1	14
379.859	1	14
381.055	1	7
382.251	1	11
383.447	1	7
384.643	1	5
385.839	1	1
387.035	1	4
388.230	1	10
389.426	1	0
390.622	1	2
391.817	1	9
393.013	1	3
394.208	1	5
395.404	1	2
396.599	1	-2
397.795	1	-1
398.990	1	-9
400.186	1	4
401.381	1	13
402.576	1	0
403.771	1	7
404.967	1	5
406.162	1	6
407.357	1	-2
408.552	1	1
409.747	1	-2
410.942	1	3
412.137	1	-8
413.332	1	0
414.526	1	2
415.721	1	4
416.916	1	3
418.111	1	6
419.305	1	1
420.500	1	-9
421.695	1	-6
422.889	1	-6
424.084	1	19
425.278	1	2
426.472	1	1
427.667	1	2
428.861	1	4
430.055	1	5
431.250	1	7
432.444	1	1
433.638	1	14
434.832	1	1
436.026	1	-2
437.220	1	-3
438.414	1	-12
439.608	1	0
440.802	1	7
441.996	1	-1
443.190	1	1
444.384	1	5
445.578	1	4
446.771	1	-8
447.965	1	4
449.159	1	1
450.352	1	0
451.546	1	-6
452.739	1	-1
453.933	1	-9
455.126	1	11
456.320	1	-1
457.513	1	17
458.706	1	10
459.899	1	10
461.093	1	4
462.286	1	-3
463.479	1	0
464.672	1	3
465.865	1	10
467.058	1	5
468.251	1	4
469.444	1	-6
470.637	1	-5
471.830	1	-3
473.023	1	6
474.215	1	10
475.408	1	-5
476.601	1	-2
477.793	1	8
478.986	1	4
480.179	1	-2
481.371	1	4
482.564	1	-4
483.756	1	6
484.948	1	-1
486.141	1	17
487.333	1	-10
488.525	1	10
489.718	1	1
490.910	1	-5
492.102	1	4
493.294	1	2
494.486	1	11
495.678	1	9
496.870	1	2
498.062	1	-1
499.254	1	5
500.446	1	2
501.638	1	-5
502.829	1	2
504.021	1	8
505.213	1	2
506.404	1	-2
507.596	1	11
508.788	1	-5
509.979	1	6
511.171	1	12
512.362	1	-1
513.553	1	-2
514.745	1	6
515.936	1	6
517.127	1	11
518.319	1	13
519.510	1	1
520.701	1	15
521.892	1	0
523.083	1	3
524.274	1	5
525.465	1	9
526.656	1	15
527.847	1	5
529.038	1	3
530.229	1	13
531.419	1	14
532.610	1	8
533.801	1	8
534.991	1	-2
536.182	1	13
537.373	1	-3
538.563	1	0
539.754	1	1
540.944	1	-9
542.134	1	1
543.325	1	14
544.515	1	2
545.705	1	2
546.896	1	12
548.086	1	6
549.276	1	3
550.466	1	0
551.656	1	10
552.846	1	4
554.036	1	2
555.226	1	2
556.416	1	3
557.606	1	3
558.796	1	-4
559.986	1	6
561.175	1	-4
562.365	1	3
563.555	1	5
564.744	1	-4
565.934	1	9
567.123	1	3
568.313	1	-6
569.502	1	-2
570.692	1	9
571.881	1	6
573.070	1	-1
574.260	1	6
575.449	1	0
576.638	1	9
577.827	1	-6
579.016	1	6
580.205	1	-11
581.394	1	7
582.583	1	1
583.772	1	-1
584.961	1	-1
586.150	1	2
587.339	1	-3
588.528	1	3
589.717	1	6
590.905	1	7
592.094	1	9
593.283	1	11
594.471	1	5
595.660	1	2
596.848	1	1
598.037	1	2
599.225	1	2
600.413	1	0
601.602	1	7
602.790	1	6
603.978	1	13
605.166	1	11
606.355	1	6
607.543	1	9
608.731	1	3
609.919	1	-1
611.107	1	-7
612.295	1	2
613.483	1	0
614.671	1	7
615.858	1	0
617.046	1	-2
618.234	1	-2
619.422	1	-7
620.609	1	14
621.797	1	2
622.985	1	5
624.172	1	1
625.360	1	9
626.547	1	2
627.735	1	-3
628.922	1	-3
630.109	1	-3
631.297	1	-5
632.484	1	-1
633.671	1	1
634.858	1	6
636.045	1	9
637.232	1	10
638.419	1	-6
639.606	1	-6
640.793	1	-1
641.980	1	-7
643.167	1	0
644.354	1	7
645.541	1	8
646.728	1	7
647.914	1	3
649.101	1	-1
650.288	1	3
651.474	1	12
652.661	1	2
653.847	1	7
655.034	1	1
656.220	1	6
657.406	1	3
658.593	1	-1
659.779	1	-2
660.965	1	14
662.152	1	9
663.338	1	11
664.524	1	6
665.710	1	7
666.896	1	1
668.082	1	9
669.268	1	-4
670.454	1	3
671.640	1	10
672.826	1	-1
674.011	1	6
675.197	1	6
676.383	1	-5
677.569	1	-3
678.754	1	2
679.940	1	9
681.125	1	5
682.311	1	5
683.496	1	5
684.682	1	-2
685.867	1	9
687.053	1	-3
688.238	1	-6
688.746	1	8

File: GaN_sample D_spot 18_UVVIS_170 K_200um_550 ms 2x2mm1_159.txt
340.368	1	0
341.565	1	1
342.763	1	8
343.960	1	-4
345.157	1	6
346.354	1	-9
347.552	1	7
348.749	1	7
349.946	1	7
351.143	1	-4
352.340	1	7
353.537	1	9
354.734	1	12
355.931	1	-1
357.127	1	3
358.324	1	6
359.521	1	8
360.718	1	4
361.914	1	11
363.111	1	25
364.308	1	25
365.504	1	10
366.701	1	32
367.897	1	23
369.093	1	21
370.290	1	33
371.486	1	25
372.682	1	16
373.879	1	25
375.075	1	30
376.271	1	28
377.467	1	11
378.663	1	10
379.859	1	6
381.055	1	14
382.251	1	4
383.447	1	11
384.643	1	11
385.839	1	0
387.035	1	3
388.230	1	5
389.426	1	7
390.622	1	-4
391.817	1	1
393.013	1	-1
394.208	1	11
395.404	1	14
396.599	1	-4
397.795	1	1
398.990	1	-8
400.186	1	-3
401.381	1	5
402.576	1	1
403.771	1	0
404.967	1	-3
406.162	1	2
407.357	1	2
408.552	1	2
409.747	1	5
410.942	1	3
412.137	1	-2
413.332	1	-1
414.526	1	9
415.721	1	-1
416.916	1	-4
418.111	1	6
419.305	1	-2
420.500	1	5
421.695	1	-6
422.889	1	3
424.084	1	15
425.278	1	2
426.472	1	6
427.667	1	5
428.861	1	0
430.055	1	-3
431.250	1	14
432.444	1	3
433.638	1	7
434.832	1	10
436.026	1	-6
437.220	1	3
438.414	1	-8
439.608	1	-5
440.802	1	11
441.996	1	2
443.190	1	-2
444.384	1	1
445.578	1	8
446.771	1	-7
447.965	1	5
449.159	1	1
450.352	1	-6
451.546	1	-8
452.739	1	-2
453.933	1	-5
455.126	1	13
456.320	1	2
457.513	1	12
458.706	1	5
459.899	1	-3
461.093	1	9
462.286	1	-9
463.479	1	-10
464.672	1	-7
465.865	1	-4
467.058	1	0
468.251	1	4
469.444	1	6
470.637	1	6
471.830	1	-2
473.023	1	6
474.215	1	0
475.408	1	0
476.601	1	10
477.793	1	11
478.986	1	-1
480.179	1	-7
481.371	1	-5
482.564	1	-3
483.756	1	-2
484.948	1	4
486.141	1	9
487.333	1	-1
488.525	1	7
489.718	1	7
490.910	1	2
492.102	1	5
493.294	1	-2
494.486	1	11
495.678	1	7
496.870	1	4
498.062	1	-3
499.254	1	8
500.446	1	4
501.638	1	-5
502.829	1	-8
504.021	1	7
505.213	1	-1
506.404	1	0
507.596	1	3
508.788	1	-6
509.979	1	10
511.171	1	7
512.362	1	1
513.553	1	10
514.745	1	6
515.936	1	2
517.127	1	9
518.319	1	14
519.510	1	16
520.701	1	10
521.892	1	-1
523.083	1	8
524.274	1	3
525.465	1	3
526.656	1	7
527.847	1	2
529.038	1	-3
530.229	1	17
531.419	1	12
532.610	1	4
533.801	1	0
534.991	1	2
536.182	1	-4
537.373	1	4
538.563	1	-2
539.754	1	9
540.944	1	1
542.134	1	9
543.325	1	1
544.515	1	8
545.705	1	9
546.896	1	11
548.086	1	7
549.276	1	4
550.466	1	1
551.656	1	10
552.846	1	1
554.036	1	6
555.226	1	-8
556.416	1	9
557.606	1	9
558.796	1	0
559.986	1	5
561.175	1	-7
562.365	1	6
563.555	1	7
564.744	1	4
565.934	1	10
567.123	1	7
568.313	1	6
569.502	1	0
570.692	1	4
571.881	1	-3
573.070	1	0
574.260	1	4
575.449	1	10
576.638	1	9
577.827	1	2
579.016	1	3
580.205	1	-7
581.394	1	0
582.583	1	0
583.772	1	-5
584.961	1	5
586.150	1	-5
587.339	1	1
588.528	1	-6
589.717	1	11
590.905	1	8
592.094	1	4
593.283	1	2
594.471	1	9
595.660	1	2
596.848	1	-5
598.037	1	3
599.225	1	4
600.413	1	-2
601.602	1	5
602.790	1	7
603.978	1	11
605.166	1	13
606.355	1	18
607.543	1	6
608.731	1	10
609.919	1	4
611.107	1	3
612.295	1	2
613.483	1	-3
614.671	1	12
615.858	1	2
617.046	1	-4
618.234	1	2
619.422	1	-5
620.609	1	13
621.797	1	4
622.985	1	2
624.172	1	-6
625.360	1	6
626.547	1	0
627.735	1	-14
628.922	1	-3
630.109	1	-4
631.297	1	0
632.484	1	-3
633.671	1	6
634.858	1	1
636.045	1	-5
637.232	1	7
638.419	1	-1
639.606	1	-10
640.793	1	5
641.980	1	3
643.167	1	-1
644.354	1	-2
645.541	1	11
646.728	1	2
647.914	1	1
649.101	1	-1
650.288	1	-1
651.474	1	10
652.661	1	1
653.847	1	2
655.034	1	0
656.220	1	7
657.406	1	0
658.593	1	1
659.779	1	11
660.965	1	9
662.152	1	-1
663.338	1	8
664.524	1	-4
665.710	1	7
666.896	1	4
668.082	1	8
669.268	1	-13
670.454	1	-4
671.640	1	5
672.826	1	-1
674.011	1	3
675.197	1	8
676.383	1	2
677.569	1	-6
678.754	1	5
679.940	1	17
681.125	1	4
682.311	1	9
683.496	1	9
684.682	1	11
685.867	1	15
687.053	1	-3
688.238	1	0
688.746	1	-4

File: GaN_sample D_spot 18_UVVIS_170 K_200um_550 ms 2x2mm1_163.txt
340.368	1	-2
341.565	1	0
342.763	1	8
343.960	1	-3
345.157	1	-3
346.354	1	-5
347.552	1	9
348.749	1	-2
349.946	1	9
351.143	1	-3
352.340	1	11
353.537	1	5
354.734	1	-4
355.931	1	3
357.127	1	0
358.324	1	8
359.521	1	16
360.718	1	8
361.914	1	10
363.111	1	22
364.308	1	28
365.504	1	18
366.701	1	22
367.897	1	25
369.093	1	18
370.290	1	36
371.486	1	14
372.682	1	16
373.879	1	14
375.075	1	6
376.271	1	18
377.467	1	5
378.663	1	16
379.859	1	6
381.055	1	16
382.251	1	11
383.447	1	5
384.643	1	3
385.839	1	7
387.035	1	9
388.230	1	-2
389.426	1	7
390.622	1	3
391.817	1	11
393.013	1	0
394.208	1	9
395.404	1	18
396.599	1	-4
397.795	1	7
398.990	1	3
400.186	1	-2
401.381	1	7
402.576	1	-2
403.771	1	6
404.967	1	-2
406.162	1	-3
407.357	1	-6
408.552	1	8
409.747	1	2
410.942	1	4
412.137	1	-9
413.332	1	1
414.526	1	4
415.721	1	6
416.916	1	-6
418.111	1	11
419.305	1	1
420.500	1	1
421.695	1	-5
422.889	1	2
424.084	1	19
425.278	1	2
426.472	1	3
427.667	1	5
428.861	1	-1
430.055	1	0
431.250	1	10
432.444	1	-3
433.638	1	9
434.832	1	6
436.026	1	-8
437.220	1	-1
438.414	1	-2
439.608	1	7
440.802	1	8
441.996	1	-7
443.190	1	5
444.384	1	4
445.578	1	10
446.771	1	-14
447.965	1	0
449.159	1	3
450.352	1	-4
451.546	1	-7
452.739	1	10
453.933	1	2
455.126	1	10
456.320	1	5
457.513	1	1
458.706	1	7
459.899	1	11
461.093	1	9
462.286	1	-5
463.479	1	-6
464.672	1	-6
465.865	1	3
467.058	1	5
468.251	1	-5
469.444	1	6
470.637	1	-4
471.830	1	3
473.023	1	5
474.215	1	11
475.408	1	-2
476.601	1	7
477.793	1	1
478.986	1	4
480.179	1	-1
481.371	1	1
482.564	1	-1
483.756	1	3
484.948	1	2
486.141	1	10
487.333	1	-6
488.525	1	9
489.718	1	8
490.910	1	3
492.102	1	1
493.294	1	3
494.486	1	7
495.678	1	-1
496.870	1	5
498.062	1	5
499.254	1	3
500.446	1	6
501.638	1	-8
502.829	1	-4
504.021	1	6
505.213	1	-1
506.404	1	3
507.596	1	12
508.788	1	3
509.979	1	10
511.171	1	7
512.362	1	-1
513.553	1	11
514.745	1	-3
515.936	1	7
517.127	1	3
518.319	1	-3
519.510	1	6
520.701	1	6
521.892	1	3
523.083	1	-2
524.274	1	-2
525.465	1	7
526.656	1	9
527.847	1	10
529.038	1	6
530.229	1	13
531.419	1	14
532.610	1	6
533.801	1	12
534.991	1	2
536.182	1	6
537.373	1	2
538.563	1	9
539.754	1	-3
540.944	1	14
542.134	1	12
543.325	1	0
544.515	1	-1
545.705	1	7
546.896	1	16
548.086	1	8
549.276	1	10
550.466	1	8
551.656	1	5
552.846	1	5
554.036	1	6
555.226	1	-4
556.416	1	10
557.606	1	12
558.796	1	-2
559.986	1	10
561.175	1	-3
562.365	1	9
563.555	1	5
564.744	1	4
565.934	1	9
567.123	1	7
568.313	1	-1
569.502	1	5
570.692	1	12
571.881	1	2
573.070	1	3
574.260	1	5
575.449	1	11
576.638	1	11
577.827	1	-8
579.016	1	6
580.205	1	2
581.394	1	1
582.583	1	0
583.772	1	8
584.961	1	4
586.150	1	6
587.339	1	3
588.528	1	1
589.717	1	13
590.905	1	9
592.094	1	2
593.283	1	3
594.471	1	4
595.660	1	5
596.848	1	2
598.037	1	-2
599.225	1	-1
600.413	1	2
601.602	1	0
602.790	1	10
603.978	1	6
605.166	1	6
606.355	1	4
607.543	1	8
608.731	1	8
609.919	1	1
611.107	1	-1
612.295	1	1
613.483	1	5
614.671	1	14
615.858	1	1
617.046	1	1
618.234	1	5
619.422	1	-9
620.609	1	6
621.797	1	2
622.985	1	4
624.172	1	5
625.360	1	2
626.547	1	-5
627.735	1	-7
628.922	1	-5
630.109	1	-8
631.297	1	-9
632.484	1	-4
633.671	1	10
634.858	1	6
636.045	1	3
637.232	1	-1
638.419	1	-10
639.606	1	0
640.793	1	-2
641.980	1	-5
643.167	1	-3
644.354	1	2
645.541	1	-1
646.728	1	3
647.914	1	6
649.101	1	-1
650.288	1	-3
651.474	1	5
652.661	1	5
653.847	1	7
655.034	1	4
656.220	1	-3
657.406	1	-5
658.593	1	4
659.779	1	0
660.965	1	13
662.152	1	9
663.338	1	3
664.524	1	-1
665.710	1	14
666.896	1	-1
668.082	1	17
669.268	1	4
670.454	1	-6
671.640	1	4
672.826	1	4
674.011	1	7
675.197	1	6
676.383	1	-3
677.569	1	-8
678.754	1	7
679.940	1	16
681.125	1	4
682.311	1	-5
683.496	1	7
684.682	1	4
685.867	1	8
687.053	1	-10
688.238	1	2
688.746	1	-3

File: GaN_sample D_spot 18_UVVIS_170 K_200um_550 ms 2x2mm1_164.txt
340.368	1	6
341.565	1	3
342.763	1	7
343.960	1	-5
345.157	1	6
346.354	1	-7
347.552	1	12
348.749	1	15
349.946	1	8
351.143	1	4
352.340	1	3
353.537	1	4
354.734	1	10
355.931	1	8
357.127	1	4
358.324	1	8
359.521	1	11
360.718	1	6
361.914	1	10
363.111	1	21
364.308	1	9
365.504	1	31
366.701	1	35
367.897	1	21
369.093	1	24
370.290	1	35
371.486	1	16
372.682	1	32
373.879	1	26
375.075	1	19
376.271	1	16
377.467	1	15
378.663	1	9
379.859	1	14
381.055	1	2
382.251	1	5
383.447	1	9
384.643	1	4
385.839	1	0
387.035	1	-3
388.230	1	5
389.426	1	6
390.622	1	0
391.817	1	3
393.013	1	-3
394.208	1	12
395.404	1	15
396.599	1	-5
397.795	1	2
398.990	1	-6
400.186	1	8
401.381	1	-2
402.576	1	-4
403.771	1	3
404.967	1	1
406.162	1	5
407.357	1	1
408.552	1	-3
409.747	1	0
410.942	1	-2
412.137	1	-8
413.332	1	-2
414.526	1	4
415.721	1	-1
416.916	1	3
418.111	1	1
419.305	1	0
420.500	1	0
421.695	1	-8
422.889	1	5
424.084	1	18
425.278	1	5
426.472	1	-5
427.667	1	1
428.861	1	7
430.055	1	4
431.250	1	14
432.444	1	3
433.638	1	8
434.832	1	1
436.026	1	4
437.220	1	-4
438.414	1	-7
439.608	1	-6
440.802	1	17
441.996	1	3
443.190	1	-4
444.384	1	-3
445.578	1	3
446.771	1	-15
447.965	1	-6
449.159	1	-7
450.352	1	-1
451.546	1	-7
452.739	1	11
453.933	1	7
455.126	1	8
456.320	1	7
457.513	1	14
458.706	1	3
459.899	1	1
461.093	1	1
462.286	1	-1
463.479	1	-3
464.672	1	-6
465.865	1	-8
467.058	1	-1
468.251	1	6
469.444	1	-1
470.637	1	-2
471.830	1	0
473.023	1	5
474.215	1	9
475.408	1	-1
476.601	1	7
477.793	1	2
478.986	1	2
480.179	1	-2
481.371	1	-1
482.564	1	-2
483.756	1	6
484.948	1	2
486.141	1	7
487.333	1	-3
488.525	1	6
489.718	1	5
490.910	1	3
492.102	1	-2
493.294	1	1
494.486	1	13
495.678	1	6
496.870	1	2
498.062	1	4
499.254	1	9
500.446	1	-2
501.638	1	0
502.829	1	3
504.021	1	-1
505.213	1	5
506.404	1	3
507.596	1	12
508.788	1	6
509.979	1	4
511.171	1	4
512.362	1	6
513.553	1	-5
514.745	1	2
515.936	1	-6
517.127	1	11
518.319	1	5
519.510	1	14
520.701	1	6
521.892	1	1
523.083	1	1
524.274	1	9
525.465	1	12
526.656	1	16
527.847	1	5
529.038	1	3
530.229	1	20
531.419	1	18
532.610	1	3
533.801	1	5
534.991	1	9
536.182	1	2
537.373	1	-4
538.563	1	11
539.754	1	4
540.944	1	-1
542.134	1	6
543.325	1	5
544.515	1	5
545.705	1	10
546.896	1	1
548.086	1	3
549.276	1	10
550.466	1	1
551.656	1	2
552.846	1	-9
554.036	1	8
555.226	1	-10
556.416	1	5
557.606	1	4
558.796	1	4
559.986	1	1
561.175	1	-7
562.365	1	5
563.555	1	-4
564.744	1	6
565.934	1	10
567.123	1	-1
568.313	1	-2
569.502	1	4
570.692	1	4
571.881	1	-3
573.070	1	5
574.260	1	8
575.449	1	4
576.638	1	1
577.827	1	-2
579.016	1	8
580.205	1	-3
581.394	1	8
582.583	1	-5
583.772	1	2
584.961	1	1
586.150	1	-1
587.339	1	-3
588.528	1	3
589.717	1	9
590.905	1	14
592.094	1	8
593.283	1	8
594.471	1	16
595.660	1	0
596.848	1	12
598.037	1	-6
599.225	1	8
600.413	1	-4
601.602	1	4
602.790	1	14
603.978	1	8
605.166	1	16
606.355	1	0
607.543	1	6
608.731	1	5
609.919	1	2
611.107	1	-1
612.295	1	2
613.483	1	-7
614.671	1	17
615.858	1	-1
617.046	1	5
618.234	1	6
619.422	1	-3
620.609	1	4
621.797	1	0
622.985	1	7
624.172	1	9
625.360	1	2
626.547	1	-5
627.735	1	-13
628.922	1	-2
630.109	1	-3
631.297	1	-5
632.484	1	-2
633.671	1	10
634.858	1	-9
636.045	1	0
637.232	1	4
638.419	1	-5
639.606	1	-8
640.793	1	-4
641.980	1	-2
643.167	1	2
644.354	1	-3
645.541	1	-3
646.728	1	2
647.914	1	-2
649.101	1	4
650.288	1	8
651.474	1	9
652.661	1	9
653.847	1	7
655.034	1	3
656.220	1	-10
657.406	1	-3
658.593	1	3
659.779	1	-1
660.965	1	9
662.152	1	7
663.338	1	5
664.524	1	11
665.710	1	5
666.896	1	6
668.082	1	15
669.268	1	-4
670.454	1	-3
671.640	1	13
672.826	1	-4
674.011	1	5
675.197	1	11
676.383	1	-1
677.569	1	4
678.754	1	3
679.940	1	10
681.125	1	9
682.311	1	3
683.496	1	7
684.682	1	4
685.867	1	2
687.053	1	-1
688.238	1	-5
688.746	1	-5

File: GaN_sample D_spot 18_UVVIS_170 K_200um_550 ms 2x2mm1_165.txt
340.368	1	-2
341.565	1	2
342.763	1	4
343.960	1	-2
345.157	1	-2
346.354	1	-3
347.552	1	7
348.749	1	4
349.946	1	8
351.143	1	-2
352.340	1	10
353.537	1	4
354.734	1	11
355.931	1	4
357.127	1	-3
358.324	1	5
359.521	1	9
360.718	1	-2
361.914	1	10
363.111	1	22
364.308	1	8
365.504	1	15
366.701	1	25
367.897	1	38
369.093	1	18
370.290	1	25
371.486	1	22
372.682	1	18
373.879	1	21
375.075	1	13
376.271	1	27
377.467	1	21
378.663	1	8
379.859	1	13
381.055	1	14
382.251	1	15
383.447	1	12
384.643	1	1
385.839	1	-9
387.035	1	7
388.230	1	6
389.426	1	10
390.622	1	-3
391.817	1	-2
393.013	1	4
394.208	1	5
395.404	1	7
396.599	1	1
397.795	1	10
398.990	1	-9
400.186	1	-2
401.381	1	3
402.576	1	1
403.771	1	5
404.967	1	-1
406.162	1	0
407.357	1	0
408.552	1	4
409.747	1	6
410.942	1	1
412.137	1	-11
413.332	1	-4
414.526	1	1
415.721	1	-6
416.916	1	-1
418.111	1	6
419.305	1	4
420.500	1	6
421.695	1	-15
422.889	1	-2
424.084	1	10
425.278	1	0
426.472	1	3
427.667	1	-3
428.861	1	2
430.055	1	4
431.250	1	9
432.444	1	7
433.638	1	5
434.832	1	7
436.026	1	-2
437.220	1	-6
438.414	1	-14
439.608	1	-4
440.802	1	4
441.996	1	1
443.190	1	3
444.384	1	1
445.578	1	11
446.771	1	-15
447.965	1	6
449.159	1	-6
450.352	1	4
451.546	1	-7
452.739	1	-2
453.933	1	3
455.126	1	17
456.320	1	-1
457.513	1	3
458.706	1	2
459.899	1	6
461.093	1	9
462.286	1	-4
463.479	1	-1
464.672	1	-6
465.865	1	-2
467.058	1	7
468.251	1	2
469.444	1	2
470.637	1	1
471.830	1	-1
473.023	1	-2
474.215	1	0
475.408	1	4
476.601	1	2
477.793	1	5
478.986	1	-7
480.179	1	-10
481.371	1	4
482.564	1	-1
483.756	1	3
484.948	1	2
486.141	1	13
487.333	1	-3
488.525	1	-4
489.718	1	15
490.910	1	8
492.102	1	-4
493.294	1	-6
494.486	1	13
495.678	1	2
496.870	1	0
498.062	1	1
499.254	1	4
500.446	1	-4
501.638	1	-8
502.829	1	2
504.021	1	6
505.213	1	-2
506.404	1	2
507.596	1	9
508.788	1	-2
509.979	1	9
511.171	1	14
512.362	1	0
513.553	1	-1
514.745	1	-2
515.936	1	-3
517.127	1	5
518.319	1	6
519.510	1	11
520.701	1	4
521.892	1	1
523.083	1	-2
524.274	1	5
525.465	1	5
526.656	1	7
527.847	1	2
529.038	1	2
530.229	1	19
531.419	1	17
532.610	1	9
533.801	1	7
534.991	1	7
536.182	1	7
537.373	1	6
538.563	1	5
539.754	1	5
540.944	1	2
542.134	1	2
543.325	1	7
544.515	1	-1
545.705	1	5
546.896	1	13
548.086	1	3
549.276	1	5
550.466	1	7
551.656	1	2
552.846	1	4
554.036	1	1
555.226	1	-6
556.416	1	1
557.606	1	6
558.796	1	-1
559.986	1	4
561.175	1	-1
562.365	1	-2
563.555	1	3
564.744	1	9
565.934	1	7
567.123	1	0
568.313	1	5
569.502	1	7
570.692	1	12
571.881	1	-8
573.070	1	2
574.260	1	8
575.449	1	1
576.638	1	5
577.827	1	3
579.016	1	5
580.205	1	1
581.394	1	9
582.583	1	-3
583.772	1	6
584.961	1	0
586.150	1	-7
587.339	1	-7
588.528	1	-2
589.717	1	5
590.905	1	15
592.094	1	8
593.283	1	3
594.471	1	7
595.660	1	-1
596.848	1	4
598.037	1	8
599.225	1	-6
600.413	1	0
601.602	1	5
602.790	1	4
603.978	1	5
605.166	1	10
606.355	1	11
607.543	1	4
608.731	1	1
609.919	1	-2
611.107	1	-7
612.295	1	0
613.483	1	1
614.671	1	4
615.858	1	15
617.046	1	-3
618.234	1	6
619.422	1	-8
620.609	1	4
621.797	1	10
622.985	1	12
624.172	1	3
625.360	1	3
626.547	1	-10
627.735	1	-21
628.922	1	-12
630.109	1	-1
631.297	1	-12
632.484	1	5
633.671	1	11
634.858	1	1
636.045	1	5
637.232	1	-5
638.419	1	-4
639.606	1	-3
640.793	1	-1
641.980	1	8
643.167	1	-3
644.354	1	8
645.541	1	1
646.728	1	8
647.914	1	10
649.101	1	-6
650.288	1	1
651.474	1	8
652.661	1	-5
653.847	1	-1
655.034	1	-14
656.220	1	4
657.406	1	-10
658.593	1	-8
659.779	1	5
660.965	1	9
662.152	1	-1
663.338	1	3
664.524	1	5
665.710	1	0
666.896	1	1
668.082	1	9
669.268	1	2
670.454	1	-7
671.640	1	7
672.826	1	-2
674.011	1	10
675.197	1	1
676.383	1	-1
677.569	1	-3
678.754	1	6
679.940	1	3
681.125	1	16
682.311	1	-2
683.496	1	-8
684.682	1	8
685.867	1	4
687.053	1	-9
688.238	1	0
688.746	1	-15

File: GaN_sample D_spot 18_UVVIS_170 K_200um_550 ms 2x2mm1_168.txt
340.368	1	0
341.565	1	3
342.763	1	-1
343.960	1	-3
345.157	1	11
346.354	1	-5
347.552	1	-4
348.749	1	10
349.946	1	4
351.143	1	-1
352.340	1	4
353.537	1	13
354.734	1	8
355.931	1	11
357.127	1	8
358.324	1	15
359.521	1	5
360.718	1	4
361.914	1	21
363.111	1	19
364.308	1	13
365.504	1	10
366.701	1	20
367.897	1	18
369.093	1	14
370.290	1	26
371.486	1	19
372.682	1	25
373.879	1	17
375.075	1	14
376.271	1	16
377.467	1	12
378.663	1	6
379.859	1	16
381.055	1	8
382.251	1	11
383.447	1	17
384.643	1	11
385.839	1	-4
387.035	1	1
388.230	1	10
389.426	1	11
390.622	1	1
391.817	1	5
393.013	1	2
394.208	1	9
395.404	1	16
396.599	1	-6
397.795	1	3
398.990	1	-1
400.186	1	-4
401.381	1	12
402.576	1	4
403.771	1	6
404.967	1	7
406.162	1	1
407.357	1	-5
408.552	1	-6
409.747	1	1
410.942	1	2
412.137	1	-1
413.332	1	5
414.526	1	14
415.721	1	2
416.916	1	-6
418.111	1	2
419.305	1	-4
420.500	1	9
421.695	1	-9
422.889	1	-9
424.084	1	15
425.278	1	-1
426.472	1	2
427.667	1	4
428.861	1	4
430.055	1	-4
431.250	1	15
432.444	1	2
433.638	1	4
434.832	1	10
436.026	1	-2
437.220	1	4
438.414	1	1
439.608	1	-2
440.802	1	9
441.996	1	-4
443.190	1	-1
444.384	1	4
445.578	1	8
446.771	1	-9
447.965	1	-5
449.159	1	9
450.352	1	-4
451.546	1	-3
452.739	1	3
453.933	1	3
455.126	1	4
456.320	1	2
457.513	1	16
458.706	1	13
459.899	1	-4
461.093	1	1
462.286	1	0
463.479	1	3
464.672	1	3
465.865	1	1
467.058	1	5
468.251	1	7
469.444	1	-3
470.637	1	2
471.830	1	-1
473.023	1	-5
474.215	1	6
475.408	1	-6
476.601	1	0
477.793	1	3
478.986	1	-1
480.179	1	-1
481.371	1	8
482.564	1	-2
483.756	1	2
484.948	1	0
486.141	1	6
487.333	1	-4
488.525	1	1
489.718	1	11
490.910	1	-1
492.102	1	-1
493.294	1	5
494.486	1	10
495.678	1	-2
496.870	1	9
498.062	1	2
499.254	1	2
500.446	1	-1
501.638	1	-8
502.829	1	2
504.021	1	0
505.213	1	-1
506.404	1	7
507.596	1	8
508.788	1	5
509.979	1	9
511.171	1	3
512.362	1	6
513.553	1	12
514.745	1	3
515.936	1	10
517.127	1	11
518.319	1	11
519.510	1	6
520.701	1	4
521.892	1	6
523.083	1	0
524.274	1	10
525.465	1	9
526.656	1	9
527.847	1	6
529.038	1	2
530.229	1	17
531.419	1	10
532.610	1	9
533.801	1	8
534.991	1	3
536.182	1	5
537.373	1	8
538.563	1	6
539.754	1	4
540.944	1	-2
542.134	1	6
543.325	1	3
544.515	1	-3
545.705	1	8
546.896	1	8
548.086	1	5
549.276	1	7
550.466	1	5
551.656	1	8
552.846	1	2
554.036	1	1
555.226	1	3
556.416	1	2
557.606	1	4
558.796	1	-2
559.986	1	7
561.175	1	-7
562.365	1	8
563.555	1	3
564.744	1	10
565.934	1	-1
567.123	1	5
568.313	1	4
569.502	1	-4
570.692	1	8
571.881	1	-4
573.070	1	5
574.260	1	8
575.449	1	7
576.638	1	1
577.827	1	7
579.016	1	5
580.205	1	-2
581.394	1	3
582.583	1	2
583.772	1	-1
584.961	1	-9
586.150	1	-4
587.339	1	9
588.528	1	0
589.717	1	12
590.905	1	8
592.094	1	13
593.283	1	8
594.471	1	8
595.660	1	8
596.848	1	0
598.037	1	-5
599.225	1	6
600.413	1	-4
601.602	1	14
602.790	1	19
603.978	1	6
605.166	1	12
606.355	1	5
607.543	1	14
608.731	1	2
609.919	1	2
611.107	1	0
612.295	1	0
613.483	1	-8
614.671	1	9
615.858	1	6
617.046	1	-7
618.234	1	1
619.422	1	-5
620.609	1	3
621.797	1	3
622.985	1	4
624.172	1	-3
625.360	1	9
626.547	1	-2
627.735	1	-15
628.922	1	1
630.109	1	-2
631.297	1	-3
632.484	1	-6
633.671	1	7
634.858	1	3
636.045	1	8
637.232	1	7
638.419	1	0
639.606	1	-3
640.793	1	-1
641.980	1	-5
643.167	1	-2
644.354	1	5
645.541	1	7
646.728	1	3
647.914	1	12
649.101	1	11
650.288	1	6
651.474	1	9
652.661	1	3
653.847	1	10
655.034	1	-1
656.220	1	7
657.406	1	0
658.593	1	6
659.779	1	4
660.965	1	12
662.152	1	-3
663.338	1	3
664.524	1	10
665.710	1	12
666.896	1	5
668.082	1	8
669.268	1	-5
670.454	1	-1
671.640	1	-5
672.826	1	-3
674.011	1	2
675.197	1	4
676.383	1	4
677.569	1	-4
678.754	1	-4
679.940	1	3
681.125	1	12
682.311	1	-6
683.496	1	-3
684.682	1	2
685.867	1	1
687.053	1	-5
688.238	1	2
688.746	1	-1