Folder: cryo-il_analysis/Data/GaN_200K_800ms (part 6)

File: GaN_sample F_spot 12_UVVIS_200 K_200um_800 ms 2x2mm1_47.txt
340.368	1	14
341.565	1	-4
342.763	1	10
343.960	1	9
345.157	1	4
346.354	1	14
347.552	1	5
348.749	1	6
349.946	1	-3
351.143	1	7
352.340	1	18
353.537	1	16
354.734	1	21
355.931	1	28
357.127	1	28
358.324	1	37
359.521	1	69
360.718	1	77
361.914	1	110
363.111	1	155
364.308	1	208
365.504	1	321
366.701	1	411
367.897	1	563
369.093	1	636
370.290	1	621
371.486	1	571
372.682	1	456
373.879	1	385
375.075	1	317
376.271	1	290
377.467	1	233
378.663	1	177
379.859	1	154
381.055	1	124
382.251	1	101
383.447	1	98
384.643	1	95
385.839	1	82
387.035	1	69
388.230	1	56
389.426	1	52
390.622	1	42
391.817	1	39
393.013	1	34
394.208	1	38
395.404	1	22
396.599	1	27
397.795	1	27
398.990	1	29
400.186	1	20
401.381	1	12
402.576	1	16
403.771	1	18
404.967	1	13
406.162	1	7
407.357	1	8
408.552	1	5
409.747	1	18
410.942	1	11
412.137	1	12
413.332	1	7
414.526	1	16
415.721	1	8
416.916	1	2
418.111	1	6
419.305	1	10
420.500	1	5
421.695	1	6
422.889	1	-4
424.084	1	11
425.278	1	17
426.472	1	5
427.667	1	15
428.861	1	2
430.055	1	7
431.250	1	9
432.444	1	11
433.638	1	2
434.832	1	9
436.026	1	6
437.220	1	11
438.414	1	-9
439.608	1	-5
440.802	1	3
441.996	1	4
443.190	1	9
444.384	1	1
445.578	1	-3
446.771	1	14
447.965	1	4
449.159	1	-2
450.352	1	5
451.546	1	19
452.739	1	10
453.933	1	0
455.126	1	-3
456.320	1	-1
457.513	1	6
458.706	1	9
459.899	1	0
461.093	1	13
462.286	1	5
463.479	1	4
464.672	1	8
465.865	1	3
467.058	1	8
468.251	1	0
469.444	1	0
470.637	1	2
471.830	1	5
473.023	1	-1
474.215	1	13
475.408	1	7
476.601	1	7
477.793	1	1
478.986	1	1
480.179	1	6
481.371	1	2
482.564	1	10
483.756	1	17
484.948	1	-4
486.141	1	9
487.333	1	17
488.525	1	9
489.718	1	13
490.910	1	15
492.102	1	13
493.294	1	4
494.486	1	19
495.678	1	9
496.870	1	21
498.062	1	15
499.254	1	15
500.446	1	13
501.638	1	22
502.829	1	13
504.021	1	27
505.213	1	31
506.404	1	29
507.596	1	29
508.788	1	35
509.979	1	25
511.171	1	25
512.362	1	27
513.553	1	27
514.745	1	37
515.936	1	25
517.127	1	39
518.319	1	33
519.510	1	26
520.701	1	37
521.892	1	36
523.083	1	39
524.274	1	38
525.465	1	40
526.656	1	40
527.847	1	42
529.038	1	42
530.229	1	53
531.419	1	53
532.610	1	41
533.801	1	67
534.991	1	48
536.182	1	41
537.373	1	48
538.563	1	52
539.754	1	50
540.944	1	44
542.134	1	44
543.325	1	40
544.515	1	41
545.705	1	42
546.896	1	50
548.086	1	54
549.276	1	55
550.466	1	52
551.656	1	52
552.846	1	56
554.036	1	47
555.226	1	51
556.416	1	45
557.606	1	54
558.796	1	51
559.986	1	48
561.175	1	55
562.365	1	44
563.555	1	40
564.744	1	49
565.934	1	60
567.123	1	56
568.313	1	57
569.502	1	50
570.692	1	61
571.881	1	49
573.070	1	51
574.260	1	63
575.449	1	32
576.638	1	39
577.827	1	47
579.016	1	57
580.205	1	42
581.394	1	49
582.583	1	52
583.772	1	50
584.961	1	50
586.150	1	42
587.339	1	50
588.528	1	46
589.717	1	43
590.905	1	55
592.094	1	38
593.283	1	40
594.471	1	50
595.660	1	43
596.848	1	38
598.037	1	34
599.225	1	40
600.413	1	39
601.602	1	52
602.790	1	36
603.978	1	33
605.166	1	40
606.355	1	33
607.543	1	41
608.731	1	48
609.919	1	39
611.107	1	31
612.295	1	26
613.483	1	34
614.671	1	26
615.858	1	42
617.046	1	31
618.234	1	25
619.422	1	22
620.609	1	36
621.797	1	18
622.985	1	28
624.172	1	22
625.360	1	22
626.547	1	27
627.735	1	26
628.922	1	33
630.109	1	20
631.297	1	24
632.484	1	25
633.671	1	19
634.858	1	8
636.045	1	35
637.232	1	9
638.419	1	37
639.606	1	29
640.793	1	24
641.980	1	37
643.167	1	21
644.354	1	32
645.541	1	19
646.728	1	19
647.914	1	19
649.101	1	12
650.288	1	28
651.474	1	10
652.661	1	16
653.847	1	21
655.034	1	9
656.220	1	11
657.406	1	20
658.593	1	24
659.779	1	15
660.965	1	22
662.152	1	15
663.338	1	18
664.524	1	16
665.710	1	10
666.896	1	13
668.082	1	20
669.268	1	7
670.454	1	17
671.640	1	17
672.826	1	20
674.011	1	17
675.197	1	9
676.383	1	16
677.569	1	5
678.754	1	7
679.940	1	5
681.125	1	22
682.311	1	20
683.496	1	16
684.682	1	10
685.867	1	18
687.053	1	9
688.238	1	20
688.746	1	15

File: GaN_sample F_spot 12_UVVIS_200 K_200um_800 ms 2x2mm1_48.txt
340.368	1	0
341.565	1	-5
342.763	1	12
343.960	1	6
345.157	1	-2
346.354	1	12
347.552	1	10
348.749	1	5
349.946	1	1
351.143	1	8
352.340	1	22
353.537	1	19
354.734	1	21
355.931	1	20
357.127	1	32
358.324	1	32
359.521	1	51
360.718	1	72
361.914	1	104
363.111	1	146
364.308	1	206
365.504	1	285
366.701	1	396
367.897	1	505
369.093	1	602
370.290	1	562
371.486	1	516
372.682	1	427
373.879	1	359
375.075	1	298
376.271	1	264
377.467	1	216
378.663	1	174
379.859	1	135
381.055	1	130
382.251	1	102
383.447	1	75
384.643	1	91
385.839	1	76
387.035	1	67
388.230	1	57
389.426	1	45
390.622	1	39
391.817	1	46
393.013	1	36
394.208	1	36
395.404	1	17
396.599	1	18
397.795	1	29
398.990	1	23
400.186	1	18
401.381	1	9
402.576	1	14
403.771	1	20
404.967	1	10
406.162	1	23
407.357	1	4
408.552	1	10
409.747	1	6
410.942	1	12
412.137	1	9
413.332	1	11
414.526	1	11
415.721	1	9
416.916	1	6
418.111	1	9
419.305	1	12
420.500	1	4
421.695	1	6
422.889	1	-4
424.084	1	3
425.278	1	8
426.472	1	5
427.667	1	7
428.861	1	-3
430.055	1	9
431.250	1	3
432.444	1	11
433.638	1	-1
434.832	1	3
436.026	1	10
437.220	1	10
438.414	1	-1
439.608	1	-7
440.802	1	0
441.996	1	10
443.190	1	5
444.384	1	-1
445.578	1	5
446.771	1	12
447.965	1	0
449.159	1	-3
450.352	1	1
451.546	1	2
452.739	1	7
453.933	1	3
455.126	1	-1
456.320	1	3
457.513	1	4
458.706	1	10
459.899	1	7
461.093	1	11
462.286	1	10
463.479	1	2
464.672	1	6
465.865	1	2
467.058	1	-2
468.251	1	13
469.444	1	-6
470.637	1	7
471.830	1	2
473.023	1	7
474.215	1	17
475.408	1	5
476.601	1	10
477.793	1	2
478.986	1	5
480.179	1	6
481.371	1	9
482.564	1	11
483.756	1	18
484.948	1	1
486.141	1	6
487.333	1	13
488.525	1	8
489.718	1	9
490.910	1	8
492.102	1	3
493.294	1	9
494.486	1	20
495.678	1	7
496.870	1	11
498.062	1	16
499.254	1	14
500.446	1	11
501.638	1	13
502.829	1	29
504.021	1	15
505.213	1	17
506.404	1	35
507.596	1	28
508.788	1	41
509.979	1	25
511.171	1	16
512.362	1	11
513.553	1	13
514.745	1	19
515.936	1	17
517.127	1	29
518.319	1	39
519.510	1	33
520.701	1	38
521.892	1	34
523.083	1	35
524.274	1	36
525.465	1	49
526.656	1	41
527.847	1	38
529.038	1	43
530.229	1	38
531.419	1	47
532.610	1	31
533.801	1	62
534.991	1	44
536.182	1	46
537.373	1	50
538.563	1	56
539.754	1	42
540.944	1	30
542.134	1	46
543.325	1	43
544.515	1	36
545.705	1	41
546.896	1	40
548.086	1	50
549.276	1	50
550.466	1	46
551.656	1	39
552.846	1	56
554.036	1	45
555.226	1	42
556.416	1	28
557.606	1	51
558.796	1	48
559.986	1	36
561.175	1	55
562.365	1	40
563.555	1	48
564.744	1	52
565.934	1	40
567.123	1	43
568.313	1	47
569.502	1	41
570.692	1	48
571.881	1	58
573.070	1	39
574.260	1	50
575.449	1	41
576.638	1	40
577.827	1	38
579.016	1	46
580.205	1	43
581.394	1	44
582.583	1	55
583.772	1	37
584.961	1	46
586.150	1	46
587.339	1	45
588.528	1	43
589.717	1	41
590.905	1	38
592.094	1	37
593.283	1	35
594.471	1	47
595.660	1	34
596.848	1	38
598.037	1	23
599.225	1	23
600.413	1	35
601.602	1	47
602.790	1	31
603.978	1	33
605.166	1	38
606.355	1	39
607.543	1	33
608.731	1	39
609.919	1	33
611.107	1	29
612.295	1	23
613.483	1	29
614.671	1	33
615.858	1	28
617.046	1	38
618.234	1	18
619.422	1	14
620.609	1	31
621.797	1	27
622.985	1	18
624.172	1	27
625.360	1	28
626.547	1	30
627.735	1	16
628.922	1	31
630.109	1	15
631.297	1	16
632.484	1	24
633.671	1	22
634.858	1	28
636.045	1	27
637.232	1	19
638.419	1	2
639.606	1	20
640.793	1	34
641.980	1	17
643.167	1	21
644.354	1	29
645.541	1	20
646.728	1	16
647.914	1	21
649.101	1	12
650.288	1	19
651.474	1	10
652.661	1	5
653.847	1	16
655.034	1	18
656.220	1	1
657.406	1	11
658.593	1	21
659.779	1	12
660.965	1	17
662.152	1	22
663.338	1	18
664.524	1	17
665.710	1	21
666.896	1	3
668.082	1	11
669.268	1	9
670.454	1	16
671.640	1	18
672.826	1	9
674.011	1	9
675.197	1	0
676.383	1	12
677.569	1	14
678.754	1	12
679.940	1	15
681.125	1	15
682.311	1	23
683.496	1	12
684.682	1	7
685.867	1	8
687.053	1	25
688.238	1	10
688.746	1	4

File: GaN_sample F_spot 12_UVVIS_200 K_200um_800 ms 2x2mm1_49.txt
340.368	1	9
341.565	1	-2
342.763	1	6
343.960	1	6
345.157	1	-2
346.354	1	8
347.552	1	2
348.749	1	-3
349.946	1	-2
351.143	1	10
352.340	1	14
353.537	1	13
354.734	1	21
355.931	1	23
357.127	1	31
358.324	1	44
359.521	1	59
360.718	1	64
361.914	1	95
363.111	1	115
364.308	1	193
365.504	1	259
366.701	1	380
367.897	1	463
369.093	1	522
370.290	1	540
371.486	1	477
372.682	1	403
373.879	1	335
375.075	1	277
376.271	1	257
377.467	1	185
378.663	1	166
379.859	1	135
381.055	1	114
382.251	1	96
383.447	1	77
384.643	1	80
385.839	1	75
387.035	1	59
388.230	1	61
389.426	1	42
390.622	1	32
391.817	1	43
393.013	1	24
394.208	1	21
395.404	1	16
396.599	1	18
397.795	1	22
398.990	1	32
400.186	1	24
401.381	1	12
402.576	1	3
403.771	1	23
404.967	1	14
406.162	1	14
407.357	1	11
408.552	1	5
409.747	1	18
410.942	1	17
412.137	1	11
413.332	1	7
414.526	1	4
415.721	1	6
416.916	1	6
418.111	1	8
419.305	1	13
420.500	1	3
421.695	1	4
422.889	1	-7
424.084	1	4
425.278	1	11
426.472	1	5
427.667	1	17
428.861	1	-1
430.055	1	7
431.250	1	1
432.444	1	13
433.638	1	2
434.832	1	8
436.026	1	21
437.220	1	6
438.414	1	-5
439.608	1	-6
440.802	1	0
441.996	1	5
443.190	1	9
444.384	1	-4
445.578	1	0
446.771	1	16
447.965	1	16
449.159	1	-3
450.352	1	-1
451.546	1	8
452.739	1	5
453.933	1	3
455.126	1	-3
456.320	1	-5
457.513	1	13
458.706	1	5
459.899	1	9
461.093	1	1
462.286	1	2
463.479	1	11
464.672	1	5
465.865	1	10
467.058	1	12
468.251	1	-1
469.444	1	2
470.637	1	7
471.830	1	9
473.023	1	12
474.215	1	14
475.408	1	14
476.601	1	5
477.793	1	-3
478.986	1	2
480.179	1	14
481.371	1	12
482.564	1	9
483.756	1	8
484.948	1	4
486.141	1	11
487.333	1	10
488.525	1	20
489.718	1	16
490.910	1	18
492.102	1	15
493.294	1	15
494.486	1	11
495.678	1	12
496.870	1	24
498.062	1	13
499.254	1	21
500.446	1	5
501.638	1	15
502.829	1	13
504.021	1	18
505.213	1	34
506.404	1	22
507.596	1	18
508.788	1	51
509.979	1	27
511.171	1	17
512.362	1	25
513.553	1	17
514.745	1	24
515.936	1	28
517.127	1	26
518.319	1	36
519.510	1	33
520.701	1	40
521.892	1	36
523.083	1	18
524.274	1	41
525.465	1	38
526.656	1	28
527.847	1	35
529.038	1	38
530.229	1	41
531.419	1	47
532.610	1	36
533.801	1	51
534.991	1	42
536.182	1	42
537.373	1	37
538.563	1	39
539.754	1	40
540.944	1	42
542.134	1	36
543.325	1	42
544.515	1	29
545.705	1	34
546.896	1	44
548.086	1	37
549.276	1	48
550.466	1	42
551.656	1	48
552.846	1	55
554.036	1	45
555.226	1	33
556.416	1	43
557.606	1	37
558.796	1	43
559.986	1	35
561.175	1	43
562.365	1	39
563.555	1	37
564.744	1	39
565.934	1	53
567.123	1	45
568.313	1	52
569.502	1	41
570.692	1	43
571.881	1	51
573.070	1	49
574.260	1	50
575.449	1	38
576.638	1	32
577.827	1	35
579.016	1	61
580.205	1	45
581.394	1	33
582.583	1	46
583.772	1	43
584.961	1	40
586.150	1	38
587.339	1	33
588.528	1	34
589.717	1	33
590.905	1	26
592.094	1	37
593.283	1	35
594.471	1	46
595.660	1	26
596.848	1	40
598.037	1	30
599.225	1	16
600.413	1	45
601.602	1	43
602.790	1	30
603.978	1	33
605.166	1	33
606.355	1	35
607.543	1	32
608.731	1	29
609.919	1	38
611.107	1	32
612.295	1	24
613.483	1	36
614.671	1	41
615.858	1	31
617.046	1	31
618.234	1	29
619.422	1	26
620.609	1	31
621.797	1	23
622.985	1	29
624.172	1	30
625.360	1	18
626.547	1	11
627.735	1	26
628.922	1	22
630.109	1	20
631.297	1	27
632.484	1	22
633.671	1	21
634.858	1	18
636.045	1	28
637.232	1	14
638.419	1	19
639.606	1	15
640.793	1	25
641.980	1	21
643.167	1	7
644.354	1	7
645.541	1	22
646.728	1	12
647.914	1	8
649.101	1	16
650.288	1	25
651.474	1	8
652.661	1	13
653.847	1	27
655.034	1	19
656.220	1	3
657.406	1	19
658.593	1	13
659.779	1	15
660.965	1	7
662.152	1	16
663.338	1	7
664.524	1	10
665.710	1	10
666.896	1	3
668.082	1	9
669.268	1	13
670.454	1	16
671.640	1	18
672.826	1	10
674.011	1	8
675.197	1	7
676.383	1	13
677.569	1	11
678.754	1	2
679.940	1	9
681.125	1	21
682.311	1	10
683.496	1	10
684.682	1	7
685.867	1	9
687.053	1	14
688.238	1	19
688.746	1	10

File: GaN_sample F_spot 12_UVVIS_200 K_200um_800 ms 2x2mm1_50.txt
340.368	1	9
341.565	1	4
342.763	1	14
343.960	1	12
345.157	1	5
346.354	1	0
347.552	1	6
348.749	1	4
349.946	1	4
351.143	1	10
352.340	1	7
353.537	1	20
354.734	1	16
355.931	1	20
357.127	1	30
358.324	1	40
359.521	1	58
360.718	1	64
361.914	1	89
363.111	1	128
364.308	1	186
365.504	1	254
366.701	1	342
367.897	1	434
369.093	1	499
370.290	1	500
371.486	1	456
372.682	1	377
373.879	1	319
375.075	1	275
376.271	1	221
377.467	1	190
378.663	1	147
379.859	1	121
381.055	1	109
382.251	1	90
383.447	1	81
384.643	1	76
385.839	1	75
387.035	1	57
388.230	1	65
389.426	1	36
390.622	1	28
391.817	1	26
393.013	1	29
394.208	1	23
395.404	1	25
396.599	1	28
397.795	1	25
398.990	1	21
400.186	1	25
401.381	1	5
402.576	1	16
403.771	1	16
404.967	1	14
406.162	1	21
407.357	1	7
408.552	1	14
409.747	1	4
410.942	1	20
412.137	1	10
413.332	1	2
414.526	1	11
415.721	1	14
416.916	1	0
418.111	1	5
419.305	1	10
420.500	1	13
421.695	1	5
422.889	1	1
424.084	1	5
425.278	1	24
426.472	1	2
427.667	1	16
428.861	1	6
430.055	1	-7
431.250	1	-2
432.444	1	4
433.638	1	5
434.832	1	7
436.026	1	6
437.220	1	8
438.414	1	8
439.608	1	1
440.802	1	11
441.996	1	10
443.190	1	12
444.384	1	-7
445.578	1	1
446.771	1	20
447.965	1	2
449.159	1	5
450.352	1	1
451.546	1	2
452.739	1	14
453.933	1	-1
455.126	1	3
456.320	1	-3
457.513	1	17
458.706	1	0
459.899	1	8
461.093	1	7
462.286	1	2
463.479	1	2
464.672	1	7
465.865	1	5
467.058	1	5
468.251	1	4
469.444	1	2
470.637	1	0
471.830	1	4
473.023	1	0
474.215	1	9
475.408	1	5
476.601	1	16
477.793	1	13
478.986	1	-1
480.179	1	16
481.371	1	5
482.564	1	19
483.756	1	14
484.948	1	1
486.141	1	9
487.333	1	10
488.525	1	7
489.718	1	6
490.910	1	11
492.102	1	3
493.294	1	13
494.486	1	20
495.678	1	11
496.870	1	11
498.062	1	5
499.254	1	15
500.446	1	6
501.638	1	18
502.829	1	23
504.021	1	16
505.213	1	16
506.404	1	22
507.596	1	25
508.788	1	32
509.979	1	26
511.171	1	29
512.362	1	10
513.553	1	15
514.745	1	17
515.936	1	22
517.127	1	28
518.319	1	31
519.510	1	32
520.701	1	24
521.892	1	35
523.083	1	24
524.274	1	29
525.465	1	36
526.656	1	32
527.847	1	34
529.038	1	39
530.229	1	34
531.419	1	47
532.610	1	38
533.801	1	59
534.991	1	41
536.182	1	37
537.373	1	44
538.563	1	37
539.754	1	38
540.944	1	31
542.134	1	36
543.325	1	39
544.515	1	36
545.705	1	31
546.896	1	42
548.086	1	47
549.276	1	34
550.466	1	40
551.656	1	50
552.846	1	45
554.036	1	45
555.226	1	33
556.416	1	36
557.606	1	47
558.796	1	47
559.986	1	34
561.175	1	42
562.365	1	37
563.555	1	34
564.744	1	55
565.934	1	50
567.123	1	45
568.313	1	46
569.502	1	29
570.692	1	47
571.881	1	59
573.070	1	44
574.260	1	44
575.449	1	30
576.638	1	40
577.827	1	35
579.016	1	45
580.205	1	45
581.394	1	25
582.583	1	53
583.772	1	53
584.961	1	41
586.150	1	34
587.339	1	36
588.528	1	41
589.717	1	38
590.905	1	28
592.094	1	25
593.283	1	34
594.471	1	42
595.660	1	30
596.848	1	30
598.037	1	24
599.225	1	17
600.413	1	38
601.602	1	40
602.790	1	27
603.978	1	30
605.166	1	35
606.355	1	43
607.543	1	28
608.731	1	27
609.919	1	41
611.107	1	40
612.295	1	19
613.483	1	35
614.671	1	28
615.858	1	24
617.046	1	27
618.234	1	23
619.422	1	23
620.609	1	24
621.797	1	28
622.985	1	26
624.172	1	21
625.360	1	30
626.547	1	18
627.735	1	21
628.922	1	16
630.109	1	5
631.297	1	10
632.484	1	6
633.671	1	13
634.858	1	16
636.045	1	20
637.232	1	18
638.419	1	26
639.606	1	25
640.793	1	20
641.980	1	23
643.167	1	10
644.354	1	8
645.541	1	17
646.728	1	12
647.914	1	15
649.101	1	5
650.288	1	15
651.474	1	8
652.661	1	14
653.847	1	30
655.034	1	11
656.220	1	8
657.406	1	12
658.593	1	5
659.779	1	18
660.965	1	15
662.152	1	18
663.338	1	20
664.524	1	10
665.710	1	8
666.896	1	7
668.082	1	13
669.268	1	10
670.454	1	13
671.640	1	18
672.826	1	12
674.011	1	7
675.197	1	3
676.383	1	9
677.569	1	6
678.754	1	10
679.940	1	10
681.125	1	21
682.311	1	12
683.496	1	16
684.682	1	4
685.867	1	18
687.053	1	8
688.238	1	31
688.746	1	13

File: GaN_sample F_spot 12_UVVIS_200 K_200um_800 ms 2x2mm1_51.txt
340.368	1	3
341.565	1	-10
342.763	1	9
343.960	1	11
345.157	1	4
346.354	1	9
347.552	1	-10
348.749	1	11
349.946	1	0
351.143	1	9
352.340	1	27
353.537	1	15
354.734	1	19
355.931	1	24
357.127	1	23
358.324	1	38
359.521	1	52
360.718	1	61
361.914	1	87
363.111	1	122
364.308	1	161
365.504	1	235
366.701	1	306
367.897	1	410
369.093	1	471
370.290	1	469
371.486	1	424
372.682	1	348
373.879	1	301
375.075	1	257
376.271	1	216
377.467	1	167
378.663	1	137
379.859	1	132
381.055	1	102
382.251	1	71
383.447	1	67
384.643	1	77
385.839	1	60
387.035	1	48
388.230	1	47
389.426	1	42
390.622	1	22
391.817	1	35
393.013	1	33
394.208	1	32
395.404	1	22
396.599	1	29
397.795	1	19
398.990	1	23
400.186	1	17
401.381	1	13
402.576	1	5
403.771	1	13
404.967	1	14
406.162	1	23
407.357	1	8
408.552	1	7
409.747	1	11
410.942	1	19
412.137	1	10
413.332	1	13
414.526	1	9
415.721	1	8
416.916	1	0
418.111	1	6
419.305	1	4
420.500	1	4
421.695	1	1
422.889	1	3
424.084	1	1
425.278	1	20
426.472	1	7
427.667	1	10
428.861	1	5
430.055	1	9
431.250	1	6
432.444	1	7
433.638	1	2
434.832	1	12
436.026	1	3
437.220	1	6
438.414	1	-5
439.608	1	-8
440.802	1	-9
441.996	1	7
443.190	1	9
444.384	1	-2
445.578	1	-6
446.771	1	12
447.965	1	11
449.159	1	-2
450.352	1	0
451.546	1	10
452.739	1	13
453.933	1	3
455.126	1	-4
456.320	1	5
457.513	1	6
458.706	1	5
459.899	1	5
461.093	1	6
462.286	1	3
463.479	1	-2
464.672	1	5
465.865	1	8
467.058	1	8
468.251	1	4
469.444	1	-5
470.637	1	1
471.830	1	5
473.023	1	7
474.215	1	15
475.408	1	10
476.601	1	9
477.793	1	9
478.986	1	3
480.179	1	0
481.371	1	6
482.564	1	9
483.756	1	17
484.948	1	-3
486.141	1	1
487.333	1	15
488.525	1	5
489.718	1	5
490.910	1	8
492.102	1	7
493.294	1	8
494.486	1	10
495.678	1	3
496.870	1	15
498.062	1	14
499.254	1	23
500.446	1	0
501.638	1	13
502.829	1	22
504.021	1	15
505.213	1	29
506.404	1	23
507.596	1	20
508.788	1	42
509.979	1	23
511.171	1	18
512.362	1	23
513.553	1	12
514.745	1	30
515.936	1	24
517.127	1	27
518.319	1	22
519.510	1	28
520.701	1	34
521.892	1	30
523.083	1	30
524.274	1	28
525.465	1	39
526.656	1	35
527.847	1	38
529.038	1	33
530.229	1	34
531.419	1	45
532.610	1	28
533.801	1	62
534.991	1	30
536.182	1	45
537.373	1	44
538.563	1	31
539.754	1	39
540.944	1	30
542.134	1	39
543.325	1	35
544.515	1	33
545.705	1	35
546.896	1	18
548.086	1	39
549.276	1	34
550.466	1	39
551.656	1	43
552.846	1	44
554.036	1	40
555.226	1	40
556.416	1	39
557.606	1	49
558.796	1	38
559.986	1	42
561.175	1	39
562.365	1	45
563.555	1	27
564.744	1	45
565.934	1	40
567.123	1	42
568.313	1	48
569.502	1	44
570.692	1	53
571.881	1	51
573.070	1	35
574.260	1	48
575.449	1	37
576.638	1	32
577.827	1	24
579.016	1	44
580.205	1	43
581.394	1	35
582.583	1	42
583.772	1	42
584.961	1	43
586.150	1	33
587.339	1	30
588.528	1	37
589.717	1	36
590.905	1	31
592.094	1	24
593.283	1	26
594.471	1	41
595.660	1	38
596.848	1	28
598.037	1	31
599.225	1	27
600.413	1	36
601.602	1	38
602.790	1	36
603.978	1	35
605.166	1	36
606.355	1	31
607.543	1	34
608.731	1	19
609.919	1	38
611.107	1	34
612.295	1	29
613.483	1	30
614.671	1	37
615.858	1	17
617.046	1	34
618.234	1	23
619.422	1	19
620.609	1	31
621.797	1	20
622.985	1	26
624.172	1	19
625.360	1	20
626.547	1	21
627.735	1	33
628.922	1	25
630.109	1	17
631.297	1	17
632.484	1	21
633.671	1	8
634.858	1	28
636.045	1	33
637.232	1	13
638.419	1	8
639.606	1	21
640.793	1	12
641.980	1	18
643.167	1	9
644.354	1	11
645.541	1	10
646.728	1	10
647.914	1	9
649.101	1	13
650.288	1	17
651.474	1	14
652.661	1	13
653.847	1	21
655.034	1	11
656.220	1	8
657.406	1	16
658.593	1	17
659.779	1	18
660.965	1	16
662.152	1	14
663.338	1	13
664.524	1	13
665.710	1	13
666.896	1	4
668.082	1	16
669.268	1	0
670.454	1	7
671.640	1	16
672.826	1	11
674.011	1	7
675.197	1	15
676.383	1	12
677.569	1	7
678.754	1	14
679.940	1	10
681.125	1	15
682.311	1	16
683.496	1	10
684.682	1	1
685.867	1	20
687.053	1	15
688.238	1	15
688.746	1	15

File: GaN_sample F_spot 12_UVVIS_200 K_200um_800 ms 2x2mm1_52.txt
340.368	1	11
341.565	1	8
342.763	1	22
343.960	1	14
345.157	1	1
346.354	1	0
347.552	1	-2
348.749	1	4
349.946	1	5
351.143	1	3
352.340	1	19
353.537	1	19
354.734	1	18
355.931	1	13
357.127	1	29
358.324	1	29
359.521	1	55
360.718	1	66
361.914	1	83
363.111	1	109
364.308	1	161
365.504	1	228
366.701	1	295
367.897	1	367
369.093	1	410
370.290	1	434
371.486	1	411
372.682	1	346
373.879	1	270
375.075	1	228
376.271	1	187
377.467	1	160
378.663	1	125
379.859	1	109
381.055	1	104
382.251	1	79
383.447	1	73
384.643	1	65
385.839	1	57
387.035	1	61
388.230	1	51
389.426	1	38
390.622	1	28
391.817	1	30
393.013	1	28
394.208	1	24
395.404	1	22
396.599	1	19
397.795	1	12
398.990	1	17
400.186	1	6
401.381	1	14
402.576	1	7
403.771	1	19
404.967	1	13
406.162	1	19
407.357	1	7
408.552	1	10
409.747	1	7
410.942	1	9
412.137	1	19
413.332	1	6
414.526	1	14
415.721	1	0
416.916	1	-4
418.111	1	7
419.305	1	5
420.500	1	-3
421.695	1	8
422.889	1	-7
424.084	1	6
425.278	1	14
426.472	1	3
427.667	1	4
428.861	1	-1
430.055	1	10
431.250	1	-3
432.444	1	7
433.638	1	1
434.832	1	7
436.026	1	4
437.220	1	3
438.414	1	-8
439.608	1	-5
440.802	1	-2
441.996	1	10
443.190	1	4
444.384	1	-4
445.578	1	-2
446.771	1	3
447.965	1	9
449.159	1	-8
450.352	1	4
451.546	1	10
452.739	1	8
453.933	1	-4
455.126	1	2
456.320	1	2
457.513	1	13
458.706	1	10
459.899	1	2
461.093	1	0
462.286	1	3
463.479	1	6
464.672	1	1
465.865	1	6
467.058	1	-3
468.251	1	-2
469.444	1	-2
470.637	1	5
471.830	1	-1
473.023	1	6
474.215	1	15
475.408	1	5
476.601	1	3
477.793	1	2
478.986	1	7
480.179	1	-7
481.371	1	11
482.564	1	13
483.756	1	14
484.948	1	3
486.141	1	5
487.333	1	15
488.525	1	10
489.718	1	12
490.910	1	13
492.102	1	10
493.294	1	16
494.486	1	18
495.678	1	6
496.870	1	12
498.062	1	14
499.254	1	13
500.446	1	10
501.638	1	12
502.829	1	17
504.021	1	10
505.213	1	27
506.404	1	15
507.596	1	28
508.788	1	27
509.979	1	25
511.171	1	16
512.362	1	15
513.553	1	12
514.745	1	17
515.936	1	21
517.127	1	27
518.319	1	23
519.510	1	22
520.701	1	35
521.892	1	35
523.083	1	14
524.274	1	32
525.465	1	37
526.656	1	36
527.847	1	34
529.038	1	31
530.229	1	30
531.419	1	35
532.610	1	29
533.801	1	52
534.991	1	30
536.182	1	38
537.373	1	34
538.563	1	50
539.754	1	30
540.944	1	28
542.134	1	39
543.325	1	35
544.515	1	34
545.705	1	34
546.896	1	43
548.086	1	35
549.276	1	32
550.466	1	45
551.656	1	31
552.846	1	38
554.036	1	41
555.226	1	34
556.416	1	36
557.606	1	43
558.796	1	22
559.986	1	27
561.175	1	47
562.365	1	38
563.555	1	37
564.744	1	31
565.934	1	44
567.123	1	40
568.313	1	42
569.502	1	31
570.692	1	39
571.881	1	45
573.070	1	38
574.260	1	48
575.449	1	37
576.638	1	29
577.827	1	32
579.016	1	48
580.205	1	39
581.394	1	42
582.583	1	44
583.772	1	29
584.961	1	32
586.150	1	36
587.339	1	37
588.528	1	39
589.717	1	32
590.905	1	30
592.094	1	25
593.283	1	24
594.471	1	36
595.660	1	32
596.848	1	27
598.037	1	17
599.225	1	26
600.413	1	32
601.602	1	41
602.790	1	28
603.978	1	32
605.166	1	37
606.355	1	41
607.543	1	28
608.731	1	32
609.919	1	35
611.107	1	21
612.295	1	25
613.483	1	28
614.671	1	28
615.858	1	29
617.046	1	25
618.234	1	28
619.422	1	14
620.609	1	24
621.797	1	12
622.985	1	21
624.172	1	22
625.360	1	14
626.547	1	13
627.735	1	33
628.922	1	19
630.109	1	11
631.297	1	14
632.484	1	3
633.671	1	6
634.858	1	15
636.045	1	26
637.232	1	7
638.419	1	7
639.606	1	26
640.793	1	17
641.980	1	16
643.167	1	7
644.354	1	10
645.541	1	9
646.728	1	8
647.914	1	7
649.101	1	15
650.288	1	19
651.474	1	6
652.661	1	10
653.847	1	19
655.034	1	19
656.220	1	16
657.406	1	10
658.593	1	21
659.779	1	12
660.965	1	11
662.152	1	15
663.338	1	25
664.524	1	8
665.710	1	18
666.896	1	12
668.082	1	17
669.268	1	5
670.454	1	13
671.640	1	18
672.826	1	2
674.011	1	17
675.197	1	-2
676.383	1	12
677.569	1	9
678.754	1	13
679.940	1	14
681.125	1	15
682.311	1	7
683.496	1	12
684.682	1	2
685.867	1	13
687.053	1	12
688.238	1	20
688.746	1	3