Folder: cryo-il_analysis/Data/GaN_130K_350ms (part 22)

File: GaN_sample F_spot6_UVVIS_130 K_200um_350 ms 2x2mm1_270.txt
340.368	1	4
341.565	1	-8
342.763	1	7
343.960	1	-11
345.157	1	-14
346.354	1	5
347.552	1	-3
348.749	1	-1
349.946	1	5
351.143	1	1
352.340	1	12
353.537	1	-3
354.734	1	-3
355.931	1	-1
357.127	1	4
358.324	1	4
359.521	1	-3
360.718	1	5
361.914	1	-5
363.111	1	16
364.308	1	7
365.504	1	15
366.701	1	12
367.897	1	7
369.093	1	11
370.290	1	10
371.486	1	9
372.682	1	10
373.879	1	13
375.075	1	9
376.271	1	8
377.467	1	13
378.663	1	0
379.859	1	-3
381.055	1	-2
382.251	1	5
383.447	1	-1
384.643	1	5
385.839	1	13
387.035	1	7
388.230	1	2
389.426	1	10
390.622	1	1
391.817	1	8
393.013	1	4
394.208	1	-4
395.404	1	-5
396.599	1	13
397.795	1	-7
398.990	1	2
400.186	1	6
401.381	1	9
402.576	1	-3
403.771	1	5
404.967	1	8
406.162	1	0
407.357	1	-5
408.552	1	4
409.747	1	-5
410.942	1	4
412.137	1	-3
413.332	1	6
414.526	1	3
415.721	1	2
416.916	1	-4
418.111	1	4
419.305	1	8
420.500	1	3
421.695	1	-2
422.889	1	0
424.084	1	7
425.278	1	-5
426.472	1	11
427.667	1	10
428.861	1	-3
430.055	1	1
431.250	1	12
432.444	1	15
433.638	1	3
434.832	1	4
436.026	1	6
437.220	1	3
438.414	1	-6
439.608	1	7
440.802	1	-4
441.996	1	13
443.190	1	8
444.384	1	-1
445.578	1	6
446.771	1	14
447.965	1	-3
449.159	1	7
450.352	1	8
451.546	1	7
452.739	1	8
453.933	1	10
455.126	1	-7
456.320	1	-2
457.513	1	-4
458.706	1	2
459.899	1	5
461.093	1	7
462.286	1	2
463.479	1	7
464.672	1	8
465.865	1	-7
467.058	1	6
468.251	1	-1
469.444	1	-1
470.637	1	8
471.830	1	0
473.023	1	10
474.215	1	1
475.408	1	1
476.601	1	0
477.793	1	-3
478.986	1	-1
480.179	1	-3
481.371	1	14
482.564	1	-9
483.756	1	-6
484.948	1	-5
486.141	1	1
487.333	1	-10
488.525	1	8
489.718	1	-2
490.910	1	-8
492.102	1	3
493.294	1	7
494.486	1	17
495.678	1	-1
496.870	1	1
498.062	1	-5
499.254	1	6
500.446	1	6
501.638	1	-9
502.829	1	0
504.021	1	1
505.213	1	-1
506.404	1	-4
507.596	1	2
508.788	1	-3
509.979	1	0
511.171	1	15
512.362	1	-4
513.553	1	11
514.745	1	2
515.936	1	7
517.127	1	6
518.319	1	-5
519.510	1	-2
520.701	1	3
521.892	1	11
523.083	1	0
524.274	1	-3
525.465	1	8
526.656	1	-1
527.847	1	10
529.038	1	-7
530.229	1	-1
531.419	1	7
532.610	1	-2
533.801	1	19
534.991	1	-2
536.182	1	16
537.373	1	0
538.563	1	7
539.754	1	1
540.944	1	6
542.134	1	-1
543.325	1	0
544.515	1	2
545.705	1	2
546.896	1	-2
548.086	1	2
549.276	1	0
550.466	1	6
551.656	1	1
552.846	1	-5
554.036	1	2
555.226	1	3
556.416	1	7
557.606	1	-1
558.796	1	11
559.986	1	4
561.175	1	-1
562.365	1	7
563.555	1	13
564.744	1	12
565.934	1	3
567.123	1	3
568.313	1	-4
569.502	1	-1
570.692	1	3
571.881	1	0
573.070	1	7
574.260	1	9
575.449	1	4
576.638	1	-5
577.827	1	-3
579.016	1	7
580.205	1	-12
581.394	1	-6
582.583	1	8
583.772	1	-2
584.961	1	-2
586.150	1	6
587.339	1	-2
588.528	1	14
589.717	1	-8
590.905	1	2
592.094	1	9
593.283	1	-3
594.471	1	6
595.660	1	5
596.848	1	9
598.037	1	14
599.225	1	6
600.413	1	1
601.602	1	0
602.790	1	-3
603.978	1	-2
605.166	1	8
606.355	1	7
607.543	1	7
608.731	1	8
609.919	1	8
611.107	1	11
612.295	1	12
613.483	1	-5
614.671	1	4
615.858	1	3
617.046	1	4
618.234	1	2
619.422	1	6
620.609	1	-6
621.797	1	0
622.985	1	15
624.172	1	-5
625.360	1	2
626.547	1	1
627.735	1	9
628.922	1	-10
630.109	1	7
631.297	1	-4
632.484	1	-6
633.671	1	1
634.858	1	0
636.045	1	11
637.232	1	-4
638.419	1	4
639.606	1	5
640.793	1	-3
641.980	1	-5
643.167	1	2
644.354	1	-1
645.541	1	1
646.728	1	3
647.914	1	-12
649.101	1	-9
650.288	1	13
651.474	1	-4
652.661	1	-1
653.847	1	4
655.034	1	1
656.220	1	-1
657.406	1	3
658.593	1	5
659.779	1	4
660.965	1	0
662.152	1	-6
663.338	1	2
664.524	1	-1
665.710	1	12
666.896	1	4
668.082	1	-6
669.268	1	-11
670.454	1	-9
671.640	1	-4
672.826	1	-8
674.011	1	-1
675.197	1	-2
676.383	1	-2
677.569	1	5
678.754	1	6
679.940	1	0
681.125	1	6
682.311	1	-11
683.496	1	4
684.682	1	5
685.867	1	0
687.053	1	3
688.238	1	5
688.746	1	4

File: GaN_sample F_spot6_UVVIS_130 K_200um_350 ms 2x2mm1_272.txt
340.368	1	5
341.565	1	-2
342.763	1	8
343.960	1	-10
345.157	1	-4
346.354	1	-2
347.552	1	-3
348.749	1	7
349.946	1	2
351.143	1	7
352.340	1	11
353.537	1	0
354.734	1	-5
355.931	1	2
357.127	1	2
358.324	1	-5
359.521	1	-5
360.718	1	13
361.914	1	2
363.111	1	5
364.308	1	21
365.504	1	14
366.701	1	11
367.897	1	6
369.093	1	8
370.290	1	18
371.486	1	4
372.682	1	7
373.879	1	16
375.075	1	9
376.271	1	5
377.467	1	1
378.663	1	10
379.859	1	11
381.055	1	4
382.251	1	2
383.447	1	-1
384.643	1	16
385.839	1	3
387.035	1	18
388.230	1	-2
389.426	1	6
390.622	1	10
391.817	1	11
393.013	1	5
394.208	1	-8
395.404	1	-2
396.599	1	12
397.795	1	1
398.990	1	5
400.186	1	-7
401.381	1	-1
402.576	1	4
403.771	1	2
404.967	1	6
406.162	1	7
407.357	1	-2
408.552	1	3
409.747	1	-1
410.942	1	1
412.137	1	2
413.332	1	-5
414.526	1	4
415.721	1	8
416.916	1	-1
418.111	1	13
419.305	1	0
420.500	1	2
421.695	1	-4
422.889	1	10
424.084	1	6
425.278	1	10
426.472	1	-5
427.667	1	11
428.861	1	-4
430.055	1	3
431.250	1	2
432.444	1	6
433.638	1	4
434.832	1	0
436.026	1	7
437.220	1	-7
438.414	1	-3
439.608	1	15
440.802	1	-8
441.996	1	4
443.190	1	6
444.384	1	-1
445.578	1	5
446.771	1	6
447.965	1	2
449.159	1	10
450.352	1	5
451.546	1	12
452.739	1	9
453.933	1	-3
455.126	1	-2
456.320	1	2
457.513	1	-4
458.706	1	3
459.899	1	6
461.093	1	6
462.286	1	6
463.479	1	11
464.672	1	9
465.865	1	3
467.058	1	-4
468.251	1	5
469.444	1	6
470.637	1	3
471.830	1	5
473.023	1	9
474.215	1	0
475.408	1	5
476.601	1	-3
477.793	1	-4
478.986	1	-1
480.179	1	2
481.371	1	4
482.564	1	-7
483.756	1	12
484.948	1	7
486.141	1	5
487.333	1	2
488.525	1	2
489.718	1	11
490.910	1	-1
492.102	1	0
493.294	1	5
494.486	1	6
495.678	1	3
496.870	1	-5
498.062	1	-7
499.254	1	8
500.446	1	9
501.638	1	6
502.829	1	7
504.021	1	-2
505.213	1	7
506.404	1	4
507.596	1	1
508.788	1	-4
509.979	1	2
511.171	1	7
512.362	1	-3
513.553	1	7
514.745	1	-1
515.936	1	14
517.127	1	6
518.319	1	-2
519.510	1	-1
520.701	1	1
521.892	1	4
523.083	1	3
524.274	1	-5
525.465	1	4
526.656	1	10
527.847	1	-3
529.038	1	-6
530.229	1	6
531.419	1	9
532.610	1	6
533.801	1	16
534.991	1	9
536.182	1	7
537.373	1	-4
538.563	1	5
539.754	1	-4
540.944	1	10
542.134	1	-3
543.325	1	5
544.515	1	6
545.705	1	6
546.896	1	4
548.086	1	-7
549.276	1	-3
550.466	1	12
551.656	1	3
552.846	1	-3
554.036	1	-6
555.226	1	5
556.416	1	2
557.606	1	5
558.796	1	12
559.986	1	4
561.175	1	3
562.365	1	5
563.555	1	9
564.744	1	-1
565.934	1	5
567.123	1	5
568.313	1	4
569.502	1	3
570.692	1	5
571.881	1	0
573.070	1	4
574.260	1	6
575.449	1	1
576.638	1	-4
577.827	1	1
579.016	1	3
580.205	1	2
581.394	1	8
582.583	1	9
583.772	1	1
584.961	1	4
586.150	1	6
587.339	1	-3
588.528	1	12
589.717	1	0
590.905	1	7
592.094	1	0
593.283	1	0
594.471	1	6
595.660	1	-6
596.848	1	2
598.037	1	0
599.225	1	-3
600.413	1	12
601.602	1	3
602.790	1	4
603.978	1	5
605.166	1	6
606.355	1	5
607.543	1	2
608.731	1	7
609.919	1	13
611.107	1	-4
612.295	1	7
613.483	1	-1
614.671	1	-6
615.858	1	1
617.046	1	15
618.234	1	1
619.422	1	5
620.609	1	-4
621.797	1	-5
622.985	1	4
624.172	1	-7
625.360	1	6
626.547	1	0
627.735	1	4
628.922	1	-6
630.109	1	10
631.297	1	2
632.484	1	-14
633.671	1	-2
634.858	1	9
636.045	1	11
637.232	1	2
638.419	1	3
639.606	1	4
640.793	1	-10
641.980	1	-2
643.167	1	4
644.354	1	-1
645.541	1	-2
646.728	1	6
647.914	1	-5
649.101	1	-3
650.288	1	-3
651.474	1	2
652.661	1	5
653.847	1	0
655.034	1	3
656.220	1	0
657.406	1	5
658.593	1	0
659.779	1	-2
660.965	1	-2
662.152	1	0
663.338	1	-7
664.524	1	-3
665.710	1	1
666.896	1	-3
668.082	1	-3
669.268	1	-7
670.454	1	-5
671.640	1	-6
672.826	1	-4
674.011	1	-1
675.197	1	3
676.383	1	-4
677.569	1	-3
678.754	1	3
679.940	1	1
681.125	1	8
682.311	1	-4
683.496	1	5
684.682	1	-1
685.867	1	2
687.053	1	-3
688.238	1	4
688.746	1	11

File: GaN_sample F_spot6_UVVIS_130 K_200um_350 ms 2x2mm1_273.txt
340.368	1	1
341.565	1	-7
342.763	1	-4
343.960	1	-9
345.157	1	-9
346.354	1	-2
347.552	1	1
348.749	1	9
349.946	1	-2
351.143	1	8
352.340	1	7
353.537	1	-2
354.734	1	8
355.931	1	6
357.127	1	4
358.324	1	-5
359.521	1	-2
360.718	1	10
361.914	1	3
363.111	1	12
364.308	1	8
365.504	1	12
366.701	1	14
367.897	1	9
369.093	1	5
370.290	1	7
371.486	1	15
372.682	1	10
373.879	1	-1
375.075	1	20
376.271	1	8
377.467	1	19
378.663	1	7
379.859	1	2
381.055	1	9
382.251	1	8
383.447	1	2
384.643	1	8
385.839	1	7
387.035	1	13
388.230	1	-3
389.426	1	5
390.622	1	7
391.817	1	3
393.013	1	13
394.208	1	6
395.404	1	-8
396.599	1	7
397.795	1	-4
398.990	1	-1
400.186	1	2
401.381	1	-2
402.576	1	-1
403.771	1	14
404.967	1	8
406.162	1	2
407.357	1	-4
408.552	1	-3
409.747	1	1
410.942	1	4
412.137	1	-4
413.332	1	-9
414.526	1	1
415.721	1	10
416.916	1	-4
418.111	1	3
419.305	1	-8
420.500	1	0
421.695	1	6
422.889	1	-3
424.084	1	10
425.278	1	-4
426.472	1	-3
427.667	1	0
428.861	1	1
430.055	1	1
431.250	1	7
432.444	1	8
433.638	1	0
434.832	1	2
436.026	1	6
437.220	1	-6
438.414	1	-6
439.608	1	8
440.802	1	0
441.996	1	3
443.190	1	4
444.384	1	-7
445.578	1	-13
446.771	1	8
447.965	1	5
449.159	1	0
450.352	1	1
451.546	1	15
452.739	1	3
453.933	1	2
455.126	1	-4
456.320	1	-2
457.513	1	0
458.706	1	12
459.899	1	0
461.093	1	4
462.286	1	3
463.479	1	8
464.672	1	5
465.865	1	-4
467.058	1	10
468.251	1	6
469.444	1	5
470.637	1	1
471.830	1	2
473.023	1	3
474.215	1	1
475.408	1	0
476.601	1	-4
477.793	1	-3
478.986	1	-15
480.179	1	-10
481.371	1	14
482.564	1	-1
483.756	1	0
484.948	1	3
486.141	1	-3
487.333	1	-2
488.525	1	4
489.718	1	2
490.910	1	-4
492.102	1	10
493.294	1	-3
494.486	1	4
495.678	1	-1
496.870	1	5
498.062	1	-2
499.254	1	6
500.446	1	3
501.638	1	4
502.829	1	3
504.021	1	3
505.213	1	-3
506.404	1	6
507.596	1	10
508.788	1	-5
509.979	1	0
511.171	1	12
512.362	1	-2
513.553	1	11
514.745	1	-4
515.936	1	15
517.127	1	5
518.319	1	-9
519.510	1	1
520.701	1	5
521.892	1	8
523.083	1	3
524.274	1	-3
525.465	1	3
526.656	1	3
527.847	1	9
529.038	1	-10
530.229	1	14
531.419	1	14
532.610	1	4
533.801	1	14
534.991	1	0
536.182	1	4
537.373	1	4
538.563	1	2
539.754	1	2
540.944	1	3
542.134	1	3
543.325	1	6
544.515	1	-3
545.705	1	-1
546.896	1	9
548.086	1	-4
549.276	1	-1
550.466	1	15
551.656	1	-1
552.846	1	0
554.036	1	5
555.226	1	4
556.416	1	8
557.606	1	-1
558.796	1	19
559.986	1	-2
561.175	1	10
562.365	1	-2
563.555	1	8
564.744	1	2
565.934	1	0
567.123	1	-1
568.313	1	-1
569.502	1	1
570.692	1	-3
571.881	1	-3
573.070	1	5
574.260	1	4
575.449	1	8
576.638	1	-9
577.827	1	-3
579.016	1	1
580.205	1	0
581.394	1	3
582.583	1	14
583.772	1	6
584.961	1	1
586.150	1	2
587.339	1	-2
588.528	1	5
589.717	1	7
590.905	1	4
592.094	1	6
593.283	1	-5
594.471	1	-1
595.660	1	5
596.848	1	1
598.037	1	5
599.225	1	0
600.413	1	13
601.602	1	-1
602.790	1	-9
603.978	1	4
605.166	1	10
606.355	1	12
607.543	1	1
608.731	1	5
609.919	1	7
611.107	1	3
612.295	1	7
613.483	1	-4
614.671	1	3
615.858	1	-12
617.046	1	3
618.234	1	-4
619.422	1	6
620.609	1	-4
621.797	1	-3
622.985	1	8
624.172	1	-1
625.360	1	3
626.547	1	-2
627.735	1	4
628.922	1	-3
630.109	1	6
631.297	1	2
632.484	1	-7
633.671	1	5
634.858	1	5
636.045	1	9
637.232	1	-2
638.419	1	2
639.606	1	5
640.793	1	-6
641.980	1	-5
643.167	1	5
644.354	1	0
645.541	1	-3
646.728	1	2
647.914	1	-7
649.101	1	-12
650.288	1	-2
651.474	1	-2
652.661	1	-5
653.847	1	1
655.034	1	10
656.220	1	7
657.406	1	7
658.593	1	-1
659.779	1	8
660.965	1	-6
662.152	1	-11
663.338	1	-3
664.524	1	-5
665.710	1	0
666.896	1	6
668.082	1	6
669.268	1	1
670.454	1	-2
671.640	1	-12
672.826	1	4
674.011	1	4
675.197	1	3
676.383	1	2
677.569	1	-1
678.754	1	4
679.940	1	-3
681.125	1	16
682.311	1	-17
683.496	1	-5
684.682	1	-4
685.867	1	1
687.053	1	-2
688.238	1	7
688.746	1	-1

File: GaN_sample F_spot6_UVVIS_130 K_200um_350 ms 2x2mm1_274.txt
340.368	1	12
341.565	1	-9
342.763	1	-5
343.960	1	-11
345.157	1	-11
346.354	1	-3
347.552	1	-2
348.749	1	11
349.946	1	3
351.143	1	-2
352.340	1	17
353.537	1	1
354.734	1	-5
355.931	1	1
357.127	1	7
358.324	1	10
359.521	1	0
360.718	1	11
361.914	1	5
363.111	1	13
364.308	1	14
365.504	1	8
366.701	1	20
367.897	1	4
369.093	1	13
370.290	1	15
371.486	1	-1
372.682	1	-2
373.879	1	7
375.075	1	13
376.271	1	11
377.467	1	10
378.663	1	4
379.859	1	8
381.055	1	-1
382.251	1	6
383.447	1	10
384.643	1	-1
385.839	1	7
387.035	1	12
388.230	1	-2
389.426	1	6
390.622	1	3
391.817	1	7
393.013	1	2
394.208	1	-11
395.404	1	-5
396.599	1	11
397.795	1	-7
398.990	1	-2
400.186	1	0
401.381	1	10
402.576	1	2
403.771	1	-3
404.967	1	-5
406.162	1	1
407.357	1	7
408.552	1	-1
409.747	1	0
410.942	1	12
412.137	1	-12
413.332	1	-1
414.526	1	-2
415.721	1	-3
416.916	1	6
418.111	1	17
419.305	1	-1
420.500	1	12
421.695	1	4
422.889	1	-1
424.084	1	6
425.278	1	-3
426.472	1	4
427.667	1	9
428.861	1	-1
430.055	1	-1
431.250	1	3
432.444	1	7
433.638	1	11
434.832	1	4
436.026	1	5
437.220	1	0
438.414	1	1
439.608	1	16
440.802	1	-4
441.996	1	10
443.190	1	3
444.384	1	2
445.578	1	2
446.771	1	3
447.965	1	6
449.159	1	4
450.352	1	8
451.546	1	12
452.739	1	13
453.933	1	6
455.126	1	-5
456.320	1	0
457.513	1	0
458.706	1	3
459.899	1	4
461.093	1	8
462.286	1	6
463.479	1	3
464.672	1	9
465.865	1	-2
467.058	1	6
468.251	1	2
469.444	1	4
470.637	1	9
471.830	1	6
473.023	1	4
474.215	1	7
475.408	1	7
476.601	1	2
477.793	1	2
478.986	1	1
480.179	1	5
481.371	1	6
482.564	1	-4
483.756	1	2
484.948	1	2
486.141	1	-2
487.333	1	-6
488.525	1	11
489.718	1	-1
490.910	1	-4
492.102	1	6
493.294	1	8
494.486	1	3
495.678	1	1
496.870	1	-2
498.062	1	-2
499.254	1	10
500.446	1	7
501.638	1	13
502.829	1	5
504.021	1	1
505.213	1	5
506.404	1	2
507.596	1	0
508.788	1	4
509.979	1	0
511.171	1	12
512.362	1	2
513.553	1	11
514.745	1	7
515.936	1	3
517.127	1	2
518.319	1	-5
519.510	1	2
520.701	1	1
521.892	1	1
523.083	1	2
524.274	1	-5
525.465	1	11
526.656	1	4
527.847	1	3
529.038	1	-2
530.229	1	6
531.419	1	3
532.610	1	-2
533.801	1	10
534.991	1	3
536.182	1	4
537.373	1	10
538.563	1	4
539.754	1	-2
540.944	1	9
542.134	1	1
543.325	1	2
544.515	1	8
545.705	1	10
546.896	1	-2
548.086	1	-14
549.276	1	-5
550.466	1	9
551.656	1	7
552.846	1	-5
554.036	1	-2
555.226	1	10
556.416	1	5
557.606	1	3
558.796	1	9
559.986	1	-1
561.175	1	7
562.365	1	2
563.555	1	16
564.744	1	2
565.934	1	4
567.123	1	-2
568.313	1	-5
569.502	1	1
570.692	1	4
571.881	1	-4
573.070	1	-2
574.260	1	12
575.449	1	11
576.638	1	-10
577.827	1	-7
579.016	1	7
580.205	1	0
581.394	1	-4
582.583	1	4
583.772	1	-6
584.961	1	-6
586.150	1	7
587.339	1	-1
588.528	1	9
589.717	1	-1
590.905	1	8
592.094	1	6
593.283	1	-1
594.471	1	9
595.660	1	4
596.848	1	3
598.037	1	11
599.225	1	11
600.413	1	3
601.602	1	-7
602.790	1	0
603.978	1	7
605.166	1	12
606.355	1	15
607.543	1	-3
608.731	1	0
609.919	1	13
611.107	1	3
612.295	1	4
613.483	1	-2
614.671	1	2
615.858	1	-5
617.046	1	13
618.234	1	3
619.422	1	3
620.609	1	-7
621.797	1	2
622.985	1	6
624.172	1	-9
625.360	1	10
626.547	1	0
627.735	1	11
628.922	1	-9
630.109	1	3
631.297	1	-2
632.484	1	-8
633.671	1	-6
634.858	1	3
636.045	1	16
637.232	1	-4
638.419	1	2
639.606	1	3
640.793	1	-12
641.980	1	0
643.167	1	-1
644.354	1	-4
645.541	1	-2
646.728	1	4
647.914	1	0
649.101	1	-6
650.288	1	13
651.474	1	0
652.661	1	-3
653.847	1	2
655.034	1	-5
656.220	1	4
657.406	1	11
658.593	1	0
659.779	1	-1
660.965	1	-3
662.152	1	-8
663.338	1	2
664.524	1	5
665.710	1	7
666.896	1	1
668.082	1	3
669.268	1	-5
670.454	1	-2
671.640	1	-2
672.826	1	3
674.011	1	-2
675.197	1	0
676.383	1	5
677.569	1	6
678.754	1	-3
679.940	1	0
681.125	1	19
682.311	1	-12
683.496	1	-2
684.682	1	1
685.867	1	9
687.053	1	0
688.238	1	5
688.746	1	0

File: GaN_sample F_spot6_UVVIS_130 K_200um_350 ms 2x2mm1_275.txt
340.368	1	2
341.565	1	7
342.763	1	1
343.960	1	-7
345.157	1	-15
346.354	1	-6
347.552	1	-5
348.749	1	4
349.946	1	3
351.143	1	0
352.340	1	9
353.537	1	5
354.734	1	-4
355.931	1	-4
357.127	1	2
358.324	1	-2
359.521	1	-7
360.718	1	8
361.914	1	5
363.111	1	16
364.308	1	9
365.504	1	10
366.701	1	10
367.897	1	7
369.093	1	6
370.290	1	9
371.486	1	12
372.682	1	8
373.879	1	13
375.075	1	9
376.271	1	21
377.467	1	10
378.663	1	4
379.859	1	8
381.055	1	4
382.251	1	4
383.447	1	10
384.643	1	11
385.839	1	9
387.035	1	-1
388.230	1	7
389.426	1	8
390.622	1	3
391.817	1	9
393.013	1	7
394.208	1	0
395.404	1	-3
396.599	1	14
397.795	1	-8
398.990	1	5
400.186	1	4
401.381	1	6
402.576	1	5
403.771	1	12
404.967	1	5
406.162	1	3
407.357	1	2
408.552	1	8
409.747	1	4
410.942	1	8
412.137	1	5
413.332	1	-3
414.526	1	2
415.721	1	4
416.916	1	4
418.111	1	7
419.305	1	0
420.500	1	9
421.695	1	4
422.889	1	11
424.084	1	23
425.278	1	2
426.472	1	5
427.667	1	14
428.861	1	-7
430.055	1	5
431.250	1	10
432.444	1	6
433.638	1	5
434.832	1	6
436.026	1	4
437.220	1	-6
438.414	1	1
439.608	1	7
440.802	1	-11
441.996	1	10
443.190	1	2
444.384	1	-4
445.578	1	-6
446.771	1	2
447.965	1	2
449.159	1	5
450.352	1	8
451.546	1	9
452.739	1	2
453.933	1	9
455.126	1	-9
456.320	1	3
457.513	1	0
458.706	1	3
459.899	1	6
461.093	1	11
462.286	1	18
463.479	1	9
464.672	1	6
465.865	1	-7
467.058	1	2
468.251	1	4
469.444	1	2
470.637	1	7
471.830	1	1
473.023	1	4
474.215	1	-6
475.408	1	7
476.601	1	2
477.793	1	1
478.986	1	-2
480.179	1	-5
481.371	1	4
482.564	1	3
483.756	1	4
484.948	1	-6
486.141	1	-1
487.333	1	-6
488.525	1	0
489.718	1	8
490.910	1	-3
492.102	1	6
493.294	1	4
494.486	1	11
495.678	1	-13
496.870	1	3
498.062	1	-4
499.254	1	12
500.446	1	0
501.638	1	7
502.829	1	-6
504.021	1	-3
505.213	1	1
506.404	1	-7
507.596	1	2
508.788	1	-2
509.979	1	-3
511.171	1	10
512.362	1	-4
513.553	1	1
514.745	1	1
515.936	1	13
517.127	1	-2
518.319	1	3
519.510	1	-4
520.701	1	3
521.892	1	6
523.083	1	5
524.274	1	-3
525.465	1	2
526.656	1	8
527.847	1	-9
529.038	1	-3
530.229	1	9
531.419	1	3
532.610	1	9
533.801	1	19
534.991	1	-2
536.182	1	10
537.373	1	1
538.563	1	7
539.754	1	4
540.944	1	5
542.134	1	-1
543.325	1	2
544.515	1	10
545.705	1	-1
546.896	1	-7
548.086	1	-6
549.276	1	0
550.466	1	6
551.656	1	-1
552.846	1	5
554.036	1	3
555.226	1	1
556.416	1	6
557.606	1	-2
558.796	1	21
559.986	1	6
561.175	1	-1
562.365	1	1
563.555	1	5
564.744	1	2
565.934	1	-3
567.123	1	8
568.313	1	-3
569.502	1	1
570.692	1	15
571.881	1	4
573.070	1	4
574.260	1	1
575.449	1	1
576.638	1	3
577.827	1	-15
579.016	1	0
580.205	1	-2
581.394	1	6
582.583	1	1
583.772	1	3
584.961	1	0
586.150	1	-3
587.339	1	5
588.528	1	4
589.717	1	-1
590.905	1	6
592.094	1	8
593.283	1	-7
594.471	1	9
595.660	1	3
596.848	1	1
598.037	1	4
599.225	1	8
600.413	1	12
601.602	1	11
602.790	1	0
603.978	1	-1
605.166	1	6
606.355	1	15
607.543	1	-1
608.731	1	0
609.919	1	11
611.107	1	4
612.295	1	8
613.483	1	-5
614.671	1	9
615.858	1	-7
617.046	1	-1
618.234	1	-3
619.422	1	5
620.609	1	-4
621.797	1	-6
622.985	1	12
624.172	1	2
625.360	1	-4
626.547	1	6
627.735	1	6
628.922	1	3
630.109	1	-6
631.297	1	8
632.484	1	-12
633.671	1	-6
634.858	1	10
636.045	1	11
637.232	1	-13
638.419	1	7
639.606	1	10
640.793	1	-13
641.980	1	-6
643.167	1	1
644.354	1	-5
645.541	1	0
646.728	1	4
647.914	1	-1
649.101	1	3
650.288	1	13
651.474	1	-2
652.661	1	0
653.847	1	4
655.034	1	-4
656.220	1	-7
657.406	1	3
658.593	1	1
659.779	1	5
660.965	1	-2
662.152	1	-1
663.338	1	-2
664.524	1	0
665.710	1	0
666.896	1	2
668.082	1	4
669.268	1	-3
670.454	1	0
671.640	1	0
672.826	1	-1
674.011	1	1
675.197	1	-6
676.383	1	10
677.569	1	1
678.754	1	7
679.940	1	-1
681.125	1	5
682.311	1	-9
683.496	1	3
684.682	1	-1
685.867	1	0
687.053	1	6
688.238	1	10
688.746	1	10

File: GaN_sample F_spot6_UVVIS_130 K_200um_350 ms 2x2mm1_276.txt
340.368	1	12
341.565	1	4
342.763	1	-11
343.960	1	-11
345.157	1	-8
346.354	1	5
347.552	1	5
348.749	1	-1
349.946	1	6
351.143	1	-3
352.340	1	11
353.537	1	5
354.734	1	-1
355.931	1	13
357.127	1	8
358.324	1	-1
359.521	1	-5
360.718	1	4
361.914	1	2
363.111	1	12
364.308	1	13
365.504	1	6
366.701	1	10
367.897	1	6
369.093	1	11
370.290	1	11
371.486	1	15
372.682	1	9
373.879	1	10
375.075	1	16
376.271	1	7
377.467	1	7
378.663	1	5
379.859	1	-5
381.055	1	1
382.251	1	1
383.447	1	4
384.643	1	8
385.839	1	4
387.035	1	15
388.230	1	-3
389.426	1	9
390.622	1	9
391.817	1	6
393.013	1	12
394.208	1	1
395.404	1	-3
396.599	1	13
397.795	1	-3
398.990	1	-8
400.186	1	5
401.381	1	4
402.576	1	6
403.771	1	12
404.967	1	1
406.162	1	4
407.357	1	4
408.552	1	2
409.747	1	5
410.942	1	2
412.137	1	-1
413.332	1	2
414.526	1	-1
415.721	1	3
416.916	1	-2
418.111	1	7
419.305	1	3
420.500	1	3
421.695	1	13
422.889	1	7
424.084	1	5
425.278	1	5
426.472	1	-1
427.667	1	8
428.861	1	1
430.055	1	-9
431.250	1	6
432.444	1	1
433.638	1	10
434.832	1	-3
436.026	1	8
437.220	1	-6
438.414	1	-7
439.608	1	12
440.802	1	-7
441.996	1	16
443.190	1	9
444.384	1	-6
445.578	1	2
446.771	1	2
447.965	1	3
449.159	1	7
450.352	1	12
451.546	1	11
452.739	1	-3
453.933	1	10
455.126	1	-4
456.320	1	-6
457.513	1	-7
458.706	1	2
459.899	1	4
461.093	1	9
462.286	1	0
463.479	1	6
464.672	1	-1
465.865	1	-8
467.058	1	3
468.251	1	5
469.444	1	4
470.637	1	5
471.830	1	5
473.023	1	3
474.215	1	4
475.408	1	0
476.601	1	3
477.793	1	2
478.986	1	0
480.179	1	2
481.371	1	6
482.564	1	-2
483.756	1	-7
484.948	1	3
486.141	1	-1
487.333	1	-3
488.525	1	9
489.718	1	5
490.910	1	-6
492.102	1	11
493.294	1	8
494.486	1	13
495.678	1	0
496.870	1	-2
498.062	1	3
499.254	1	7
500.446	1	11
501.638	1	4
502.829	1	2
504.021	1	-1
505.213	1	0
506.404	1	-1
507.596	1	4
508.788	1	-7
509.979	1	-3
511.171	1	7
512.362	1	-2
513.553	1	7
514.745	1	-7
515.936	1	11
517.127	1	4
518.319	1	-3
519.510	1	-4
520.701	1	2
521.892	1	4
523.083	1	5
524.274	1	-1
525.465	1	6
526.656	1	0
527.847	1	7
529.038	1	-10
530.229	1	2
531.419	1	5
532.610	1	7
533.801	1	10
534.991	1	2
536.182	1	9
537.373	1	6
538.563	1	5
539.754	1	1
540.944	1	5
542.134	1	-1
543.325	1	-1
544.515	1	-1
545.705	1	1
546.896	1	4
548.086	1	-2
549.276	1	-5
550.466	1	10
551.656	1	-6
552.846	1	-7
554.036	1	-7
555.226	1	-6
556.416	1	8
557.606	1	1
558.796	1	11
559.986	1	12
561.175	1	2
562.365	1	7
563.555	1	13
564.744	1	-2
565.934	1	5
567.123	1	0
568.313	1	-1
569.502	1	-4
570.692	1	10
571.881	1	-7
573.070	1	5
574.260	1	1
575.449	1	6
576.638	1	-5
577.827	1	-5
579.016	1	0
580.205	1	-2
581.394	1	-6
582.583	1	2
583.772	1	12
584.961	1	1
586.150	1	8
587.339	1	4
588.528	1	2
589.717	1	-3
590.905	1	8
592.094	1	8
593.283	1	-11
594.471	1	3
595.660	1	0
596.848	1	3
598.037	1	6
599.225	1	0
600.413	1	13
601.602	1	4
602.790	1	-1
603.978	1	-1
605.166	1	11
606.355	1	0
607.543	1	-5
608.731	1	5
609.919	1	7
611.107	1	9
612.295	1	3
613.483	1	2
614.671	1	3
615.858	1	-4
617.046	1	13
618.234	1	-7
619.422	1	3
620.609	1	-3
621.797	1	5
622.985	1	15
624.172	1	-3
625.360	1	7
626.547	1	-2
627.735	1	10
628.922	1	-2
630.109	1	0
631.297	1	2
632.484	1	-12
633.671	1	-8
634.858	1	15
636.045	1	15
637.232	1	2
638.419	1	4
639.606	1	4
640.793	1	-10
641.980	1	3
643.167	1	-4
644.354	1	-1
645.541	1	0
646.728	1	8
647.914	1	-4
649.101	1	6
650.288	1	5
651.474	1	2
652.661	1	1
653.847	1	-7
655.034	1	8
656.220	1	12
657.406	1	4
658.593	1	2
659.779	1	3
660.965	1	-7
662.152	1	7
663.338	1	0
664.524	1	4
665.710	1	3
666.896	1	-3
668.082	1	5
669.268	1	-5
670.454	1	-5
671.640	1	-3
672.826	1	-5
674.011	1	8
675.197	1	-2
676.383	1	-6
677.569	1	5
678.754	1	9
679.940	1	-5
681.125	1	6
682.311	1	-14
683.496	1	1
684.682	1	-2
685.867	1	2
687.053	1	-2
688.238	1	6
688.746	1	13