Folder: cryo-il_analysis/Data/GaN_200K_800ms (part 14)

File: GaN_sample F_spot 12_UVVIS_200 K_200um_800 ms 2x2mm1_99.txt
340.368	1	-2
341.565	1	-2
342.763	1	9
343.960	1	-2
345.157	1	-6
346.354	1	8
347.552	1	5
348.749	1	-6
349.946	1	-7
351.143	1	7
352.340	1	6
353.537	1	1
354.734	1	5
355.931	1	8
357.127	1	15
358.324	1	6
359.521	1	23
360.718	1	20
361.914	1	28
363.111	1	34
364.308	1	32
365.504	1	68
366.701	1	67
367.897	1	78
369.093	1	87
370.290	1	85
371.486	1	95
372.682	1	88
373.879	1	59
375.075	1	54
376.271	1	64
377.467	1	41
378.663	1	35
379.859	1	37
381.055	1	41
382.251	1	21
383.447	1	16
384.643	1	29
385.839	1	21
387.035	1	22
388.230	1	19
389.426	1	6
390.622	1	12
391.817	1	13
393.013	1	8
394.208	1	9
395.404	1	2
396.599	1	3
397.795	1	1
398.990	1	3
400.186	1	7
401.381	1	-1
402.576	1	4
403.771	1	4
404.967	1	7
406.162	1	7
407.357	1	-6
408.552	1	1
409.747	1	1
410.942	1	12
412.137	1	10
413.332	1	8
414.526	1	-6
415.721	1	3
416.916	1	-1
418.111	1	9
419.305	1	3
420.500	1	-1
421.695	1	-4
422.889	1	-6
424.084	1	-1
425.278	1	7
426.472	1	4
427.667	1	5
428.861	1	3
430.055	1	6
431.250	1	10
432.444	1	4
433.638	1	3
434.832	1	3
436.026	1	5
437.220	1	12
438.414	1	-1
439.608	1	-7
440.802	1	-7
441.996	1	4
443.190	1	4
444.384	1	-1
445.578	1	1
446.771	1	11
447.965	1	9
449.159	1	1
450.352	1	4
451.546	1	6
452.739	1	13
453.933	1	3
455.126	1	-6
456.320	1	2
457.513	1	1
458.706	1	1
459.899	1	6
461.093	1	2
462.286	1	-4
463.479	1	5
464.672	1	-2
465.865	1	4
467.058	1	-1
468.251	1	1
469.444	1	-9
470.637	1	0
471.830	1	12
473.023	1	9
474.215	1	8
475.408	1	1
476.601	1	-1
477.793	1	0
478.986	1	1
480.179	1	5
481.371	1	3
482.564	1	7
483.756	1	7
484.948	1	-2
486.141	1	4
487.333	1	6
488.525	1	1
489.718	1	3
490.910	1	14
492.102	1	0
493.294	1	2
494.486	1	3
495.678	1	8
496.870	1	-2
498.062	1	3
499.254	1	-1
500.446	1	-3
501.638	1	3
502.829	1	7
504.021	1	8
505.213	1	11
506.404	1	8
507.596	1	11
508.788	1	21
509.979	1	-2
511.171	1	-4
512.362	1	6
513.553	1	-9
514.745	1	7
515.936	1	8
517.127	1	11
518.319	1	13
519.510	1	8
520.701	1	3
521.892	1	9
523.083	1	6
524.274	1	14
525.465	1	20
526.656	1	9
527.847	1	8
529.038	1	12
530.229	1	15
531.419	1	14
532.610	1	13
533.801	1	23
534.991	1	2
536.182	1	12
537.373	1	18
538.563	1	17
539.754	1	17
540.944	1	1
542.134	1	17
543.325	1	14
544.515	1	8
545.705	1	8
546.896	1	8
548.086	1	10
549.276	1	2
550.466	1	12
551.656	1	26
552.846	1	15
554.036	1	14
555.226	1	4
556.416	1	8
557.606	1	13
558.796	1	7
559.986	1	9
561.175	1	15
562.365	1	9
563.555	1	12
564.744	1	10
565.934	1	15
567.123	1	14
568.313	1	15
569.502	1	6
570.692	1	7
571.881	1	14
573.070	1	16
574.260	1	14
575.449	1	10
576.638	1	2
577.827	1	10
579.016	1	21
580.205	1	6
581.394	1	9
582.583	1	23
583.772	1	15
584.961	1	24
586.150	1	11
587.339	1	12
588.528	1	11
589.717	1	18
590.905	1	11
592.094	1	13
593.283	1	11
594.471	1	24
595.660	1	12
596.848	1	6
598.037	1	10
599.225	1	-2
600.413	1	21
601.602	1	17
602.790	1	14
603.978	1	10
605.166	1	10
606.355	1	15
607.543	1	13
608.731	1	13
609.919	1	25
611.107	1	4
612.295	1	10
613.483	1	8
614.671	1	10
615.858	1	16
617.046	1	2
618.234	1	7
619.422	1	3
620.609	1	10
621.797	1	3
622.985	1	7
624.172	1	8
625.360	1	7
626.547	1	9
627.735	1	13
628.922	1	12
630.109	1	-4
631.297	1	5
632.484	1	7
633.671	1	7
634.858	1	10
636.045	1	20
637.232	1	13
638.419	1	2
639.606	1	12
640.793	1	11
641.980	1	12
643.167	1	6
644.354	1	3
645.541	1	4
646.728	1	4
647.914	1	-1
649.101	1	-1
650.288	1	3
651.474	1	1
652.661	1	7
653.847	1	13
655.034	1	-1
656.220	1	-7
657.406	1	11
658.593	1	15
659.779	1	5
660.965	1	15
662.152	1	2
663.338	1	12
664.524	1	-5
665.710	1	15
666.896	1	5
668.082	1	2
669.268	1	9
670.454	1	3
671.640	1	3
672.826	1	9
674.011	1	3
675.197	1	-1
676.383	1	8
677.569	1	-3
678.754	1	2
679.940	1	1
681.125	1	5
682.311	1	19
683.496	1	2
684.682	1	-3
685.867	1	3
687.053	1	3
688.238	1	10
688.746	1	0

File: GaN_sample F_spot 12_UVVIS_200 K_200um_800 ms 2x2mm1_100.txt
340.368	1	1
341.565	1	-11
342.763	1	11
343.960	1	1
345.157	1	4
346.354	1	-2
347.552	1	1
348.749	1	-9
349.946	1	-5
351.143	1	6
352.340	1	10
353.537	1	10
354.734	1	9
355.931	1	10
357.127	1	6
358.324	1	13
359.521	1	22
360.718	1	24
361.914	1	29
363.111	1	28
364.308	1	42
365.504	1	66
366.701	1	73
367.897	1	86
369.093	1	87
370.290	1	97
371.486	1	86
372.682	1	90
373.879	1	64
375.075	1	49
376.271	1	55
377.467	1	57
378.663	1	37
379.859	1	35
381.055	1	43
382.251	1	24
383.447	1	20
384.643	1	40
385.839	1	20
387.035	1	15
388.230	1	25
389.426	1	10
390.622	1	8
391.817	1	12
393.013	1	-6
394.208	1	8
395.404	1	1
396.599	1	5
397.795	1	6
398.990	1	2
400.186	1	10
401.381	1	-3
402.576	1	4
403.771	1	11
404.967	1	7
406.162	1	6
407.357	1	0
408.552	1	2
409.747	1	0
410.942	1	2
412.137	1	-4
413.332	1	6
414.526	1	-1
415.721	1	10
416.916	1	4
418.111	1	11
419.305	1	4
420.500	1	7
421.695	1	2
422.889	1	0
424.084	1	2
425.278	1	15
426.472	1	0
427.667	1	6
428.861	1	5
430.055	1	4
431.250	1	4
432.444	1	13
433.638	1	-7
434.832	1	6
436.026	1	14
437.220	1	10
438.414	1	1
439.608	1	-1
440.802	1	-1
441.996	1	8
443.190	1	0
444.384	1	7
445.578	1	-4
446.771	1	15
447.965	1	1
449.159	1	-4
450.352	1	4
451.546	1	1
452.739	1	-3
453.933	1	1
455.126	1	-3
456.320	1	1
457.513	1	7
458.706	1	6
459.899	1	1
461.093	1	-1
462.286	1	0
463.479	1	-1
464.672	1	-2
465.865	1	-3
467.058	1	6
468.251	1	1
469.444	1	2
470.637	1	4
471.830	1	-1
473.023	1	6
474.215	1	18
475.408	1	-4
476.601	1	1
477.793	1	4
478.986	1	6
480.179	1	4
481.371	1	6
482.564	1	12
483.756	1	13
484.948	1	-2
486.141	1	0
487.333	1	4
488.525	1	1
489.718	1	2
490.910	1	6
492.102	1	-2
493.294	1	-3
494.486	1	8
495.678	1	6
496.870	1	10
498.062	1	11
499.254	1	-7
500.446	1	-2
501.638	1	3
502.829	1	3
504.021	1	4
505.213	1	10
506.404	1	-1
507.596	1	13
508.788	1	9
509.979	1	8
511.171	1	0
512.362	1	14
513.553	1	-5
514.745	1	5
515.936	1	8
517.127	1	8
518.319	1	3
519.510	1	0
520.701	1	12
521.892	1	6
523.083	1	0
524.274	1	2
525.465	1	13
526.656	1	13
527.847	1	5
529.038	1	17
530.229	1	5
531.419	1	11
532.610	1	2
533.801	1	22
534.991	1	10
536.182	1	8
537.373	1	10
538.563	1	14
539.754	1	17
540.944	1	13
542.134	1	10
543.325	1	9
544.515	1	11
545.705	1	8
546.896	1	9
548.086	1	14
549.276	1	19
550.466	1	7
551.656	1	19
552.846	1	9
554.036	1	6
555.226	1	6
556.416	1	0
557.606	1	16
558.796	1	10
559.986	1	5
561.175	1	17
562.365	1	14
563.555	1	-5
564.744	1	12
565.934	1	11
567.123	1	12
568.313	1	11
569.502	1	13
570.692	1	20
571.881	1	18
573.070	1	4
574.260	1	19
575.449	1	14
576.638	1	-1
577.827	1	9
579.016	1	3
580.205	1	9
581.394	1	6
582.583	1	18
583.772	1	23
584.961	1	11
586.150	1	9
587.339	1	8
588.528	1	13
589.717	1	9
590.905	1	10
592.094	1	8
593.283	1	14
594.471	1	16
595.660	1	8
596.848	1	15
598.037	1	2
599.225	1	7
600.413	1	18
601.602	1	25
602.790	1	6
603.978	1	7
605.166	1	11
606.355	1	13
607.543	1	9
608.731	1	19
609.919	1	12
611.107	1	15
612.295	1	6
613.483	1	14
614.671	1	11
615.858	1	12
617.046	1	19
618.234	1	16
619.422	1	4
620.609	1	5
621.797	1	11
622.985	1	2
624.172	1	4
625.360	1	11
626.547	1	13
627.735	1	16
628.922	1	7
630.109	1	8
631.297	1	9
632.484	1	7
633.671	1	4
634.858	1	6
636.045	1	20
637.232	1	8
638.419	1	5
639.606	1	10
640.793	1	17
641.980	1	12
643.167	1	1
644.354	1	0
645.541	1	10
646.728	1	-2
647.914	1	0
649.101	1	7
650.288	1	12
651.474	1	6
652.661	1	0
653.847	1	8
655.034	1	11
656.220	1	4
657.406	1	12
658.593	1	14
659.779	1	3
660.965	1	18
662.152	1	7
663.338	1	8
664.524	1	6
665.710	1	8
666.896	1	2
668.082	1	9
669.268	1	5
670.454	1	8
671.640	1	2
672.826	1	10
674.011	1	-6
675.197	1	-10
676.383	1	2
677.569	1	6
678.754	1	1
679.940	1	5
681.125	1	10
682.311	1	12
683.496	1	6
684.682	1	-1
685.867	1	9
687.053	1	4
688.238	1	7
688.746	1	-2

File: GaN_sample F_spot 12_UVVIS_200 K_200um_800 ms 2x2mm1_101.txt
340.368	1	11
341.565	1	-5
342.763	1	15
343.960	1	-5
345.157	1	3
346.354	1	7
347.552	1	-2
348.749	1	8
349.946	1	-1
351.143	1	6
352.340	1	9
353.537	1	10
354.734	1	14
355.931	1	14
357.127	1	12
358.324	1	12
359.521	1	13
360.718	1	35
361.914	1	34
363.111	1	33
364.308	1	47
365.504	1	42
366.701	1	76
367.897	1	88
369.093	1	89
370.290	1	83
371.486	1	99
372.682	1	80
373.879	1	69
375.075	1	57
376.271	1	59
377.467	1	49
378.663	1	36
379.859	1	31
381.055	1	31
382.251	1	16
383.447	1	21
384.643	1	23
385.839	1	14
387.035	1	18
388.230	1	28
389.426	1	14
390.622	1	10
391.817	1	6
393.013	1	9
394.208	1	7
395.404	1	4
396.599	1	7
397.795	1	3
398.990	1	3
400.186	1	-5
401.381	1	0
402.576	1	-2
403.771	1	2
404.967	1	2
406.162	1	10
407.357	1	0
408.552	1	7
409.747	1	0
410.942	1	6
412.137	1	11
413.332	1	6
414.526	1	5
415.721	1	9
416.916	1	-4
418.111	1	7
419.305	1	3
420.500	1	1
421.695	1	-3
422.889	1	0
424.084	1	3
425.278	1	17
426.472	1	0
427.667	1	14
428.861	1	4
430.055	1	2
431.250	1	-4
432.444	1	9
433.638	1	5
434.832	1	1
436.026	1	8
437.220	1	6
438.414	1	-8
439.608	1	-14
440.802	1	-7
441.996	1	15
443.190	1	6
444.384	1	-8
445.578	1	3
446.771	1	15
447.965	1	3
449.159	1	-8
450.352	1	5
451.546	1	-3
452.739	1	-5
453.933	1	-6
455.126	1	-1
456.320	1	-7
457.513	1	11
458.706	1	4
459.899	1	7
461.093	1	3
462.286	1	1
463.479	1	3
464.672	1	-4
465.865	1	1
467.058	1	8
468.251	1	11
469.444	1	-3
470.637	1	11
471.830	1	2
473.023	1	8
474.215	1	10
475.408	1	5
476.601	1	-2
477.793	1	-2
478.986	1	0
480.179	1	6
481.371	1	8
482.564	1	1
483.756	1	14
484.948	1	-12
486.141	1	-3
487.333	1	3
488.525	1	6
489.718	1	1
490.910	1	2
492.102	1	-7
493.294	1	-3
494.486	1	3
495.678	1	7
496.870	1	7
498.062	1	-1
499.254	1	8
500.446	1	-10
501.638	1	2
502.829	1	10
504.021	1	1
505.213	1	13
506.404	1	13
507.596	1	9
508.788	1	20
509.979	1	5
511.171	1	7
512.362	1	-3
513.553	1	-2
514.745	1	0
515.936	1	9
517.127	1	12
518.319	1	-2
519.510	1	3
520.701	1	22
521.892	1	11
523.083	1	-2
524.274	1	5
525.465	1	11
526.656	1	12
527.847	1	10
529.038	1	4
530.229	1	9
531.419	1	19
532.610	1	2
533.801	1	26
534.991	1	8
536.182	1	1
537.373	1	18
538.563	1	12
539.754	1	15
540.944	1	4
542.134	1	15
543.325	1	4
544.515	1	10
545.705	1	6
546.896	1	10
548.086	1	9
549.276	1	10
550.466	1	16
551.656	1	11
552.846	1	12
554.036	1	4
555.226	1	-1
556.416	1	8
557.606	1	21
558.796	1	16
559.986	1	11
561.175	1	16
562.365	1	17
563.555	1	17
564.744	1	12
565.934	1	8
567.123	1	9
568.313	1	10
569.502	1	18
570.692	1	17
571.881	1	19
573.070	1	12
574.260	1	11
575.449	1	-5
576.638	1	11
577.827	1	5
579.016	1	20
580.205	1	10
581.394	1	7
582.583	1	14
583.772	1	10
584.961	1	8
586.150	1	6
587.339	1	15
588.528	1	17
589.717	1	9
590.905	1	6
592.094	1	11
593.283	1	6
594.471	1	17
595.660	1	12
596.848	1	9
598.037	1	11
599.225	1	-3
600.413	1	18
601.602	1	27
602.790	1	10
603.978	1	4
605.166	1	16
606.355	1	10
607.543	1	-1
608.731	1	1
609.919	1	18
611.107	1	10
612.295	1	7
613.483	1	14
614.671	1	14
615.858	1	12
617.046	1	16
618.234	1	1
619.422	1	-1
620.609	1	16
621.797	1	7
622.985	1	2
624.172	1	12
625.360	1	9
626.547	1	3
627.735	1	10
628.922	1	10
630.109	1	-4
631.297	1	9
632.484	1	-6
633.671	1	3
634.858	1	0
636.045	1	6
637.232	1	-1
638.419	1	6
639.606	1	10
640.793	1	11
641.980	1	9
643.167	1	3
644.354	1	12
645.541	1	5
646.728	1	0
647.914	1	4
649.101	1	-3
650.288	1	10
651.474	1	2
652.661	1	9
653.847	1	16
655.034	1	-5
656.220	1	2
657.406	1	7
658.593	1	10
659.779	1	-6
660.965	1	11
662.152	1	9
663.338	1	10
664.524	1	8
665.710	1	4
666.896	1	-4
668.082	1	-2
669.268	1	7
670.454	1	2
671.640	1	9
672.826	1	-2
674.011	1	7
675.197	1	2
676.383	1	8
677.569	1	-4
678.754	1	0
679.940	1	3
681.125	1	3
682.311	1	12
683.496	1	9
684.682	1	0
685.867	1	0
687.053	1	3
688.238	1	11
688.746	1	4

File: GaN_sample F_spot 12_UVVIS_200 K_200um_800 ms 2x2mm1_102.txt
340.368	1	11
341.565	1	-6
342.763	1	9
343.960	1	4
345.157	1	-1
346.354	1	3
347.552	1	-4
348.749	1	1
349.946	1	-2
351.143	1	6
352.340	1	16
353.537	1	-4
354.734	1	17
355.931	1	7
357.127	1	4
358.324	1	12
359.521	1	21
360.718	1	22
361.914	1	26
363.111	1	22
364.308	1	36
365.504	1	56
366.701	1	70
367.897	1	93
369.093	1	96
370.290	1	86
371.486	1	94
372.682	1	87
373.879	1	64
375.075	1	54
376.271	1	48
377.467	1	39
378.663	1	30
379.859	1	32
381.055	1	34
382.251	1	16
383.447	1	28
384.643	1	27
385.839	1	15
387.035	1	12
388.230	1	13
389.426	1	9
390.622	1	5
391.817	1	3
393.013	1	11
394.208	1	5
395.404	1	2
396.599	1	3
397.795	1	16
398.990	1	2
400.186	1	4
401.381	1	2
402.576	1	-2
403.771	1	13
404.967	1	5
406.162	1	15
407.357	1	1
408.552	1	6
409.747	1	8
410.942	1	8
412.137	1	2
413.332	1	4
414.526	1	0
415.721	1	10
416.916	1	1
418.111	1	4
419.305	1	8
420.500	1	-6
421.695	1	-5
422.889	1	-6
424.084	1	-1
425.278	1	8
426.472	1	11
427.667	1	9
428.861	1	-8
430.055	1	7
431.250	1	2
432.444	1	8
433.638	1	-5
434.832	1	3
436.026	1	9
437.220	1	-2
438.414	1	-6
439.608	1	-4
440.802	1	-2
441.996	1	6
443.190	1	0
444.384	1	10
445.578	1	-4
446.771	1	18
447.965	1	1
449.159	1	-3
450.352	1	1
451.546	1	-3
452.739	1	15
453.933	1	2
455.126	1	-5
456.320	1	3
457.513	1	6
458.706	1	2
459.899	1	-2
461.093	1	7
462.286	1	7
463.479	1	3
464.672	1	-2
465.865	1	7
467.058	1	-1
468.251	1	3
469.444	1	-7
470.637	1	-7
471.830	1	4
473.023	1	1
474.215	1	12
475.408	1	7
476.601	1	0
477.793	1	8
478.986	1	-5
480.179	1	2
481.371	1	-1
482.564	1	10
483.756	1	14
484.948	1	-4
486.141	1	-1
487.333	1	-3
488.525	1	12
489.718	1	2
490.910	1	-4
492.102	1	6
493.294	1	2
494.486	1	19
495.678	1	8
496.870	1	8
498.062	1	2
499.254	1	9
500.446	1	-3
501.638	1	-4
502.829	1	8
504.021	1	6
505.213	1	10
506.404	1	5
507.596	1	9
508.788	1	14
509.979	1	13
511.171	1	9
512.362	1	6
513.553	1	-2
514.745	1	2
515.936	1	5
517.127	1	3
518.319	1	3
519.510	1	4
520.701	1	9
521.892	1	6
523.083	1	7
524.274	1	9
525.465	1	10
526.656	1	9
527.847	1	9
529.038	1	11
530.229	1	10
531.419	1	16
532.610	1	2
533.801	1	10
534.991	1	13
536.182	1	11
537.373	1	9
538.563	1	23
539.754	1	8
540.944	1	-1
542.134	1	15
543.325	1	10
544.515	1	8
545.705	1	11
546.896	1	11
548.086	1	15
549.276	1	9
550.466	1	5
551.656	1	20
552.846	1	10
554.036	1	11
555.226	1	4
556.416	1	8
557.606	1	19
558.796	1	11
559.986	1	3
561.175	1	7
562.365	1	17
563.555	1	1
564.744	1	16
565.934	1	17
567.123	1	16
568.313	1	7
569.502	1	9
570.692	1	14
571.881	1	28
573.070	1	11
574.260	1	21
575.449	1	10
576.638	1	6
577.827	1	8
579.016	1	16
580.205	1	3
581.394	1	7
582.583	1	12
583.772	1	15
584.961	1	14
586.150	1	13
587.339	1	16
588.528	1	9
589.717	1	11
590.905	1	2
592.094	1	9
593.283	1	6
594.471	1	21
595.660	1	13
596.848	1	11
598.037	1	8
599.225	1	-10
600.413	1	17
601.602	1	18
602.790	1	3
603.978	1	12
605.166	1	21
606.355	1	15
607.543	1	1
608.731	1	5
609.919	1	10
611.107	1	13
612.295	1	5
613.483	1	4
614.671	1	14
615.858	1	7
617.046	1	9
618.234	1	3
619.422	1	-4
620.609	1	15
621.797	1	-5
622.985	1	4
624.172	1	11
625.360	1	6
626.547	1	15
627.735	1	5
628.922	1	12
630.109	1	-3
631.297	1	3
632.484	1	6
633.671	1	7
634.858	1	1
636.045	1	10
637.232	1	-1
638.419	1	0
639.606	1	12
640.793	1	9
641.980	1	7
643.167	1	-1
644.354	1	6
645.541	1	11
646.728	1	-1
647.914	1	7
649.101	1	9
650.288	1	12
651.474	1	6
652.661	1	0
653.847	1	5
655.034	1	12
656.220	1	-4
657.406	1	3
658.593	1	8
659.779	1	11
660.965	1	8
662.152	1	11
663.338	1	9
664.524	1	1
665.710	1	-1
666.896	1	0
668.082	1	5
669.268	1	5
670.454	1	6
671.640	1	8
672.826	1	3
674.011	1	4
675.197	1	1
676.383	1	7
677.569	1	6
678.754	1	1
679.940	1	6
681.125	1	5
682.311	1	14
683.496	1	10
684.682	1	7
685.867	1	12
687.053	1	13
688.238	1	5
688.746	1	4

File: GaN_sample F_spot 12_UVVIS_200 K_200um_800 ms 2x2mm1_104.txt
340.368	1	8
341.565	1	-7
342.763	1	4
343.960	1	0
345.157	1	-2
346.354	1	-6
347.552	1	3
348.749	1	3
349.946	1	-1
351.143	1	2
352.340	1	7
353.537	1	9
354.734	1	7
355.931	1	2
357.127	1	0
358.324	1	9
359.521	1	19
360.718	1	11
361.914	1	14
363.111	1	43
364.308	1	34
365.504	1	61
366.701	1	66
367.897	1	80
369.093	1	81
370.290	1	89
371.486	1	80
372.682	1	84
373.879	1	61
375.075	1	50
376.271	1	61
377.467	1	39
378.663	1	28
379.859	1	34
381.055	1	46
382.251	1	26
383.447	1	6
384.643	1	10
385.839	1	14
387.035	1	12
388.230	1	20
389.426	1	15
390.622	1	1
391.817	1	12
393.013	1	17
394.208	1	5
395.404	1	0
396.599	1	9
397.795	1	9
398.990	1	8
400.186	1	5
401.381	1	8
402.576	1	5
403.771	1	7
404.967	1	6
406.162	1	12
407.357	1	-3
408.552	1	0
409.747	1	1
410.942	1	14
412.137	1	6
413.332	1	9
414.526	1	1
415.721	1	1
416.916	1	0
418.111	1	3
419.305	1	12
420.500	1	2
421.695	1	-7
422.889	1	2
424.084	1	9
425.278	1	11
426.472	1	3
427.667	1	8
428.861	1	4
430.055	1	17
431.250	1	1
432.444	1	5
433.638	1	3
434.832	1	9
436.026	1	-1
437.220	1	2
438.414	1	-10
439.608	1	-1
440.802	1	-2
441.996	1	8
443.190	1	-5
444.384	1	-3
445.578	1	0
446.771	1	11
447.965	1	-5
449.159	1	0
450.352	1	2
451.546	1	2
452.739	1	5
453.933	1	4
455.126	1	-7
456.320	1	1
457.513	1	10
458.706	1	10
459.899	1	-6
461.093	1	2
462.286	1	10
463.479	1	6
464.672	1	4
465.865	1	-4
467.058	1	-2
468.251	1	2
469.444	1	4
470.637	1	1
471.830	1	1
473.023	1	4
474.215	1	8
475.408	1	0
476.601	1	7
477.793	1	2
478.986	1	2
480.179	1	2
481.371	1	4
482.564	1	5
483.756	1	9
484.948	1	-2
486.141	1	-5
487.333	1	10
488.525	1	-1
489.718	1	9
490.910	1	3
492.102	1	0
493.294	1	1
494.486	1	11
495.678	1	10
496.870	1	-4
498.062	1	1
499.254	1	-2
500.446	1	-4
501.638	1	-2
502.829	1	4
504.021	1	17
505.213	1	12
506.404	1	12
507.596	1	5
508.788	1	20
509.979	1	-5
511.171	1	3
512.362	1	8
513.553	1	-8
514.745	1	2
515.936	1	8
517.127	1	6
518.319	1	1
519.510	1	8
520.701	1	12
521.892	1	10
523.083	1	2
524.274	1	10
525.465	1	17
526.656	1	-4
527.847	1	7
529.038	1	10
530.229	1	14
531.419	1	7
532.610	1	0
533.801	1	17
534.991	1	10
536.182	1	11
537.373	1	4
538.563	1	15
539.754	1	18
540.944	1	15
542.134	1	17
543.325	1	11
544.515	1	-1
545.705	1	7
546.896	1	6
548.086	1	12
549.276	1	8
550.466	1	19
551.656	1	6
552.846	1	18
554.036	1	6
555.226	1	9
556.416	1	21
557.606	1	16
558.796	1	18
559.986	1	9
561.175	1	17
562.365	1	19
563.555	1	10
564.744	1	15
565.934	1	21
567.123	1	16
568.313	1	16
569.502	1	15
570.692	1	15
571.881	1	15
573.070	1	10
574.260	1	17
575.449	1	17
576.638	1	1
577.827	1	5
579.016	1	22
580.205	1	11
581.394	1	10
582.583	1	27
583.772	1	14
584.961	1	8
586.150	1	7
587.339	1	12
588.528	1	10
589.717	1	3
590.905	1	10
592.094	1	0
593.283	1	15
594.471	1	22
595.660	1	7
596.848	1	13
598.037	1	3
599.225	1	3
600.413	1	20
601.602	1	16
602.790	1	10
603.978	1	1
605.166	1	15
606.355	1	11
607.543	1	3
608.731	1	11
609.919	1	15
611.107	1	10
612.295	1	-2
613.483	1	6
614.671	1	14
615.858	1	9
617.046	1	10
618.234	1	10
619.422	1	-3
620.609	1	8
621.797	1	0
622.985	1	11
624.172	1	9
625.360	1	4
626.547	1	-1
627.735	1	8
628.922	1	15
630.109	1	-6
631.297	1	7
632.484	1	8
633.671	1	5
634.858	1	-2
636.045	1	15
637.232	1	4
638.419	1	3
639.606	1	9
640.793	1	15
641.980	1	12
643.167	1	8
644.354	1	2
645.541	1	10
646.728	1	2
647.914	1	6
649.101	1	6
650.288	1	3
651.474	1	3
652.661	1	1
653.847	1	8
655.034	1	7
656.220	1	13
657.406	1	9
658.593	1	11
659.779	1	8
660.965	1	11
662.152	1	0
663.338	1	4
664.524	1	9
665.710	1	-1
666.896	1	-1
668.082	1	2
669.268	1	0
670.454	1	9
671.640	1	7
672.826	1	2
674.011	1	-2
675.197	1	1
676.383	1	12
677.569	1	-2
678.754	1	4
679.940	1	9
681.125	1	1
682.311	1	9
683.496	1	17
684.682	1	-4
685.867	1	3
687.053	1	9
688.238	1	4
688.746	1	8

File: GaN_sample F_spot 12_UVVIS_200 K_200um_800 ms 2x2mm1_105.txt
340.368	1	7
341.565	1	-4
342.763	1	11
343.960	1	4
345.157	1	-9
346.354	1	4
347.552	1	7
348.749	1	4
349.946	1	-6
351.143	1	3
352.340	1	4
353.537	1	3
354.734	1	10
355.931	1	0
357.127	1	7
358.324	1	17
359.521	1	19
360.718	1	16
361.914	1	37
363.111	1	27
364.308	1	37
365.504	1	57
366.701	1	61
367.897	1	74
369.093	1	79
370.290	1	82
371.486	1	89
372.682	1	80
373.879	1	64
375.075	1	55
376.271	1	50
377.467	1	43
378.663	1	26
379.859	1	38
381.055	1	37
382.251	1	19
383.447	1	27
384.643	1	22
385.839	1	10
387.035	1	17
388.230	1	23
389.426	1	9
390.622	1	3
391.817	1	16
393.013	1	7
394.208	1	7
395.404	1	7
396.599	1	2
397.795	1	4
398.990	1	8
400.186	1	10
401.381	1	0
402.576	1	0
403.771	1	5
404.967	1	8
406.162	1	10
407.357	1	5
408.552	1	1
409.747	1	-2
410.942	1	7
412.137	1	13
413.332	1	9
414.526	1	-3
415.721	1	5
416.916	1	-2
418.111	1	8
419.305	1	1
420.500	1	-1
421.695	1	7
422.889	1	2
424.084	1	10
425.278	1	14
426.472	1	13
427.667	1	10
428.861	1	-2
430.055	1	3
431.250	1	0
432.444	1	9
433.638	1	4
434.832	1	9
436.026	1	14
437.220	1	5
438.414	1	-10
439.608	1	3
440.802	1	-3
441.996	1	14
443.190	1	2
444.384	1	-5
445.578	1	-3
446.771	1	2
447.965	1	8
449.159	1	-5
450.352	1	9
451.546	1	5
452.739	1	11
453.933	1	0
455.126	1	-6
456.320	1	-3
457.513	1	4
458.706	1	-3
459.899	1	4
461.093	1	5
462.286	1	3
463.479	1	7
464.672	1	7
465.865	1	-2
467.058	1	-2
468.251	1	2
469.444	1	0
470.637	1	4
471.830	1	-3
473.023	1	8
474.215	1	5
475.408	1	1
476.601	1	8
477.793	1	0
478.986	1	2
480.179	1	6
481.371	1	5
482.564	1	5
483.756	1	5
484.948	1	-2
486.141	1	-2
487.333	1	4
488.525	1	3
489.718	1	3
490.910	1	8
492.102	1	-2
493.294	1	4
494.486	1	3
495.678	1	5
496.870	1	2
498.062	1	3
499.254	1	3
500.446	1	2
501.638	1	0
502.829	1	5
504.021	1	2
505.213	1	10
506.404	1	8
507.596	1	2
508.788	1	11
509.979	1	7
511.171	1	3
512.362	1	3
513.553	1	-12
514.745	1	4
515.936	1	10
517.127	1	4
518.319	1	10
519.510	1	13
520.701	1	8
521.892	1	6
523.083	1	9
524.274	1	9
525.465	1	8
526.656	1	14
527.847	1	9
529.038	1	5
530.229	1	18
531.419	1	8
532.610	1	9
533.801	1	19
534.991	1	6
536.182	1	4
537.373	1	6
538.563	1	13
539.754	1	9
540.944	1	8
542.134	1	8
543.325	1	13
544.515	1	9
545.705	1	12
546.896	1	7
548.086	1	9
549.276	1	10
550.466	1	13
551.656	1	17
552.846	1	12
554.036	1	18
555.226	1	9
556.416	1	9
557.606	1	12
558.796	1	7
559.986	1	11
561.175	1	5
562.365	1	15
563.555	1	8
564.744	1	17
565.934	1	14
567.123	1	14
568.313	1	22
569.502	1	4
570.692	1	10
571.881	1	20
573.070	1	14
574.260	1	18
575.449	1	8
576.638	1	2
577.827	1	9
579.016	1	18
580.205	1	11
581.394	1	9
582.583	1	19
583.772	1	19
584.961	1	17
586.150	1	18
587.339	1	16
588.528	1	13
589.717	1	10
590.905	1	8
592.094	1	11
593.283	1	12
594.471	1	18
595.660	1	0
596.848	1	12
598.037	1	4
599.225	1	3
600.413	1	26
601.602	1	12
602.790	1	13
603.978	1	5
605.166	1	13
606.355	1	14
607.543	1	10
608.731	1	7
609.919	1	11
611.107	1	7
612.295	1	4
613.483	1	2
614.671	1	10
615.858	1	8
617.046	1	4
618.234	1	3
619.422	1	-3
620.609	1	15
621.797	1	-1
622.985	1	10
624.172	1	10
625.360	1	2
626.547	1	10
627.735	1	13
628.922	1	7
630.109	1	-9
631.297	1	1
632.484	1	10
633.671	1	-2
634.858	1	2
636.045	1	18
637.232	1	-8
638.419	1	10
639.606	1	4
640.793	1	17
641.980	1	16
643.167	1	-5
644.354	1	11
645.541	1	-2
646.728	1	5
647.914	1	7
649.101	1	-1
650.288	1	13
651.474	1	-7
652.661	1	5
653.847	1	11
655.034	1	9
656.220	1	4
657.406	1	11
658.593	1	7
659.779	1	1
660.965	1	8
662.152	1	10
663.338	1	5
664.524	1	0
665.710	1	8
666.896	1	3
668.082	1	-4
669.268	1	4
670.454	1	9
671.640	1	13
672.826	1	11
674.011	1	7
675.197	1	-4
676.383	1	4
677.569	1	4
678.754	1	1
679.940	1	1
681.125	1	15
682.311	1	8
683.496	1	10
684.682	1	-6
685.867	1	2
687.053	1	3
688.238	1	6
688.746	1	3