Folder: cryo-il_analysis/Data/GaN_150K_450ms (part 26)

File: GaN_sample D_spot15_UVVIS_150 K_200um_450 ms 2x2mm1_230.txt
340.368	1	-2
341.565	1	6
342.763	1	5
343.960	1	7
345.157	1	-1
346.354	1	1
347.552	1	13
348.749	1	12
349.946	1	6
351.143	1	0
352.340	1	9
353.537	1	-6
354.734	1	2
355.931	1	5
357.127	1	8
358.324	1	9
359.521	1	10
360.718	1	7
361.914	1	4
363.111	1	5
364.308	1	15
365.504	1	-4
366.701	1	8
367.897	1	21
369.093	1	20
370.290	1	20
371.486	1	28
372.682	1	17
373.879	1	4
375.075	1	6
376.271	1	13
377.467	1	9
378.663	1	12
379.859	1	6
381.055	1	9
382.251	1	5
383.447	1	6
384.643	1	5
385.839	1	3
387.035	1	6
388.230	1	11
389.426	1	3
390.622	1	-1
391.817	1	-2
393.013	1	16
394.208	1	5
395.404	1	8
396.599	1	5
397.795	1	2
398.990	1	11
400.186	1	-1
401.381	1	9
402.576	1	7
403.771	1	-3
404.967	1	-4
406.162	1	-8
407.357	1	4
408.552	1	4
409.747	1	8
410.942	1	12
412.137	1	-3
413.332	1	3
414.526	1	-6
415.721	1	4
416.916	1	0
418.111	1	10
419.305	1	5
420.500	1	-1
421.695	1	1
422.889	1	10
424.084	1	-5
425.278	1	4
426.472	1	12
427.667	1	7
428.861	1	-1
430.055	1	13
431.250	1	10
432.444	1	3
433.638	1	10
434.832	1	0
436.026	1	2
437.220	1	10
438.414	1	7
439.608	1	-4
440.802	1	4
441.996	1	8
443.190	1	12
444.384	1	18
445.578	1	2
446.771	1	2
447.965	1	-2
449.159	1	-6
450.352	1	2
451.546	1	-7
452.739	1	7
453.933	1	-8
455.126	1	2
456.320	1	9
457.513	1	1
458.706	1	9
459.899	1	-1
461.093	1	-1
462.286	1	4
463.479	1	1
464.672	1	4
465.865	1	4
467.058	1	-3
468.251	1	3
469.444	1	-3
470.637	1	2
471.830	1	6
473.023	1	-2
474.215	1	2
475.408	1	7
476.601	1	4
477.793	1	-7
478.986	1	3
480.179	1	0
481.371	1	-6
482.564	1	12
483.756	1	0
484.948	1	15
486.141	1	5
487.333	1	-2
488.525	1	-2
489.718	1	-11
490.910	1	6
492.102	1	8
493.294	1	1
494.486	1	2
495.678	1	0
496.870	1	2
498.062	1	-7
499.254	1	-7
500.446	1	-8
501.638	1	8
502.829	1	0
504.021	1	13
505.213	1	-1
506.404	1	4
507.596	1	10
508.788	1	-2
509.979	1	8
511.171	1	9
512.362	1	8
513.553	1	7
514.745	1	0
515.936	1	0
517.127	1	17
518.319	1	10
519.510	1	-4
520.701	1	8
521.892	1	6
523.083	1	2
524.274	1	7
525.465	1	4
526.656	1	12
527.847	1	-6
529.038	1	12
530.229	1	0
531.419	1	10
532.610	1	2
533.801	1	12
534.991	1	0
536.182	1	6
537.373	1	0
538.563	1	0
539.754	1	6
540.944	1	6
542.134	1	5
543.325	1	7
544.515	1	7
545.705	1	4
546.896	1	7
548.086	1	-4
549.276	1	1
550.466	1	3
551.656	1	-2
552.846	1	9
554.036	1	8
555.226	1	-3
556.416	1	0
557.606	1	-5
558.796	1	13
559.986	1	4
561.175	1	-9
562.365	1	7
563.555	1	14
564.744	1	8
565.934	1	10
567.123	1	2
568.313	1	1
569.502	1	-2
570.692	1	8
571.881	1	-1
573.070	1	4
574.260	1	0
575.449	1	-6
576.638	1	6
577.827	1	-6
579.016	1	-1
580.205	1	7
581.394	1	4
582.583	1	2
583.772	1	11
584.961	1	-1
586.150	1	3
587.339	1	-4
588.528	1	-2
589.717	1	0
590.905	1	10
592.094	1	13
593.283	1	10
594.471	1	-11
595.660	1	4
596.848	1	0
598.037	1	-3
599.225	1	1
600.413	1	0
601.602	1	12
602.790	1	6
603.978	1	1
605.166	1	10
606.355	1	-9
607.543	1	0
608.731	1	-6
609.919	1	-10
611.107	1	8
612.295	1	7
613.483	1	0
614.671	1	6
615.858	1	-3
617.046	1	2
618.234	1	-5
619.422	1	17
620.609	1	3
621.797	1	7
622.985	1	-3
624.172	1	-6
625.360	1	0
626.547	1	-7
627.735	1	-1
628.922	1	3
630.109	1	-3
631.297	1	1
632.484	1	10
633.671	1	5
634.858	1	6
636.045	1	-6
637.232	1	-2
638.419	1	8
639.606	1	16
640.793	1	1
641.980	1	14
643.167	1	4
644.354	1	15
645.541	1	1
646.728	1	4
647.914	1	-7
649.101	1	7
650.288	1	-1
651.474	1	-1
652.661	1	0
653.847	1	14
655.034	1	-2
656.220	1	-2
657.406	1	1
658.593	1	6
659.779	1	5
660.965	1	-1
662.152	1	7
663.338	1	-4
664.524	1	10
665.710	1	4
666.896	1	1
668.082	1	4
669.268	1	4
670.454	1	-2
671.640	1	11
672.826	1	-2
674.011	1	17
675.197	1	6
676.383	1	10
677.569	1	9
678.754	1	5
679.940	1	4
681.125	1	3
682.311	1	6
683.496	1	-3
684.682	1	11
685.867	1	2
687.053	1	10
688.238	1	15
688.746	1	-5

File: GaN_sample D_spot15_UVVIS_150 K_200um_450 ms 2x2mm1_233.txt
340.368	1	-9
341.565	1	3
342.763	1	10
343.960	1	9
345.157	1	11
346.354	1	9
347.552	1	15
348.749	1	13
349.946	1	-1
351.143	1	7
352.340	1	2
353.537	1	-7
354.734	1	6
355.931	1	12
357.127	1	9
358.324	1	10
359.521	1	8
360.718	1	1
361.914	1	2
363.111	1	10
364.308	1	14
365.504	1	16
366.701	1	15
367.897	1	23
369.093	1	25
370.290	1	20
371.486	1	15
372.682	1	10
373.879	1	9
375.075	1	-4
376.271	1	5
377.467	1	18
378.663	1	3
379.859	1	0
381.055	1	0
382.251	1	-5
383.447	1	0
384.643	1	-4
385.839	1	9
387.035	1	8
388.230	1	-4
389.426	1	-5
390.622	1	-1
391.817	1	-4
393.013	1	8
394.208	1	4
395.404	1	8
396.599	1	-3
397.795	1	4
398.990	1	7
400.186	1	10
401.381	1	8
402.576	1	6
403.771	1	-10
404.967	1	2
406.162	1	-9
407.357	1	5
408.552	1	4
409.747	1	0
410.942	1	10
412.137	1	-1
413.332	1	13
414.526	1	-1
415.721	1	2
416.916	1	0
418.111	1	6
419.305	1	10
420.500	1	11
421.695	1	8
422.889	1	7
424.084	1	3
425.278	1	0
426.472	1	11
427.667	1	6
428.861	1	11
430.055	1	4
431.250	1	12
432.444	1	8
433.638	1	0
434.832	1	-10
436.026	1	3
437.220	1	2
438.414	1	5
439.608	1	-3
440.802	1	6
441.996	1	8
443.190	1	-3
444.384	1	6
445.578	1	-5
446.771	1	1
447.965	1	3
449.159	1	-2
450.352	1	1
451.546	1	-5
452.739	1	5
453.933	1	-10
455.126	1	6
456.320	1	13
457.513	1	-2
458.706	1	12
459.899	1	3
461.093	1	5
462.286	1	-6
463.479	1	-2
464.672	1	2
465.865	1	2
467.058	1	4
468.251	1	-7
469.444	1	1
470.637	1	-4
471.830	1	-7
473.023	1	7
474.215	1	-1
475.408	1	7
476.601	1	-3
477.793	1	-7
478.986	1	7
480.179	1	-3
481.371	1	-11
482.564	1	0
483.756	1	1
484.948	1	12
486.141	1	3
487.333	1	-2
488.525	1	-3
489.718	1	-11
490.910	1	-5
492.102	1	1
493.294	1	-15
494.486	1	0
495.678	1	-1
496.870	1	0
498.062	1	2
499.254	1	-3
500.446	1	-5
501.638	1	0
502.829	1	9
504.021	1	7
505.213	1	-7
506.404	1	7
507.596	1	8
508.788	1	3
509.979	1	2
511.171	1	7
512.362	1	4
513.553	1	5
514.745	1	6
515.936	1	4
517.127	1	11
518.319	1	0
519.510	1	-4
520.701	1	10
521.892	1	0
523.083	1	2
524.274	1	-9
525.465	1	11
526.656	1	5
527.847	1	-8
529.038	1	0
530.229	1	10
531.419	1	7
532.610	1	6
533.801	1	3
534.991	1	0
536.182	1	2
537.373	1	-5
538.563	1	1
539.754	1	0
540.944	1	12
542.134	1	10
543.325	1	9
544.515	1	2
545.705	1	0
546.896	1	4
548.086	1	8
549.276	1	3
550.466	1	1
551.656	1	4
552.846	1	8
554.036	1	8
555.226	1	1
556.416	1	12
557.606	1	-9
558.796	1	3
559.986	1	1
561.175	1	5
562.365	1	2
563.555	1	6
564.744	1	17
565.934	1	15
567.123	1	-2
568.313	1	9
569.502	1	6
570.692	1	6
571.881	1	2
573.070	1	8
574.260	1	9
575.449	1	2
576.638	1	11
577.827	1	7
579.016	1	7
580.205	1	0
581.394	1	3
582.583	1	11
583.772	1	7
584.961	1	-11
586.150	1	2
587.339	1	-2
588.528	1	3
589.717	1	-2
590.905	1	-5
592.094	1	8
593.283	1	0
594.471	1	-9
595.660	1	7
596.848	1	8
598.037	1	4
599.225	1	4
600.413	1	7
601.602	1	8
602.790	1	4
603.978	1	-5
605.166	1	2
606.355	1	-18
607.543	1	-6
608.731	1	-4
609.919	1	-17
611.107	1	13
612.295	1	5
613.483	1	3
614.671	1	2
615.858	1	-4
617.046	1	-2
618.234	1	-4
619.422	1	13
620.609	1	-5
621.797	1	-5
622.985	1	3
624.172	1	9
625.360	1	6
626.547	1	-5
627.735	1	8
628.922	1	10
630.109	1	-9
631.297	1	2
632.484	1	2
633.671	1	4
634.858	1	12
636.045	1	-8
637.232	1	1
638.419	1	6
639.606	1	8
640.793	1	-5
641.980	1	6
643.167	1	4
644.354	1	12
645.541	1	2
646.728	1	-1
647.914	1	4
649.101	1	-3
650.288	1	-2
651.474	1	9
652.661	1	10
653.847	1	3
655.034	1	-1
656.220	1	2
657.406	1	2
658.593	1	7
659.779	1	-2
660.965	1	-1
662.152	1	7
663.338	1	-6
664.524	1	11
665.710	1	3
666.896	1	-3
668.082	1	0
669.268	1	4
670.454	1	7
671.640	1	6
672.826	1	0
674.011	1	10
675.197	1	5
676.383	1	4
677.569	1	9
678.754	1	6
679.940	1	-2
681.125	1	-6
682.311	1	12
683.496	1	-6
684.682	1	9
685.867	1	-7
687.053	1	17
688.238	1	4
688.746	1	-4

File: GaN_sample D_spot15_UVVIS_150 K_200um_450 ms 2x2mm1_234.txt
340.368	1	1
341.565	1	5
342.763	1	-2
343.960	1	9
345.157	1	7
346.354	1	-8
347.552	1	8
348.749	1	8
349.946	1	-4
351.143	1	5
352.340	1	13
353.537	1	0
354.734	1	9
355.931	1	6
357.127	1	11
358.324	1	0
359.521	1	17
360.718	1	13
361.914	1	5
363.111	1	4
364.308	1	11
365.504	1	2
366.701	1	6
367.897	1	24
369.093	1	19
370.290	1	24
371.486	1	19
372.682	1	11
373.879	1	12
375.075	1	-2
376.271	1	5
377.467	1	13
378.663	1	9
379.859	1	4
381.055	1	1
382.251	1	-1
383.447	1	5
384.643	1	0
385.839	1	10
387.035	1	5
388.230	1	2
389.426	1	4
390.622	1	-15
391.817	1	-5
393.013	1	10
394.208	1	4
395.404	1	14
396.599	1	9
397.795	1	9
398.990	1	6
400.186	1	4
401.381	1	-6
402.576	1	4
403.771	1	-12
404.967	1	1
406.162	1	-3
407.357	1	13
408.552	1	1
409.747	1	-1
410.942	1	15
412.137	1	2
413.332	1	13
414.526	1	-1
415.721	1	10
416.916	1	-4
418.111	1	-3
419.305	1	7
420.500	1	-4
421.695	1	-1
422.889	1	-5
424.084	1	2
425.278	1	0
426.472	1	11
427.667	1	0
428.861	1	3
430.055	1	7
431.250	1	5
432.444	1	3
433.638	1	7
434.832	1	2
436.026	1	-6
437.220	1	10
438.414	1	5
439.608	1	-11
440.802	1	8
441.996	1	2
443.190	1	-1
444.384	1	5
445.578	1	-9
446.771	1	-8
447.965	1	3
449.159	1	-4
450.352	1	6
451.546	1	-4
452.739	1	-2
453.933	1	-1
455.126	1	-1
456.320	1	5
457.513	1	1
458.706	1	9
459.899	1	-1
461.093	1	1
462.286	1	0
463.479	1	-1
464.672	1	3
465.865	1	6
467.058	1	-9
468.251	1	-2
469.444	1	10
470.637	1	6
471.830	1	3
473.023	1	-4
474.215	1	-1
475.408	1	6
476.601	1	0
477.793	1	-5
478.986	1	11
480.179	1	7
481.371	1	1
482.564	1	4
483.756	1	8
484.948	1	6
486.141	1	-1
487.333	1	3
488.525	1	-6
489.718	1	-6
490.910	1	11
492.102	1	0
493.294	1	-11
494.486	1	-3
495.678	1	-9
496.870	1	5
498.062	1	5
499.254	1	2
500.446	1	-1
501.638	1	12
502.829	1	-5
504.021	1	8
505.213	1	5
506.404	1	1
507.596	1	13
508.788	1	-1
509.979	1	6
511.171	1	4
512.362	1	9
513.553	1	7
514.745	1	2
515.936	1	0
517.127	1	15
518.319	1	0
519.510	1	-6
520.701	1	12
521.892	1	2
523.083	1	6
524.274	1	6
525.465	1	15
526.656	1	10
527.847	1	-4
529.038	1	4
530.229	1	8
531.419	1	-4
532.610	1	8
533.801	1	1
534.991	1	10
536.182	1	-5
537.373	1	2
538.563	1	-5
539.754	1	5
540.944	1	0
542.134	1	-5
543.325	1	8
544.515	1	6
545.705	1	-7
546.896	1	11
548.086	1	9
549.276	1	2
550.466	1	1
551.656	1	-5
552.846	1	16
554.036	1	0
555.226	1	9
556.416	1	12
557.606	1	-4
558.796	1	12
559.986	1	9
561.175	1	14
562.365	1	2
563.555	1	9
564.744	1	10
565.934	1	9
567.123	1	2
568.313	1	2
569.502	1	9
570.692	1	4
571.881	1	5
573.070	1	9
574.260	1	4
575.449	1	2
576.638	1	12
577.827	1	0
579.016	1	7
580.205	1	1
581.394	1	0
582.583	1	-1
583.772	1	10
584.961	1	-3
586.150	1	4
587.339	1	7
588.528	1	-9
589.717	1	1
590.905	1	-2
592.094	1	9
593.283	1	5
594.471	1	1
595.660	1	-5
596.848	1	3
598.037	1	2
599.225	1	-1
600.413	1	-5
601.602	1	16
602.790	1	6
603.978	1	3
605.166	1	8
606.355	1	-10
607.543	1	3
608.731	1	-10
609.919	1	-10
611.107	1	12
612.295	1	-2
613.483	1	5
614.671	1	5
615.858	1	-15
617.046	1	3
618.234	1	-6
619.422	1	17
620.609	1	-4
621.797	1	-2
622.985	1	-5
624.172	1	1
625.360	1	-1
626.547	1	-2
627.735	1	11
628.922	1	3
630.109	1	-11
631.297	1	5
632.484	1	5
633.671	1	7
634.858	1	11
636.045	1	-5
637.232	1	6
638.419	1	-5
639.606	1	-1
640.793	1	-1
641.980	1	9
643.167	1	3
644.354	1	4
645.541	1	-1
646.728	1	5
647.914	1	4
649.101	1	-7
650.288	1	6
651.474	1	1
652.661	1	6
653.847	1	5
655.034	1	-7
656.220	1	7
657.406	1	7
658.593	1	4
659.779	1	12
660.965	1	2
662.152	1	-1
663.338	1	-1
664.524	1	6
665.710	1	4
666.896	1	3
668.082	1	7
669.268	1	2
670.454	1	-2
671.640	1	10
672.826	1	3
674.011	1	2
675.197	1	15
676.383	1	5
677.569	1	5
678.754	1	-5
679.940	1	-5
681.125	1	-4
682.311	1	9
683.496	1	-2
684.682	1	5
685.867	1	-5
687.053	1	14
688.238	1	3
688.746	1	-5

File: GaN_sample D_spot15_UVVIS_150 K_200um_450 ms 2x2mm1_235.txt
340.368	1	11
341.565	1	5
342.763	1	4
343.960	1	8
345.157	1	11
346.354	1	2
347.552	1	18
348.749	1	11
349.946	1	-4
351.143	1	13
352.340	1	6
353.537	1	-1
354.734	1	8
355.931	1	6
357.127	1	1
358.324	1	9
359.521	1	17
360.718	1	1
361.914	1	13
363.111	1	14
364.308	1	10
365.504	1	4
366.701	1	10
367.897	1	17
369.093	1	23
370.290	1	18
371.486	1	24
372.682	1	13
373.879	1	7
375.075	1	1
376.271	1	6
377.467	1	20
378.663	1	11
379.859	1	9
381.055	1	3
382.251	1	-1
383.447	1	2
384.643	1	2
385.839	1	7
387.035	1	7
388.230	1	-3
389.426	1	-4
390.622	1	3
391.817	1	-5
393.013	1	11
394.208	1	4
395.404	1	11
396.599	1	6
397.795	1	8
398.990	1	11
400.186	1	5
401.381	1	2
402.576	1	0
403.771	1	5
404.967	1	6
406.162	1	-7
407.357	1	7
408.552	1	-6
409.747	1	4
410.942	1	10
412.137	1	-2
413.332	1	10
414.526	1	-2
415.721	1	0
416.916	1	0
418.111	1	5
419.305	1	13
420.500	1	3
421.695	1	9
422.889	1	9
424.084	1	3
425.278	1	-9
426.472	1	7
427.667	1	1
428.861	1	6
430.055	1	14
431.250	1	10
432.444	1	13
433.638	1	12
434.832	1	-4
436.026	1	2
437.220	1	6
438.414	1	3
439.608	1	1
440.802	1	5
441.996	1	2
443.190	1	2
444.384	1	8
445.578	1	-5
446.771	1	2
447.965	1	7
449.159	1	-6
450.352	1	-2
451.546	1	1
452.739	1	-3
453.933	1	-1
455.126	1	4
456.320	1	12
457.513	1	-1
458.706	1	6
459.899	1	-3
461.093	1	6
462.286	1	3
463.479	1	1
464.672	1	4
465.865	1	1
467.058	1	6
468.251	1	-1
469.444	1	-1
470.637	1	1
471.830	1	4
473.023	1	10
474.215	1	4
475.408	1	-2
476.601	1	-8
477.793	1	-2
478.986	1	2
480.179	1	-1
481.371	1	-9
482.564	1	5
483.756	1	-6
484.948	1	2
486.141	1	5
487.333	1	0
488.525	1	-11
489.718	1	-7
490.910	1	8
492.102	1	2
493.294	1	-8
494.486	1	3
495.678	1	4
496.870	1	2
498.062	1	-2
499.254	1	6
500.446	1	-8
501.638	1	6
502.829	1	-3
504.021	1	3
505.213	1	-2
506.404	1	-2
507.596	1	12
508.788	1	3
509.979	1	-1
511.171	1	8
512.362	1	6
513.553	1	4
514.745	1	-1
515.936	1	3
517.127	1	7
518.319	1	10
519.510	1	-3
520.701	1	10
521.892	1	7
523.083	1	-3
524.274	1	4
525.465	1	6
526.656	1	4
527.847	1	-10
529.038	1	10
530.229	1	12
531.419	1	4
532.610	1	-6
533.801	1	-1
534.991	1	-1
536.182	1	-2
537.373	1	0
538.563	1	-2
539.754	1	4
540.944	1	2
542.134	1	1
543.325	1	9
544.515	1	3
545.705	1	4
546.896	1	8
548.086	1	8
549.276	1	1
550.466	1	-4
551.656	1	3
552.846	1	0
554.036	1	16
555.226	1	-1
556.416	1	8
557.606	1	-10
558.796	1	12
559.986	1	9
561.175	1	-5
562.365	1	9
563.555	1	6
564.744	1	4
565.934	1	9
567.123	1	-1
568.313	1	4
569.502	1	7
570.692	1	1
571.881	1	-1
573.070	1	5
574.260	1	5
575.449	1	-1
576.638	1	4
577.827	1	-2
579.016	1	-3
580.205	1	-1
581.394	1	4
582.583	1	3
583.772	1	7
584.961	1	-4
586.150	1	8
587.339	1	7
588.528	1	-2
589.717	1	9
590.905	1	4
592.094	1	5
593.283	1	1
594.471	1	0
595.660	1	3
596.848	1	3
598.037	1	-3
599.225	1	-1
600.413	1	6
601.602	1	3
602.790	1	2
603.978	1	9
605.166	1	2
606.355	1	-9
607.543	1	5
608.731	1	-11
609.919	1	-3
611.107	1	11
612.295	1	10
613.483	1	7
614.671	1	-8
615.858	1	-6
617.046	1	-4
618.234	1	-3
619.422	1	15
620.609	1	-3
621.797	1	0
622.985	1	1
624.172	1	5
625.360	1	-3
626.547	1	-1
627.735	1	6
628.922	1	5
630.109	1	-6
631.297	1	12
632.484	1	14
633.671	1	9
634.858	1	6
636.045	1	4
637.232	1	5
638.419	1	-1
639.606	1	5
640.793	1	5
641.980	1	9
643.167	1	-2
644.354	1	11
645.541	1	-6
646.728	1	0
647.914	1	-6
649.101	1	2
650.288	1	5
651.474	1	12
652.661	1	10
653.847	1	7
655.034	1	1
656.220	1	8
657.406	1	-4
658.593	1	6
659.779	1	-1
660.965	1	7
662.152	1	-3
663.338	1	-4
664.524	1	12
665.710	1	1
666.896	1	-4
668.082	1	1
669.268	1	7
670.454	1	5
671.640	1	14
672.826	1	1
674.011	1	12
675.197	1	2
676.383	1	8
677.569	1	6
678.754	1	-5
679.940	1	-1
681.125	1	2
682.311	1	15
683.496	1	-4
684.682	1	8
685.867	1	12
687.053	1	15
688.238	1	8
688.746	1	-7

File: GaN_sample D_spot15_UVVIS_150 K_200um_450 ms 2x2mm1_239.txt
340.368	1	5
341.565	1	1
342.763	1	-5
343.960	1	3
345.157	1	13
346.354	1	11
347.552	1	20
348.749	1	9
349.946	1	-7
351.143	1	10
352.340	1	7
353.537	1	5
354.734	1	11
355.931	1	8
357.127	1	8
358.324	1	11
359.521	1	14
360.718	1	-1
361.914	1	8
363.111	1	3
364.308	1	6
365.504	1	10
366.701	1	10
367.897	1	14
369.093	1	24
370.290	1	22
371.486	1	21
372.682	1	11
373.879	1	14
375.075	1	0
376.271	1	-1
377.467	1	16
378.663	1	13
379.859	1	2
381.055	1	-2
382.251	1	-1
383.447	1	4
384.643	1	4
385.839	1	3
387.035	1	7
388.230	1	4
389.426	1	-4
390.622	1	-7
391.817	1	-7
393.013	1	9
394.208	1	-4
395.404	1	1
396.599	1	2
397.795	1	-1
398.990	1	9
400.186	1	0
401.381	1	1
402.576	1	9
403.771	1	-3
404.967	1	2
406.162	1	-3
407.357	1	14
408.552	1	-7
409.747	1	8
410.942	1	10
412.137	1	-2
413.332	1	3
414.526	1	1
415.721	1	8
416.916	1	8
418.111	1	7
419.305	1	2
420.500	1	11
421.695	1	8
422.889	1	1
424.084	1	3
425.278	1	2
426.472	1	15
427.667	1	6
428.861	1	4
430.055	1	4
431.250	1	6
432.444	1	3
433.638	1	8
434.832	1	-1
436.026	1	-1
437.220	1	6
438.414	1	4
439.608	1	-4
440.802	1	6
441.996	1	5
443.190	1	2
444.384	1	6
445.578	1	-2
446.771	1	6
447.965	1	1
449.159	1	-7
450.352	1	5
451.546	1	-4
452.739	1	8
453.933	1	-3
455.126	1	1
456.320	1	2
457.513	1	-3
458.706	1	8
459.899	1	3
461.093	1	1
462.286	1	-1
463.479	1	-6
464.672	1	3
465.865	1	9
467.058	1	-1
468.251	1	-4
469.444	1	6
470.637	1	0
471.830	1	6
473.023	1	4
474.215	1	-1
475.408	1	12
476.601	1	2
477.793	1	1
478.986	1	2
480.179	1	6
481.371	1	-10
482.564	1	4
483.756	1	2
484.948	1	10
486.141	1	3
487.333	1	-9
488.525	1	3
489.718	1	-8
490.910	1	3
492.102	1	11
493.294	1	-7
494.486	1	5
495.678	1	0
496.870	1	10
498.062	1	-3
499.254	1	-5
500.446	1	-3
501.638	1	9
502.829	1	-1
504.021	1	1
505.213	1	-2
506.404	1	2
507.596	1	13
508.788	1	5
509.979	1	-7
511.171	1	5
512.362	1	5
513.553	1	5
514.745	1	2
515.936	1	4
517.127	1	11
518.319	1	-3
519.510	1	2
520.701	1	6
521.892	1	8
523.083	1	5
524.274	1	2
525.465	1	14
526.656	1	12
527.847	1	-3
529.038	1	10
530.229	1	8
531.419	1	8
532.610	1	8
533.801	1	6
534.991	1	-2
536.182	1	2
537.373	1	6
538.563	1	-4
539.754	1	0
540.944	1	4
542.134	1	-3
543.325	1	6
544.515	1	9
545.705	1	-1
546.896	1	7
548.086	1	5
549.276	1	11
550.466	1	-8
551.656	1	0
552.846	1	6
554.036	1	6
555.226	1	9
556.416	1	5
557.606	1	-12
558.796	1	-1
559.986	1	3
561.175	1	8
562.365	1	-3
563.555	1	4
564.744	1	8
565.934	1	9
567.123	1	-1
568.313	1	10
569.502	1	5
570.692	1	11
571.881	1	-2
573.070	1	5
574.260	1	9
575.449	1	-8
576.638	1	3
577.827	1	-2
579.016	1	2
580.205	1	0
581.394	1	4
582.583	1	2
583.772	1	6
584.961	1	-2
586.150	1	9
587.339	1	5
588.528	1	-11
589.717	1	-1
590.905	1	4
592.094	1	9
593.283	1	6
594.471	1	-11
595.660	1	7
596.848	1	1
598.037	1	8
599.225	1	4
600.413	1	-1
601.602	1	2
602.790	1	3
603.978	1	0
605.166	1	1
606.355	1	-5
607.543	1	-2
608.731	1	-11
609.919	1	-6
611.107	1	10
612.295	1	-5
613.483	1	5
614.671	1	7
615.858	1	-5
617.046	1	-3
618.234	1	-4
619.422	1	13
620.609	1	2
621.797	1	-2
622.985	1	1
624.172	1	7
625.360	1	-7
626.547	1	-4
627.735	1	-7
628.922	1	8
630.109	1	4
631.297	1	-2
632.484	1	1
633.671	1	3
634.858	1	4
636.045	1	2
637.232	1	4
638.419	1	-3
639.606	1	8
640.793	1	1
641.980	1	13
643.167	1	3
644.354	1	6
645.541	1	-5
646.728	1	0
647.914	1	0
649.101	1	5
650.288	1	11
651.474	1	7
652.661	1	4
653.847	1	1
655.034	1	5
656.220	1	16
657.406	1	2
658.593	1	2
659.779	1	7
660.965	1	5
662.152	1	-1
663.338	1	-1
664.524	1	11
665.710	1	11
666.896	1	3
668.082	1	7
669.268	1	0
670.454	1	12
671.640	1	6
672.826	1	1
674.011	1	7
675.197	1	-1
676.383	1	0
677.569	1	13
678.754	1	7
679.940	1	-4
681.125	1	0
682.311	1	4
683.496	1	3
684.682	1	14
685.867	1	1
687.053	1	14
688.238	1	7
688.746	1	2

File: GaN_sample D_spot15_UVVIS_150 K_200um_450 ms 2x2mm1_241.txt
340.368	1	-3
341.565	1	3
342.763	1	5
343.960	1	2
345.157	1	16
346.354	1	8
347.552	1	13
348.749	1	2
349.946	1	0
351.143	1	2
352.340	1	6
353.537	1	-5
354.734	1	-5
355.931	1	10
357.127	1	8
358.324	1	4
359.521	1	13
360.718	1	1
361.914	1	10
363.111	1	16
364.308	1	14
365.504	1	12
366.701	1	9
367.897	1	16
369.093	1	16
370.290	1	21
371.486	1	20
372.682	1	12
373.879	1	5
375.075	1	2
376.271	1	-2
377.467	1	15
378.663	1	18
379.859	1	8
381.055	1	9
382.251	1	-7
383.447	1	0
384.643	1	7
385.839	1	-2
387.035	1	10
388.230	1	9
389.426	1	1
390.622	1	-2
391.817	1	-15
393.013	1	11
394.208	1	1
395.404	1	7
396.599	1	5
397.795	1	2
398.990	1	16
400.186	1	9
401.381	1	6
402.576	1	8
403.771	1	1
404.967	1	3
406.162	1	-5
407.357	1	4
408.552	1	-5
409.747	1	6
410.942	1	6
412.137	1	3
413.332	1	0
414.526	1	2
415.721	1	3
416.916	1	-9
418.111	1	1
419.305	1	1
420.500	1	9
421.695	1	10
422.889	1	-1
424.084	1	9
425.278	1	2
426.472	1	3
427.667	1	-4
428.861	1	5
430.055	1	18
431.250	1	6
432.444	1	1
433.638	1	3
434.832	1	-8
436.026	1	0
437.220	1	8
438.414	1	10
439.608	1	-6
440.802	1	-3
441.996	1	2
443.190	1	4
444.384	1	11
445.578	1	-4
446.771	1	10
447.965	1	4
449.159	1	5
450.352	1	0
451.546	1	2
452.739	1	9
453.933	1	0
455.126	1	9
456.320	1	7
457.513	1	-5
458.706	1	0
459.899	1	-3
461.093	1	5
462.286	1	1
463.479	1	-3
464.672	1	2
465.865	1	1
467.058	1	0
468.251	1	-9
469.444	1	9
470.637	1	11
471.830	1	6
473.023	1	5
474.215	1	-7
475.408	1	-2
476.601	1	-5
477.793	1	-4
478.986	1	7
480.179	1	3
481.371	1	-4
482.564	1	8
483.756	1	-2
484.948	1	0
486.141	1	9
487.333	1	-6
488.525	1	-9
489.718	1	-3
490.910	1	7
492.102	1	3
493.294	1	-18
494.486	1	1
495.678	1	2
496.870	1	5
498.062	1	-8
499.254	1	-4
500.446	1	3
501.638	1	2
502.829	1	-2
504.021	1	5
505.213	1	-1
506.404	1	-2
507.596	1	13
508.788	1	1
509.979	1	3
511.171	1	10
512.362	1	8
513.553	1	3
514.745	1	8
515.936	1	0
517.127	1	9
518.319	1	1
519.510	1	4
520.701	1	12
521.892	1	6
523.083	1	3
524.274	1	5
525.465	1	16
526.656	1	5
527.847	1	-4
529.038	1	3
530.229	1	7
531.419	1	3
532.610	1	10
533.801	1	2
534.991	1	3
536.182	1	-5
537.373	1	-1
538.563	1	7
539.754	1	3
540.944	1	6
542.134	1	2
543.325	1	11
544.515	1	3
545.705	1	0
546.896	1	7
548.086	1	13
549.276	1	10
550.466	1	4
551.656	1	0
552.846	1	9
554.036	1	10
555.226	1	4
556.416	1	13
557.606	1	-4
558.796	1	15
559.986	1	12
561.175	1	3
562.365	1	8
563.555	1	1
564.744	1	12
565.934	1	10
567.123	1	-1
568.313	1	2
569.502	1	6
570.692	1	15
571.881	1	-4
573.070	1	11
574.260	1	13
575.449	1	6
576.638	1	6
577.827	1	4
579.016	1	1
580.205	1	4
581.394	1	0
582.583	1	14
583.772	1	9
584.961	1	-9
586.150	1	2
587.339	1	1
588.528	1	-5
589.717	1	-3
590.905	1	0
592.094	1	1
593.283	1	-2
594.471	1	-2
595.660	1	7
596.848	1	0
598.037	1	-4
599.225	1	3
600.413	1	4
601.602	1	8
602.790	1	13
603.978	1	6
605.166	1	4
606.355	1	-15
607.543	1	7
608.731	1	-8
609.919	1	-3
611.107	1	12
612.295	1	4
613.483	1	-1
614.671	1	5
615.858	1	-5
617.046	1	2
618.234	1	-7
619.422	1	14
620.609	1	-4
621.797	1	4
622.985	1	0
624.172	1	-4
625.360	1	-2
626.547	1	-12
627.735	1	3
628.922	1	12
630.109	1	-6
631.297	1	5
632.484	1	6
633.671	1	4
634.858	1	11
636.045	1	0
637.232	1	2
638.419	1	-4
639.606	1	15
640.793	1	-1
641.980	1	9
643.167	1	5
644.354	1	14
645.541	1	-2
646.728	1	0
647.914	1	5
649.101	1	2
650.288	1	5
651.474	1	4
652.661	1	0
653.847	1	7
655.034	1	-5
656.220	1	-1
657.406	1	-12
658.593	1	4
659.779	1	16
660.965	1	-1
662.152	1	0
663.338	1	-11
664.524	1	14
665.710	1	2
666.896	1	11
668.082	1	6
669.268	1	-2
670.454	1	6
671.640	1	7
672.826	1	-2
674.011	1	9
675.197	1	11
676.383	1	-1
677.569	1	13
678.754	1	0
679.940	1	-2
681.125	1	1
682.311	1	2
683.496	1	-2
684.682	1	2
685.867	1	-7
687.053	1	16
688.238	1	2
688.746	1	-3