Folder: cryo-il_analysis/Analysis/GaN_68K_200ms (part 9)

File: GaN_sample E_spot4_UVVIS_68 K_200um_200 ms 2x2mm1_189.txt
340.368	1	6
341.565	1	-12
342.763	1	11
343.960	1	1
345.157	1	7
346.354	1	-1
347.552	1	11
348.749	1	8
349.946	1	14
351.143	1	-9
352.340	1	6
353.537	1	5
354.734	1	14
355.931	1	13
357.127	1	10
358.324	1	5
359.521	1	4
360.718	1	9
361.914	1	11
363.111	1	18
364.308	1	10
365.504	1	17
366.701	1	17
367.897	1	22
369.093	1	16
370.290	1	12
371.486	1	15
372.682	1	22
373.879	1	19
375.075	1	23
376.271	1	9
377.467	1	10
378.663	1	4
379.859	1	5
381.055	1	9
382.251	1	8
383.447	1	31
384.643	1	26
385.839	1	30
387.035	1	22
388.230	1	23
389.426	1	33
390.622	1	20
391.817	1	23
393.013	1	31
394.208	1	29
395.404	1	21
396.599	1	32
397.795	1	33
398.990	1	26
400.186	1	29
401.381	1	25
402.576	1	27
403.771	1	16
404.967	1	24
406.162	1	8
407.357	1	26
408.552	1	24
409.747	1	17
410.942	1	22
412.137	1	27
413.332	1	11
414.526	1	10
415.721	1	9
416.916	1	14
418.111	1	11
419.305	1	8
420.500	1	14
421.695	1	12
422.889	1	21
424.084	1	11
425.278	1	2
426.472	1	8
427.667	1	23
428.861	1	9
430.055	1	8
431.250	1	3
432.444	1	16
433.638	1	2
434.832	1	-7
436.026	1	7
437.220	1	16
438.414	1	8
439.608	1	9
440.802	1	12
441.996	1	4
443.190	1	-6
444.384	1	11
445.578	1	13
446.771	1	3
447.965	1	5
449.159	1	4
450.352	1	12
451.546	1	11
452.739	1	6
453.933	1	15
455.126	1	11
456.320	1	6
457.513	1	6
458.706	1	5
459.899	1	11
461.093	1	12
462.286	1	19
463.479	1	11
464.672	1	8
465.865	1	0
467.058	1	13
468.251	1	-1
469.444	1	3
470.637	1	15
471.830	1	21
473.023	1	2
474.215	1	5
475.408	1	2
476.601	1	11
477.793	1	12
478.986	1	4
480.179	1	10
481.371	1	8
482.564	1	-9
483.756	1	15
484.948	1	-1
486.141	1	-2
487.333	1	12
488.525	1	2
489.718	1	3
490.910	1	1
492.102	1	6
493.294	1	7
494.486	1	7
495.678	1	14
496.870	1	6
498.062	1	6
499.254	1	2
500.446	1	19
501.638	1	12
502.829	1	13
504.021	1	29
505.213	1	2
506.404	1	7
507.596	1	25
508.788	1	20
509.979	1	14
511.171	1	24
512.362	1	12
513.553	1	3
514.745	1	16
515.936	1	16
517.127	1	16
518.319	1	15
519.510	1	14
520.701	1	22
521.892	1	12
523.083	1	11
524.274	1	16
525.465	1	14
526.656	1	32
527.847	1	1
529.038	1	23
530.229	1	32
531.419	1	33
532.610	1	17
533.801	1	18
534.991	1	20
536.182	1	13
537.373	1	10
538.563	1	18
539.754	1	18
540.944	1	13
542.134	1	24
543.325	1	15
544.515	1	17
545.705	1	24
546.896	1	17
548.086	1	18
549.276	1	25
550.466	1	12
551.656	1	7
552.846	1	19
554.036	1	15
555.226	1	5
556.416	1	14
557.606	1	4
558.796	1	21
559.986	1	5
561.175	1	5
562.365	1	16
563.555	1	27
564.744	1	18
565.934	1	20
567.123	1	21
568.313	1	9
569.502	1	7
570.692	1	6
571.881	1	14
573.070	1	8
574.260	1	9
575.449	1	13
576.638	1	7
577.827	1	19
579.016	1	20
580.205	1	10
581.394	1	10
582.583	1	3
583.772	1	11
584.961	1	11
586.150	1	8
587.339	1	9
588.528	1	11
589.717	1	10
590.905	1	10
592.094	1	13
593.283	1	4
594.471	1	14
595.660	1	6
596.848	1	13
598.037	1	15
599.225	1	10
600.413	1	4
601.602	1	5
602.790	1	5
603.978	1	4
605.166	1	-6
606.355	1	6
607.543	1	1
608.731	1	-3
609.919	1	3
611.107	1	10
612.295	1	6
613.483	1	5
614.671	1	8
615.858	1	5
617.046	1	12
618.234	1	1
619.422	1	3
620.609	1	2
621.797	1	8
622.985	1	6
624.172	1	9
625.360	1	-3
626.547	1	5
627.735	1	7
628.922	1	10
630.109	1	11
631.297	1	-3
632.484	1	1
633.671	1	4
634.858	1	11
636.045	1	4
637.232	1	10
638.419	1	7
639.606	1	18
640.793	1	12
641.980	1	3
643.167	1	16
644.354	1	6
645.541	1	0
646.728	1	6
647.914	1	2
649.101	1	11
650.288	1	-1
651.474	1	13
652.661	1	7
653.847	1	4
655.034	1	-2
656.220	1	5
657.406	1	10
658.593	1	-2
659.779	1	-4
660.965	1	-3
662.152	1	2
663.338	1	3
664.524	1	-1
665.710	1	2
666.896	1	4
668.082	1	2
669.268	1	9
670.454	1	6
671.640	1	0
672.826	1	-14
674.011	1	11
675.197	1	-1
676.383	1	3
677.569	1	-9
678.754	1	-1
679.940	1	1
681.125	1	7
682.311	1	11
683.496	1	-8
684.682	1	11
685.867	1	3
687.053	1	2
688.238	1	3
688.746	1	11

File: GaN_sample E_spot4_UVVIS_68 K_200um_200 ms 2x2mm1_190.txt
340.368	1	-6
341.565	1	0
342.763	1	1
343.960	1	3
345.157	1	-1
346.354	1	-7
347.552	1	1
348.749	1	1
349.946	1	1
351.143	1	-8
352.340	1	9
353.537	1	-4
354.734	1	-1
355.931	1	2
357.127	1	13
358.324	1	3
359.521	1	16
360.718	1	7
361.914	1	8
363.111	1	24
364.308	1	17
365.504	1	11
366.701	1	19
367.897	1	21
369.093	1	23
370.290	1	18
371.486	1	27
372.682	1	13
373.879	1	23
375.075	1	15
376.271	1	13
377.467	1	6
378.663	1	1
379.859	1	7
381.055	1	7
382.251	1	13
383.447	1	24
384.643	1	28
385.839	1	27
387.035	1	36
388.230	1	31
389.426	1	31
390.622	1	19
391.817	1	26
393.013	1	36
394.208	1	27
395.404	1	22
396.599	1	34
397.795	1	24
398.990	1	28
400.186	1	32
401.381	1	18
402.576	1	28
403.771	1	23
404.967	1	21
406.162	1	16
407.357	1	8
408.552	1	23
409.747	1	15
410.942	1	14
412.137	1	29
413.332	1	15
414.526	1	21
415.721	1	14
416.916	1	3
418.111	1	20
419.305	1	15
420.500	1	7
421.695	1	24
422.889	1	19
424.084	1	9
425.278	1	5
426.472	1	4
427.667	1	17
428.861	1	4
430.055	1	8
431.250	1	5
432.444	1	16
433.638	1	20
434.832	1	3
436.026	1	15
437.220	1	16
438.414	1	16
439.608	1	8
440.802	1	16
441.996	1	10
443.190	1	-2
444.384	1	6
445.578	1	19
446.771	1	13
447.965	1	4
449.159	1	-3
450.352	1	8
451.546	1	-3
452.739	1	6
453.933	1	15
455.126	1	4
456.320	1	4
457.513	1	19
458.706	1	12
459.899	1	19
461.093	1	8
462.286	1	16
463.479	1	8
464.672	1	4
465.865	1	-4
467.058	1	12
468.251	1	4
469.444	1	4
470.637	1	22
471.830	1	30
473.023	1	-9
474.215	1	-3
475.408	1	9
476.601	1	10
477.793	1	13
478.986	1	-2
480.179	1	4
481.371	1	-3
482.564	1	0
483.756	1	16
484.948	1	1
486.141	1	-10
487.333	1	13
488.525	1	9
489.718	1	10
490.910	1	-2
492.102	1	3
493.294	1	13
494.486	1	12
495.678	1	14
496.870	1	7
498.062	1	3
499.254	1	7
500.446	1	26
501.638	1	12
502.829	1	12
504.021	1	26
505.213	1	6
506.404	1	8
507.596	1	15
508.788	1	6
509.979	1	10
511.171	1	22
512.362	1	18
513.553	1	9
514.745	1	13
515.936	1	11
517.127	1	17
518.319	1	12
519.510	1	16
520.701	1	24
521.892	1	13
523.083	1	14
524.274	1	9
525.465	1	16
526.656	1	31
527.847	1	19
529.038	1	32
530.229	1	28
531.419	1	29
532.610	1	20
533.801	1	22
534.991	1	22
536.182	1	19
537.373	1	10
538.563	1	19
539.754	1	13
540.944	1	13
542.134	1	16
543.325	1	13
544.515	1	8
545.705	1	20
546.896	1	16
548.086	1	25
549.276	1	18
550.466	1	15
551.656	1	9
552.846	1	21
554.036	1	19
555.226	1	7
556.416	1	18
557.606	1	7
558.796	1	10
559.986	1	11
561.175	1	8
562.365	1	9
563.555	1	14
564.744	1	15
565.934	1	14
567.123	1	29
568.313	1	14
569.502	1	7
570.692	1	12
571.881	1	11
573.070	1	28
574.260	1	9
575.449	1	9
576.638	1	11
577.827	1	22
579.016	1	21
580.205	1	11
581.394	1	8
582.583	1	9
583.772	1	16
584.961	1	18
586.150	1	4
587.339	1	8
588.528	1	7
589.717	1	14
590.905	1	11
592.094	1	18
593.283	1	11
594.471	1	9
595.660	1	-1
596.848	1	16
598.037	1	6
599.225	1	7
600.413	1	7
601.602	1	16
602.790	1	10
603.978	1	4
605.166	1	2
606.355	1	13
607.543	1	-6
608.731	1	-5
609.919	1	-5
611.107	1	16
612.295	1	15
613.483	1	4
614.671	1	7
615.858	1	12
617.046	1	6
618.234	1	4
619.422	1	11
620.609	1	4
621.797	1	4
622.985	1	7
624.172	1	15
625.360	1	3
626.547	1	5
627.735	1	9
628.922	1	0
630.109	1	2
631.297	1	0
632.484	1	-3
633.671	1	8
634.858	1	12
636.045	1	4
637.232	1	-2
638.419	1	10
639.606	1	21
640.793	1	6
641.980	1	6
643.167	1	15
644.354	1	6
645.541	1	-7
646.728	1	6
647.914	1	3
649.101	1	9
650.288	1	2
651.474	1	9
652.661	1	11
653.847	1	3
655.034	1	5
656.220	1	11
657.406	1	13
658.593	1	5
659.779	1	2
660.965	1	-3
662.152	1	8
663.338	1	-1
664.524	1	3
665.710	1	0
666.896	1	-3
668.082	1	-2
669.268	1	5
670.454	1	6
671.640	1	-8
672.826	1	-8
674.011	1	6
675.197	1	-3
676.383	1	0
677.569	1	-5
678.754	1	-8
679.940	1	5
681.125	1	10
682.311	1	2
683.496	1	-6
684.682	1	9
685.867	1	-1
687.053	1	5
688.238	1	1
688.746	1	8

File: GaN_sample E_spot4_UVVIS_68 K_200um_200 ms 2x2mm1_191.txt
340.368	1	2
341.565	1	-1
342.763	1	1
343.960	1	3
345.157	1	9
346.354	1	0
347.552	1	2
348.749	1	11
349.946	1	10
351.143	1	-8
352.340	1	7
353.537	1	-2
354.734	1	4
355.931	1	14
357.127	1	7
358.324	1	5
359.521	1	2
360.718	1	15
361.914	1	12
363.111	1	12
364.308	1	13
365.504	1	10
366.701	1	9
367.897	1	24
369.093	1	18
370.290	1	17
371.486	1	30
372.682	1	0
373.879	1	20
375.075	1	17
376.271	1	13
377.467	1	10
378.663	1	6
379.859	1	8
381.055	1	16
382.251	1	23
383.447	1	21
384.643	1	32
385.839	1	23
387.035	1	25
388.230	1	29
389.426	1	32
390.622	1	27
391.817	1	21
393.013	1	37
394.208	1	21
395.404	1	20
396.599	1	21
397.795	1	27
398.990	1	27
400.186	1	32
401.381	1	27
402.576	1	25
403.771	1	21
404.967	1	9
406.162	1	14
407.357	1	19
408.552	1	25
409.747	1	18
410.942	1	25
412.137	1	13
413.332	1	22
414.526	1	17
415.721	1	13
416.916	1	11
418.111	1	15
419.305	1	24
420.500	1	16
421.695	1	10
422.889	1	14
424.084	1	11
425.278	1	7
426.472	1	9
427.667	1	19
428.861	1	9
430.055	1	10
431.250	1	-4
432.444	1	5
433.638	1	6
434.832	1	-3
436.026	1	7
437.220	1	21
438.414	1	14
439.608	1	11
440.802	1	10
441.996	1	4
443.190	1	-6
444.384	1	16
445.578	1	18
446.771	1	9
447.965	1	-1
449.159	1	0
450.352	1	18
451.546	1	12
452.739	1	5
453.933	1	16
455.126	1	8
456.320	1	5
457.513	1	11
458.706	1	16
459.899	1	8
461.093	1	17
462.286	1	11
463.479	1	10
464.672	1	2
465.865	1	-5
467.058	1	19
468.251	1	0
469.444	1	3
470.637	1	15
471.830	1	18
473.023	1	0
474.215	1	1
475.408	1	-2
476.601	1	8
477.793	1	5
478.986	1	-3
480.179	1	8
481.371	1	6
482.564	1	3
483.756	1	14
484.948	1	0
486.141	1	2
487.333	1	10
488.525	1	1
489.718	1	1
490.910	1	3
492.102	1	3
493.294	1	14
494.486	1	6
495.678	1	12
496.870	1	10
498.062	1	5
499.254	1	5
500.446	1	12
501.638	1	13
502.829	1	12
504.021	1	29
505.213	1	6
506.404	1	4
507.596	1	21
508.788	1	8
509.979	1	8
511.171	1	31
512.362	1	15
513.553	1	3
514.745	1	0
515.936	1	17
517.127	1	16
518.319	1	19
519.510	1	10
520.701	1	13
521.892	1	13
523.083	1	10
524.274	1	13
525.465	1	16
526.656	1	32
527.847	1	15
529.038	1	23
530.229	1	26
531.419	1	33
532.610	1	22
533.801	1	29
534.991	1	22
536.182	1	19
537.373	1	19
538.563	1	26
539.754	1	17
540.944	1	14
542.134	1	18
543.325	1	22
544.515	1	9
545.705	1	25
546.896	1	19
548.086	1	21
549.276	1	24
550.466	1	7
551.656	1	12
552.846	1	12
554.036	1	17
555.226	1	11
556.416	1	12
557.606	1	3
558.796	1	10
559.986	1	8
561.175	1	12
562.365	1	10
563.555	1	5
564.744	1	11
565.934	1	12
567.123	1	27
568.313	1	5
569.502	1	15
570.692	1	14
571.881	1	14
573.070	1	11
574.260	1	7
575.449	1	10
576.638	1	12
577.827	1	15
579.016	1	13
580.205	1	12
581.394	1	-2
582.583	1	5
583.772	1	11
584.961	1	24
586.150	1	12
587.339	1	7
588.528	1	12
589.717	1	7
590.905	1	12
592.094	1	6
593.283	1	7
594.471	1	14
595.660	1	8
596.848	1	14
598.037	1	10
599.225	1	11
600.413	1	7
601.602	1	18
602.790	1	2
603.978	1	2
605.166	1	-3
606.355	1	15
607.543	1	-2
608.731	1	0
609.919	1	4
611.107	1	5
612.295	1	8
613.483	1	11
614.671	1	8
615.858	1	17
617.046	1	12
618.234	1	1
619.422	1	5
620.609	1	4
621.797	1	8
622.985	1	8
624.172	1	9
625.360	1	-4
626.547	1	1
627.735	1	7
628.922	1	0
630.109	1	-1
631.297	1	13
632.484	1	7
633.671	1	0
634.858	1	11
636.045	1	2
637.232	1	10
638.419	1	16
639.606	1	16
640.793	1	14
641.980	1	10
643.167	1	10
644.354	1	-5
645.541	1	2
646.728	1	9
647.914	1	-2
649.101	1	2
650.288	1	0
651.474	1	5
652.661	1	2
653.847	1	3
655.034	1	8
656.220	1	17
657.406	1	9
658.593	1	0
659.779	1	-2
660.965	1	5
662.152	1	10
663.338	1	1
664.524	1	-9
665.710	1	-3
666.896	1	0
668.082	1	0
669.268	1	1
670.454	1	7
671.640	1	-5
672.826	1	-10
674.011	1	1
675.197	1	2
676.383	1	6
677.569	1	-10
678.754	1	-5
679.940	1	8
681.125	1	10
682.311	1	4
683.496	1	5
684.682	1	14
685.867	1	3
687.053	1	8
688.238	1	8
688.746	1	11

File: GaN_sample E_spot4_UVVIS_68 K_200um_200 ms 2x2mm1_192.txt
340.368	1	0
341.565	1	-9
342.763	1	2
343.960	1	-3
345.157	1	12
346.354	1	6
347.552	1	3
348.749	1	10
349.946	1	3
351.143	1	-2
352.340	1	4
353.537	1	3
354.734	1	6
355.931	1	10
357.127	1	-5
358.324	1	2
359.521	1	0
360.718	1	2
361.914	1	10
363.111	1	25
364.308	1	22
365.504	1	9
366.701	1	17
367.897	1	16
369.093	1	21
370.290	1	16
371.486	1	26
372.682	1	10
373.879	1	24
375.075	1	22
376.271	1	15
377.467	1	8
378.663	1	4
379.859	1	2
381.055	1	16
382.251	1	14
383.447	1	24
384.643	1	25
385.839	1	29
387.035	1	31
388.230	1	21
389.426	1	38
390.622	1	25
391.817	1	22
393.013	1	31
394.208	1	30
395.404	1	14
396.599	1	27
397.795	1	37
398.990	1	27
400.186	1	26
401.381	1	18
402.576	1	23
403.771	1	19
404.967	1	17
406.162	1	19
407.357	1	14
408.552	1	22
409.747	1	9
410.942	1	14
412.137	1	28
413.332	1	11
414.526	1	12
415.721	1	14
416.916	1	11
418.111	1	9
419.305	1	15
420.500	1	5
421.695	1	15
422.889	1	15
424.084	1	19
425.278	1	3
426.472	1	17
427.667	1	17
428.861	1	6
430.055	1	24
431.250	1	3
432.444	1	16
433.638	1	9
434.832	1	6
436.026	1	12
437.220	1	16
438.414	1	12
439.608	1	7
440.802	1	11
441.996	1	16
443.190	1	2
444.384	1	9
445.578	1	16
446.771	1	8
447.965	1	1
449.159	1	8
450.352	1	21
451.546	1	10
452.739	1	6
453.933	1	9
455.126	1	11
456.320	1	2
457.513	1	11
458.706	1	1
459.899	1	21
461.093	1	9
462.286	1	19
463.479	1	14
464.672	1	7
465.865	1	1
467.058	1	13
468.251	1	9
469.444	1	0
470.637	1	14
471.830	1	21
473.023	1	3
474.215	1	-3
475.408	1	12
476.601	1	4
477.793	1	10
478.986	1	11
480.179	1	5
481.371	1	8
482.564	1	-7
483.756	1	17
484.948	1	6
486.141	1	-1
487.333	1	12
488.525	1	0
489.718	1	5
490.910	1	0
492.102	1	0
493.294	1	13
494.486	1	13
495.678	1	20
496.870	1	7
498.062	1	9
499.254	1	7
500.446	1	14
501.638	1	9
502.829	1	14
504.021	1	20
505.213	1	17
506.404	1	6
507.596	1	19
508.788	1	13
509.979	1	8
511.171	1	17
512.362	1	15
513.553	1	8
514.745	1	19
515.936	1	18
517.127	1	13
518.319	1	8
519.510	1	12
520.701	1	8
521.892	1	11
523.083	1	12
524.274	1	11
525.465	1	16
526.656	1	30
527.847	1	13
529.038	1	29
530.229	1	19
531.419	1	20
532.610	1	23
533.801	1	20
534.991	1	21
536.182	1	20
537.373	1	4
538.563	1	23
539.754	1	11
540.944	1	17
542.134	1	23
543.325	1	9
544.515	1	14
545.705	1	18
546.896	1	9
548.086	1	23
549.276	1	20
550.466	1	6
551.656	1	2
552.846	1	12
554.036	1	24
555.226	1	7
556.416	1	18
557.606	1	1
558.796	1	4
559.986	1	10
561.175	1	6
562.365	1	13
563.555	1	18
564.744	1	14
565.934	1	10
567.123	1	21
568.313	1	2
569.502	1	9
570.692	1	11
571.881	1	11
573.070	1	15
574.260	1	8
575.449	1	9
576.638	1	10
577.827	1	15
579.016	1	24
580.205	1	10
581.394	1	5
582.583	1	-3
583.772	1	13
584.961	1	17
586.150	1	4
587.339	1	13
588.528	1	18
589.717	1	0
590.905	1	12
592.094	1	8
593.283	1	24
594.471	1	3
595.660	1	2
596.848	1	11
598.037	1	6
599.225	1	11
600.413	1	7
601.602	1	10
602.790	1	1
603.978	1	8
605.166	1	4
606.355	1	12
607.543	1	1
608.731	1	-8
609.919	1	5
611.107	1	16
612.295	1	14
613.483	1	14
614.671	1	2
615.858	1	9
617.046	1	8
618.234	1	-2
619.422	1	6
620.609	1	4
621.797	1	7
622.985	1	9
624.172	1	5
625.360	1	-2
626.547	1	14
627.735	1	2
628.922	1	11
630.109	1	5
631.297	1	5
632.484	1	-1
633.671	1	10
634.858	1	7
636.045	1	5
637.232	1	4
638.419	1	0
639.606	1	17
640.793	1	8
641.980	1	-9
643.167	1	21
644.354	1	8
645.541	1	-9
646.728	1	5
647.914	1	5
649.101	1	8
650.288	1	0
651.474	1	11
652.661	1	2
653.847	1	14
655.034	1	3
656.220	1	4
657.406	1	1
658.593	1	-4
659.779	1	-3
660.965	1	3
662.152	1	3
663.338	1	1
664.524	1	-4
665.710	1	12
666.896	1	-3
668.082	1	4
669.268	1	-1
670.454	1	-2
671.640	1	-8
672.826	1	-13
674.011	1	3
675.197	1	3
676.383	1	7
677.569	1	2
678.754	1	-2
679.940	1	3
681.125	1	3
682.311	1	6
683.496	1	3
684.682	1	9
685.867	1	0
687.053	1	-1
688.238	1	9
688.746	1	13

File: GaN_sample E_spot4_UVVIS_68 K_200um_200 ms 2x2mm1_193.txt
340.368	1	2
341.565	1	-13
342.763	1	7
343.960	1	2
345.157	1	15
346.354	1	6
347.552	1	5
348.749	1	4
349.946	1	13
351.143	1	-5
352.340	1	-5
353.537	1	12
354.734	1	-6
355.931	1	4
357.127	1	7
358.324	1	8
359.521	1	11
360.718	1	2
361.914	1	10
363.111	1	16
364.308	1	11
365.504	1	14
366.701	1	22
367.897	1	23
369.093	1	23
370.290	1	14
371.486	1	22
372.682	1	7
373.879	1	17
375.075	1	20
376.271	1	2
377.467	1	1
378.663	1	10
379.859	1	-5
381.055	1	12
382.251	1	9
383.447	1	14
384.643	1	19
385.839	1	31
387.035	1	38
388.230	1	22
389.426	1	27
390.622	1	15
391.817	1	22
393.013	1	24
394.208	1	29
395.404	1	31
396.599	1	27
397.795	1	26
398.990	1	24
400.186	1	23
401.381	1	23
402.576	1	24
403.771	1	25
404.967	1	18
406.162	1	15
407.357	1	14
408.552	1	28
409.747	1	15
410.942	1	7
412.137	1	22
413.332	1	12
414.526	1	8
415.721	1	16
416.916	1	12
418.111	1	11
419.305	1	14
420.500	1	10
421.695	1	13
422.889	1	15
424.084	1	14
425.278	1	7
426.472	1	11
427.667	1	14
428.861	1	16
430.055	1	11
431.250	1	-3
432.444	1	16
433.638	1	-1
434.832	1	8
436.026	1	15
437.220	1	6
438.414	1	18
439.608	1	4
440.802	1	6
441.996	1	7
443.190	1	-5
444.384	1	5
445.578	1	12
446.771	1	-3
447.965	1	-1
449.159	1	-2
450.352	1	15
451.546	1	8
452.739	1	3
453.933	1	15
455.126	1	7
456.320	1	7
457.513	1	9
458.706	1	4
459.899	1	16
461.093	1	16
462.286	1	8
463.479	1	16
464.672	1	7
465.865	1	-1
467.058	1	12
468.251	1	5
469.444	1	2
470.637	1	17
471.830	1	14
473.023	1	6
474.215	1	3
475.408	1	0
476.601	1	5
477.793	1	8
478.986	1	7
480.179	1	0
481.371	1	8
482.564	1	-2
483.756	1	12
484.948	1	-7
486.141	1	-9
487.333	1	6
488.525	1	7
489.718	1	1
490.910	1	4
492.102	1	5
493.294	1	16
494.486	1	6
495.678	1	15
496.870	1	6
498.062	1	0
499.254	1	6
500.446	1	9
501.638	1	14
502.829	1	12
504.021	1	30
505.213	1	12
506.404	1	6
507.596	1	20
508.788	1	10
509.979	1	13
511.171	1	12
512.362	1	9
513.553	1	7
514.745	1	15
515.936	1	15
517.127	1	18
518.319	1	10
519.510	1	16
520.701	1	21
521.892	1	13
523.083	1	14
524.274	1	7
525.465	1	24
526.656	1	27
527.847	1	11
529.038	1	24
530.229	1	24
531.419	1	28
532.610	1	19
533.801	1	16
534.991	1	22
536.182	1	15
537.373	1	14
538.563	1	24
539.754	1	9
540.944	1	10
542.134	1	21
543.325	1	13
544.515	1	12
545.705	1	28
546.896	1	20
548.086	1	12
549.276	1	17
550.466	1	20
551.656	1	14
552.846	1	9
554.036	1	18
555.226	1	-1
556.416	1	18
557.606	1	3
558.796	1	10
559.986	1	5
561.175	1	14
562.365	1	20
563.555	1	19
564.744	1	16
565.934	1	12
567.123	1	26
568.313	1	10
569.502	1	15
570.692	1	10
571.881	1	14
573.070	1	7
574.260	1	11
575.449	1	14
576.638	1	10
577.827	1	10
579.016	1	24
580.205	1	10
581.394	1	6
582.583	1	4
583.772	1	4
584.961	1	12
586.150	1	12
587.339	1	10
588.528	1	13
589.717	1	7
590.905	1	10
592.094	1	8
593.283	1	14
594.471	1	0
595.660	1	8
596.848	1	12
598.037	1	9
599.225	1	8
600.413	1	4
601.602	1	20
602.790	1	9
603.978	1	6
605.166	1	9
606.355	1	15
607.543	1	-7
608.731	1	-4
609.919	1	-4
611.107	1	14
612.295	1	12
613.483	1	5
614.671	1	6
615.858	1	16
617.046	1	3
618.234	1	9
619.422	1	-3
620.609	1	1
621.797	1	2
622.985	1	6
624.172	1	12
625.360	1	0
626.547	1	14
627.735	1	10
628.922	1	1
630.109	1	-1
631.297	1	5
632.484	1	-3
633.671	1	5
634.858	1	13
636.045	1	0
637.232	1	7
638.419	1	16
639.606	1	10
640.793	1	12
641.980	1	-5
643.167	1	15
644.354	1	9
645.541	1	-6
646.728	1	11
647.914	1	-4
649.101	1	7
650.288	1	11
651.474	1	13
652.661	1	7
653.847	1	5
655.034	1	2
656.220	1	-1
657.406	1	7
658.593	1	-2
659.779	1	-17
660.965	1	9
662.152	1	6
663.338	1	-2
664.524	1	-8
665.710	1	1
666.896	1	3
668.082	1	1
669.268	1	4
670.454	1	15
671.640	1	-7
672.826	1	-3
674.011	1	1
675.197	1	3
676.383	1	2
677.569	1	-10
678.754	1	2
679.940	1	2
681.125	1	2
682.311	1	4
683.496	1	0
684.682	1	4
685.867	1	8
687.053	1	7
688.238	1	5
688.746	1	7

File: GaN_sample E_spot4_UVVIS_68 K_200um_200 ms 2x2mm1_195.txt
340.368	1	4
341.565	1	-5
342.763	1	1
343.960	1	-3
345.157	1	1
346.354	1	4
347.552	1	7
348.749	1	5
349.946	1	13
351.143	1	0
352.340	1	3
353.537	1	11
354.734	1	1
355.931	1	0
357.127	1	11
358.324	1	12
359.521	1	1
360.718	1	2
361.914	1	7
363.111	1	25
364.308	1	11
365.504	1	21
366.701	1	18
367.897	1	23
369.093	1	30
370.290	1	23
371.486	1	27
372.682	1	10
373.879	1	20
375.075	1	25
376.271	1	4
377.467	1	9
378.663	1	5
379.859	1	-1
381.055	1	10
382.251	1	17
383.447	1	27
384.643	1	25
385.839	1	31
387.035	1	25
388.230	1	28
389.426	1	39
390.622	1	16
391.817	1	29
393.013	1	33
394.208	1	37
395.404	1	25
396.599	1	27
397.795	1	26
398.990	1	38
400.186	1	31
401.381	1	20
402.576	1	32
403.771	1	23
404.967	1	22
406.162	1	14
407.357	1	20
408.552	1	25
409.747	1	16
410.942	1	13
412.137	1	23
413.332	1	13
414.526	1	18
415.721	1	13
416.916	1	17
418.111	1	18
419.305	1	7
420.500	1	11
421.695	1	14
422.889	1	20
424.084	1	13
425.278	1	9
426.472	1	8
427.667	1	17
428.861	1	14
430.055	1	14
431.250	1	1
432.444	1	8
433.638	1	11
434.832	1	14
436.026	1	17
437.220	1	13
438.414	1	15
439.608	1	6
440.802	1	15
441.996	1	0
443.190	1	-2
444.384	1	8
445.578	1	21
446.771	1	11
447.965	1	4
449.159	1	9
450.352	1	15
451.546	1	4
452.739	1	2
453.933	1	14
455.126	1	16
456.320	1	8
457.513	1	20
458.706	1	11
459.899	1	10
461.093	1	15
462.286	1	16
463.479	1	16
464.672	1	4
465.865	1	-2
467.058	1	13
468.251	1	4
469.444	1	-1
470.637	1	11
471.830	1	12
473.023	1	-1
474.215	1	3
475.408	1	10
476.601	1	2
477.793	1	7
478.986	1	-4
480.179	1	8
481.371	1	13
482.564	1	-4
483.756	1	7
484.948	1	2
486.141	1	-4
487.333	1	4
488.525	1	7
489.718	1	6
490.910	1	6
492.102	1	-4
493.294	1	7
494.486	1	7
495.678	1	17
496.870	1	11
498.062	1	9
499.254	1	14
500.446	1	19
501.638	1	6
502.829	1	6
504.021	1	33
505.213	1	9
506.404	1	7
507.596	1	18
508.788	1	15
509.979	1	14
511.171	1	14
512.362	1	15
513.553	1	13
514.745	1	9
515.936	1	29
517.127	1	19
518.319	1	9
519.510	1	20
520.701	1	16
521.892	1	13
523.083	1	11
524.274	1	14
525.465	1	20
526.656	1	36
527.847	1	12
529.038	1	23
530.229	1	25
531.419	1	27
532.610	1	27
533.801	1	17
534.991	1	22
536.182	1	26
537.373	1	14
538.563	1	22
539.754	1	16
540.944	1	15
542.134	1	20
543.325	1	17
544.515	1	14
545.705	1	20
546.896	1	10
548.086	1	21
549.276	1	29
550.466	1	0
551.656	1	8
552.846	1	19
554.036	1	21
555.226	1	9
556.416	1	15
557.606	1	-3
558.796	1	5
559.986	1	1
561.175	1	-1
562.365	1	16
563.555	1	12
564.744	1	18
565.934	1	23
567.123	1	27
568.313	1	8
569.502	1	19
570.692	1	11
571.881	1	18
573.070	1	24
574.260	1	13
575.449	1	10
576.638	1	9
577.827	1	13
579.016	1	16
580.205	1	7
581.394	1	5
582.583	1	11
583.772	1	11
584.961	1	10
586.150	1	-3
587.339	1	9
588.528	1	16
589.717	1	9
590.905	1	12
592.094	1	4
593.283	1	11
594.471	1	9
595.660	1	8
596.848	1	17
598.037	1	13
599.225	1	4
600.413	1	11
601.602	1	16
602.790	1	3
603.978	1	5
605.166	1	4
606.355	1	10
607.543	1	-4
608.731	1	-2
609.919	1	0
611.107	1	9
612.295	1	11
613.483	1	9
614.671	1	7
615.858	1	-1
617.046	1	0
618.234	1	8
619.422	1	4
620.609	1	10
621.797	1	3
622.985	1	14
624.172	1	7
625.360	1	0
626.547	1	6
627.735	1	11
628.922	1	6
630.109	1	3
631.297	1	11
632.484	1	-1
633.671	1	5
634.858	1	13
636.045	1	9
637.232	1	4
638.419	1	7
639.606	1	13
640.793	1	3
641.980	1	5
643.167	1	11
644.354	1	-5
645.541	1	-4
646.728	1	8
647.914	1	-3
649.101	1	5
650.288	1	-3
651.474	1	1
652.661	1	2
653.847	1	-5
655.034	1	4
656.220	1	11
657.406	1	19
658.593	1	-5
659.779	1	4
660.965	1	1
662.152	1	3
663.338	1	-8
664.524	1	-10
665.710	1	10
666.896	1	-7
668.082	1	4
669.268	1	2
670.454	1	10
671.640	1	-3
672.826	1	-10
674.011	1	14
675.197	1	-7
676.383	1	3
677.569	1	-6
678.754	1	8
679.940	1	5
681.125	1	17
682.311	1	2
683.496	1	-2
684.682	1	3
685.867	1	5
687.053	1	9
688.238	1	6
688.746	1	10