Folder: cryo-il_analysis/Analysis/GaN_68K_200ms (part 13)

File: GaN_sample E_spot4_UVVIS_68 K_200um_200 ms 2x2mm1_243.txt
340.368	1	-2
341.565	1	-4
342.763	1	-6
343.960	1	-12
345.157	1	4
346.354	1	3
347.552	1	0
348.749	1	5
349.946	1	11
351.143	1	-8
352.340	1	3
353.537	1	3
354.734	1	1
355.931	1	12
357.127	1	6
358.324	1	3
359.521	1	-2
360.718	1	2
361.914	1	3
363.111	1	20
364.308	1	2
365.504	1	9
366.701	1	6
367.897	1	17
369.093	1	7
370.290	1	13
371.486	1	13
372.682	1	15
373.879	1	15
375.075	1	7
376.271	1	4
377.467	1	1
378.663	1	10
379.859	1	3
381.055	1	10
382.251	1	12
383.447	1	16
384.643	1	17
385.839	1	24
387.035	1	24
388.230	1	12
389.426	1	24
390.622	1	7
391.817	1	19
393.013	1	20
394.208	1	15
395.404	1	19
396.599	1	11
397.795	1	18
398.990	1	13
400.186	1	16
401.381	1	25
402.576	1	14
403.771	1	9
404.967	1	6
406.162	1	6
407.357	1	19
408.552	1	10
409.747	1	9
410.942	1	10
412.137	1	19
413.332	1	8
414.526	1	7
415.721	1	4
416.916	1	2
418.111	1	5
419.305	1	15
420.500	1	12
421.695	1	8
422.889	1	6
424.084	1	3
425.278	1	-4
426.472	1	-4
427.667	1	20
428.861	1	7
430.055	1	7
431.250	1	5
432.444	1	7
433.638	1	3
434.832	1	5
436.026	1	9
437.220	1	17
438.414	1	2
439.608	1	4
440.802	1	5
441.996	1	8
443.190	1	-1
444.384	1	11
445.578	1	7
446.771	1	4
447.965	1	1
449.159	1	6
450.352	1	9
451.546	1	12
452.739	1	6
453.933	1	15
455.126	1	-3
456.320	1	8
457.513	1	8
458.706	1	8
459.899	1	11
461.093	1	14
462.286	1	9
463.479	1	14
464.672	1	7
465.865	1	0
467.058	1	19
468.251	1	-4
469.444	1	2
470.637	1	14
471.830	1	14
473.023	1	4
474.215	1	-7
475.408	1	11
476.601	1	0
477.793	1	10
478.986	1	1
480.179	1	3
481.371	1	9
482.564	1	-7
483.756	1	8
484.948	1	-10
486.141	1	1
487.333	1	12
488.525	1	3
489.718	1	-8
490.910	1	8
492.102	1	-1
493.294	1	14
494.486	1	5
495.678	1	16
496.870	1	3
498.062	1	6
499.254	1	8
500.446	1	10
501.638	1	7
502.829	1	10
504.021	1	24
505.213	1	11
506.404	1	2
507.596	1	4
508.788	1	8
509.979	1	5
511.171	1	18
512.362	1	10
513.553	1	0
514.745	1	10
515.936	1	11
517.127	1	13
518.319	1	10
519.510	1	13
520.701	1	9
521.892	1	-3
523.083	1	14
524.274	1	3
525.465	1	6
526.656	1	27
527.847	1	4
529.038	1	12
530.229	1	9
531.419	1	13
532.610	1	14
533.801	1	12
534.991	1	13
536.182	1	10
537.373	1	8
538.563	1	12
539.754	1	7
540.944	1	7
542.134	1	15
543.325	1	3
544.515	1	4
545.705	1	14
546.896	1	5
548.086	1	8
549.276	1	14
550.466	1	4
551.656	1	3
552.846	1	16
554.036	1	14
555.226	1	0
556.416	1	0
557.606	1	7
558.796	1	8
559.986	1	5
561.175	1	14
562.365	1	14
563.555	1	20
564.744	1	4
565.934	1	11
567.123	1	14
568.313	1	4
569.502	1	7
570.692	1	13
571.881	1	6
573.070	1	19
574.260	1	3
575.449	1	2
576.638	1	9
577.827	1	7
579.016	1	14
580.205	1	2
581.394	1	-5
582.583	1	-5
583.772	1	10
584.961	1	6
586.150	1	7
587.339	1	10
588.528	1	8
589.717	1	3
590.905	1	4
592.094	1	3
593.283	1	4
594.471	1	2
595.660	1	-1
596.848	1	10
598.037	1	-3
599.225	1	3
600.413	1	3
601.602	1	9
602.790	1	6
603.978	1	11
605.166	1	1
606.355	1	14
607.543	1	-1
608.731	1	-1
609.919	1	-6
611.107	1	15
612.295	1	10
613.483	1	6
614.671	1	8
615.858	1	10
617.046	1	8
618.234	1	-3
619.422	1	1
620.609	1	9
621.797	1	14
622.985	1	3
624.172	1	15
625.360	1	0
626.547	1	5
627.735	1	11
628.922	1	-1
630.109	1	-1
631.297	1	-2
632.484	1	1
633.671	1	11
634.858	1	9
636.045	1	6
637.232	1	2
638.419	1	7
639.606	1	15
640.793	1	9
641.980	1	2
643.167	1	14
644.354	1	1
645.541	1	-4
646.728	1	5
647.914	1	6
649.101	1	8
650.288	1	-3
651.474	1	2
652.661	1	6
653.847	1	-1
655.034	1	3
656.220	1	8
657.406	1	12
658.593	1	0
659.779	1	4
660.965	1	3
662.152	1	-1
663.338	1	0
664.524	1	-11
665.710	1	-2
666.896	1	-3
668.082	1	3
669.268	1	8
670.454	1	5
671.640	1	-11
672.826	1	-11
674.011	1	14
675.197	1	-2
676.383	1	0
677.569	1	-10
678.754	1	-2
679.940	1	-1
681.125	1	3
682.311	1	0
683.496	1	-5
684.682	1	5
685.867	1	11
687.053	1	7
688.238	1	-3
688.746	1	6

File: GaN_sample E_spot4_UVVIS_68 K_200um_200 ms 2x2mm1_251.txt
340.368	1	0
341.565	1	0
342.763	1	1
343.960	1	-3
345.157	1	7
346.354	1	0
347.552	1	14
348.749	1	9
349.946	1	0
351.143	1	-6
352.340	1	-5
353.537	1	6
354.734	1	-6
355.931	1	9
357.127	1	2
358.324	1	4
359.521	1	-2
360.718	1	10
361.914	1	1
363.111	1	12
364.308	1	-1
365.504	1	8
366.701	1	11
367.897	1	18
369.093	1	11
370.290	1	2
371.486	1	10
372.682	1	0
373.879	1	14
375.075	1	13
376.271	1	10
377.467	1	3
378.663	1	1
379.859	1	-2
381.055	1	3
382.251	1	4
383.447	1	19
384.643	1	11
385.839	1	13
387.035	1	23
388.230	1	15
389.426	1	20
390.622	1	14
391.817	1	10
393.013	1	20
394.208	1	20
395.404	1	20
396.599	1	25
397.795	1	14
398.990	1	24
400.186	1	20
401.381	1	15
402.576	1	22
403.771	1	15
404.967	1	9
406.162	1	6
407.357	1	7
408.552	1	11
409.747	1	-1
410.942	1	19
412.137	1	12
413.332	1	1
414.526	1	7
415.721	1	6
416.916	1	-2
418.111	1	8
419.305	1	12
420.500	1	4
421.695	1	12
422.889	1	7
424.084	1	10
425.278	1	1
426.472	1	3
427.667	1	9
428.861	1	7
430.055	1	13
431.250	1	-9
432.444	1	11
433.638	1	4
434.832	1	-6
436.026	1	15
437.220	1	13
438.414	1	2
439.608	1	12
440.802	1	9
441.996	1	5
443.190	1	2
444.384	1	10
445.578	1	5
446.771	1	3
447.965	1	-3
449.159	1	2
450.352	1	7
451.546	1	7
452.739	1	8
453.933	1	2
455.126	1	6
456.320	1	11
457.513	1	10
458.706	1	9
459.899	1	17
461.093	1	9
462.286	1	7
463.479	1	15
464.672	1	0
465.865	1	0
467.058	1	13
468.251	1	-6
469.444	1	3
470.637	1	13
471.830	1	13
473.023	1	-12
474.215	1	-4
475.408	1	5
476.601	1	2
477.793	1	10
478.986	1	-5
480.179	1	15
481.371	1	10
482.564	1	-4
483.756	1	11
484.948	1	-7
486.141	1	-2
487.333	1	3
488.525	1	1
489.718	1	-3
490.910	1	3
492.102	1	5
493.294	1	9
494.486	1	5
495.678	1	12
496.870	1	2
498.062	1	6
499.254	1	2
500.446	1	11
501.638	1	8
502.829	1	-3
504.021	1	27
505.213	1	14
506.404	1	10
507.596	1	7
508.788	1	11
509.979	1	12
511.171	1	25
512.362	1	15
513.553	1	2
514.745	1	1
515.936	1	4
517.127	1	15
518.319	1	1
519.510	1	-6
520.701	1	14
521.892	1	-6
523.083	1	9
524.274	1	4
525.465	1	9
526.656	1	25
527.847	1	4
529.038	1	9
530.229	1	19
531.419	1	13
532.610	1	14
533.801	1	13
534.991	1	1
536.182	1	13
537.373	1	8
538.563	1	4
539.754	1	13
540.944	1	6
542.134	1	10
543.325	1	2
544.515	1	15
545.705	1	14
546.896	1	6
548.086	1	3
549.276	1	10
550.466	1	4
551.656	1	3
552.846	1	-1
554.036	1	13
555.226	1	1
556.416	1	10
557.606	1	-6
558.796	1	8
559.986	1	1
561.175	1	4
562.365	1	10
563.555	1	17
564.744	1	11
565.934	1	10
567.123	1	20
568.313	1	2
569.502	1	5
570.692	1	11
571.881	1	12
573.070	1	9
574.260	1	4
575.449	1	8
576.638	1	7
577.827	1	2
579.016	1	8
580.205	1	14
581.394	1	6
582.583	1	0
583.772	1	2
584.961	1	8
586.150	1	3
587.339	1	18
588.528	1	7
589.717	1	-4
590.905	1	4
592.094	1	0
593.283	1	7
594.471	1	13
595.660	1	0
596.848	1	17
598.037	1	3
599.225	1	5
600.413	1	4
601.602	1	10
602.790	1	5
603.978	1	-5
605.166	1	-4
606.355	1	13
607.543	1	-2
608.731	1	-3
609.919	1	2
611.107	1	8
612.295	1	-1
613.483	1	4
614.671	1	1
615.858	1	9
617.046	1	4
618.234	1	5
619.422	1	3
620.609	1	5
621.797	1	2
622.985	1	5
624.172	1	16
625.360	1	4
626.547	1	2
627.735	1	6
628.922	1	-5
630.109	1	8
631.297	1	-4
632.484	1	-1
633.671	1	13
634.858	1	8
636.045	1	2
637.232	1	2
638.419	1	11
639.606	1	21
640.793	1	5
641.980	1	0
643.167	1	12
644.354	1	-1
645.541	1	-14
646.728	1	2
647.914	1	1
649.101	1	8
650.288	1	0
651.474	1	11
652.661	1	15
653.847	1	4
655.034	1	-1
656.220	1	2
657.406	1	14
658.593	1	4
659.779	1	-2
660.965	1	6
662.152	1	10
663.338	1	2
664.524	1	-13
665.710	1	-10
666.896	1	-2
668.082	1	-1
669.268	1	-1
670.454	1	9
671.640	1	-4
672.826	1	-14
674.011	1	5
675.197	1	0
676.383	1	-2
677.569	1	-6
678.754	1	12
679.940	1	-2
681.125	1	4
682.311	1	6
683.496	1	-5
684.682	1	5
685.867	1	4
687.053	1	12
688.238	1	5
688.746	1	6

File: GaN_sample E_spot4_UVVIS_68 K_200um_200 ms 2x2mm1_255.txt
340.368	1	5
341.565	1	-11
342.763	1	-1
343.960	1	-2
345.157	1	3
346.354	1	6
347.552	1	13
348.749	1	9
349.946	1	13
351.143	1	-6
352.340	1	1
353.537	1	12
354.734	1	7
355.931	1	2
357.127	1	14
358.324	1	8
359.521	1	6
360.718	1	3
361.914	1	9
363.111	1	23
364.308	1	10
365.504	1	7
366.701	1	14
367.897	1	12
369.093	1	12
370.290	1	10
371.486	1	13
372.682	1	3
373.879	1	12
375.075	1	9
376.271	1	7
377.467	1	-2
378.663	1	1
379.859	1	8
381.055	1	17
382.251	1	6
383.447	1	17
384.643	1	17
385.839	1	16
387.035	1	11
388.230	1	15
389.426	1	14
390.622	1	18
391.817	1	6
393.013	1	19
394.208	1	11
395.404	1	20
396.599	1	15
397.795	1	21
398.990	1	14
400.186	1	14
401.381	1	9
402.576	1	20
403.771	1	15
404.967	1	11
406.162	1	3
407.357	1	18
408.552	1	17
409.747	1	5
410.942	1	4
412.137	1	12
413.332	1	14
414.526	1	11
415.721	1	1
416.916	1	4
418.111	1	14
419.305	1	10
420.500	1	14
421.695	1	3
422.889	1	7
424.084	1	13
425.278	1	-2
426.472	1	2
427.667	1	7
428.861	1	13
430.055	1	5
431.250	1	0
432.444	1	5
433.638	1	6
434.832	1	1
436.026	1	2
437.220	1	11
438.414	1	2
439.608	1	6
440.802	1	5
441.996	1	4
443.190	1	-7
444.384	1	8
445.578	1	7
446.771	1	1
447.965	1	-4
449.159	1	-9
450.352	1	10
451.546	1	10
452.739	1	9
453.933	1	11
455.126	1	5
456.320	1	5
457.513	1	18
458.706	1	8
459.899	1	22
461.093	1	7
462.286	1	15
463.479	1	8
464.672	1	4
465.865	1	-5
467.058	1	10
468.251	1	1
469.444	1	7
470.637	1	9
471.830	1	19
473.023	1	-7
474.215	1	-5
475.408	1	2
476.601	1	1
477.793	1	9
478.986	1	5
480.179	1	10
481.371	1	3
482.564	1	-8
483.756	1	11
484.948	1	-1
486.141	1	-16
487.333	1	12
488.525	1	5
489.718	1	3
490.910	1	8
492.102	1	1
493.294	1	8
494.486	1	19
495.678	1	10
496.870	1	0
498.062	1	2
499.254	1	0
500.446	1	4
501.638	1	2
502.829	1	-4
504.021	1	27
505.213	1	4
506.404	1	4
507.596	1	13
508.788	1	3
509.979	1	14
511.171	1	15
512.362	1	9
513.553	1	-6
514.745	1	12
515.936	1	13
517.127	1	5
518.319	1	1
519.510	1	3
520.701	1	6
521.892	1	-5
523.083	1	9
524.274	1	10
525.465	1	16
526.656	1	25
527.847	1	7
529.038	1	8
530.229	1	10
531.419	1	18
532.610	1	19
533.801	1	9
534.991	1	8
536.182	1	4
537.373	1	1
538.563	1	9
539.754	1	13
540.944	1	11
542.134	1	9
543.325	1	7
544.515	1	9
545.705	1	19
546.896	1	12
548.086	1	17
549.276	1	8
550.466	1	9
551.656	1	-1
552.846	1	10
554.036	1	7
555.226	1	7
556.416	1	11
557.606	1	0
558.796	1	10
559.986	1	7
561.175	1	16
562.365	1	10
563.555	1	22
564.744	1	6
565.934	1	-1
567.123	1	24
568.313	1	-3
569.502	1	6
570.692	1	6
571.881	1	5
573.070	1	8
574.260	1	4
575.449	1	3
576.638	1	8
577.827	1	11
579.016	1	11
580.205	1	0
581.394	1	-3
582.583	1	-4
583.772	1	5
584.961	1	9
586.150	1	9
587.339	1	8
588.528	1	8
589.717	1	13
590.905	1	6
592.094	1	3
593.283	1	11
594.471	1	5
595.660	1	-3
596.848	1	4
598.037	1	3
599.225	1	10
600.413	1	11
601.602	1	10
602.790	1	4
603.978	1	-3
605.166	1	5
606.355	1	14
607.543	1	-5
608.731	1	-7
609.919	1	-7
611.107	1	10
612.295	1	3
613.483	1	8
614.671	1	3
615.858	1	2
617.046	1	3
618.234	1	6
619.422	1	2
620.609	1	1
621.797	1	1
622.985	1	8
624.172	1	6
625.360	1	-1
626.547	1	-1
627.735	1	7
628.922	1	1
630.109	1	0
631.297	1	5
632.484	1	4
633.671	1	0
634.858	1	-2
636.045	1	7
637.232	1	3
638.419	1	12
639.606	1	9
640.793	1	11
641.980	1	3
643.167	1	7
644.354	1	-1
645.541	1	-8
646.728	1	8
647.914	1	2
649.101	1	-1
650.288	1	-3
651.474	1	16
652.661	1	5
653.847	1	5
655.034	1	7
656.220	1	4
657.406	1	5
658.593	1	4
659.779	1	6
660.965	1	8
662.152	1	13
663.338	1	5
664.524	1	-3
665.710	1	-1
666.896	1	6
668.082	1	3
669.268	1	7
670.454	1	2
671.640	1	-15
672.826	1	-13
674.011	1	5
675.197	1	-4
676.383	1	-1
677.569	1	-1
678.754	1	-7
679.940	1	-1
681.125	1	6
682.311	1	3
683.496	1	1
684.682	1	10
685.867	1	6
687.053	1	8
688.238	1	-3
688.746	1	5

File: GaN_sample E_spot4_UVVIS_68 K_200um_200 ms 2x2mm1_256.txt
340.368	1	-7
341.565	1	-2
342.763	1	0
343.960	1	-4
345.157	1	7
346.354	1	-8
347.552	1	9
348.749	1	11
349.946	1	13
351.143	1	-5
352.340	1	4
353.537	1	-2
354.734	1	4
355.931	1	3
357.127	1	-1
358.324	1	3
359.521	1	-3
360.718	1	-5
361.914	1	3
363.111	1	18
364.308	1	0
365.504	1	12
366.701	1	6
367.897	1	7
369.093	1	17
370.290	1	1
371.486	1	21
372.682	1	11
373.879	1	5
375.075	1	16
376.271	1	2
377.467	1	0
378.663	1	3
379.859	1	8
381.055	1	14
382.251	1	13
383.447	1	14
384.643	1	11
385.839	1	16
387.035	1	10
388.230	1	6
389.426	1	21
390.622	1	13
391.817	1	-2
393.013	1	19
394.208	1	16
395.404	1	14
396.599	1	7
397.795	1	18
398.990	1	17
400.186	1	20
401.381	1	13
402.576	1	17
403.771	1	15
404.967	1	7
406.162	1	10
407.357	1	19
408.552	1	9
409.747	1	2
410.942	1	7
412.137	1	12
413.332	1	6
414.526	1	19
415.721	1	9
416.916	1	5
418.111	1	6
419.305	1	7
420.500	1	8
421.695	1	1
422.889	1	6
424.084	1	12
425.278	1	-4
426.472	1	8
427.667	1	4
428.861	1	4
430.055	1	7
431.250	1	-6
432.444	1	13
433.638	1	6
434.832	1	1
436.026	1	5
437.220	1	8
438.414	1	7
439.608	1	5
440.802	1	0
441.996	1	3
443.190	1	-7
444.384	1	9
445.578	1	10
446.771	1	10
447.965	1	-4
449.159	1	-4
450.352	1	11
451.546	1	0
452.739	1	2
453.933	1	10
455.126	1	1
456.320	1	2
457.513	1	13
458.706	1	1
459.899	1	5
461.093	1	8
462.286	1	14
463.479	1	12
464.672	1	-2
465.865	1	6
467.058	1	6
468.251	1	1
469.444	1	9
470.637	1	21
471.830	1	14
473.023	1	1
474.215	1	-1
475.408	1	4
476.601	1	7
477.793	1	8
478.986	1	-1
480.179	1	7
481.371	1	6
482.564	1	-5
483.756	1	13
484.948	1	3
486.141	1	-4
487.333	1	-3
488.525	1	3
489.718	1	-2
490.910	1	3
492.102	1	1
493.294	1	7
494.486	1	7
495.678	1	6
496.870	1	5
498.062	1	6
499.254	1	13
500.446	1	15
501.638	1	9
502.829	1	4
504.021	1	27
505.213	1	0
506.404	1	1
507.596	1	9
508.788	1	2
509.979	1	11
511.171	1	17
512.362	1	9
513.553	1	-1
514.745	1	6
515.936	1	13
517.127	1	13
518.319	1	1
519.510	1	9
520.701	1	11
521.892	1	9
523.083	1	5
524.274	1	-5
525.465	1	15
526.656	1	14
527.847	1	-1
529.038	1	12
530.229	1	11
531.419	1	17
532.610	1	7
533.801	1	8
534.991	1	4
536.182	1	6
537.373	1	9
538.563	1	1
539.754	1	6
540.944	1	7
542.134	1	13
543.325	1	9
544.515	1	5
545.705	1	16
546.896	1	4
548.086	1	10
549.276	1	15
550.466	1	9
551.656	1	-1
552.846	1	9
554.036	1	4
555.226	1	-1
556.416	1	9
557.606	1	1
558.796	1	8
559.986	1	0
561.175	1	4
562.365	1	7
563.555	1	18
564.744	1	12
565.934	1	10
567.123	1	26
568.313	1	3
569.502	1	2
570.692	1	7
571.881	1	12
573.070	1	6
574.260	1	0
575.449	1	11
576.638	1	0
577.827	1	13
579.016	1	21
580.205	1	0
581.394	1	-4
582.583	1	8
583.772	1	10
584.961	1	2
586.150	1	5
587.339	1	9
588.528	1	9
589.717	1	5
590.905	1	7
592.094	1	6
593.283	1	5
594.471	1	11
595.660	1	0
596.848	1	16
598.037	1	1
599.225	1	3
600.413	1	0
601.602	1	5
602.790	1	-1
603.978	1	-2
605.166	1	-2
606.355	1	11
607.543	1	-3
608.731	1	-5
609.919	1	1
611.107	1	11
612.295	1	6
613.483	1	6
614.671	1	10
615.858	1	14
617.046	1	9
618.234	1	5
619.422	1	9
620.609	1	6
621.797	1	2
622.985	1	8
624.172	1	14
625.360	1	-4
626.547	1	2
627.735	1	12
628.922	1	0
630.109	1	8
631.297	1	2
632.484	1	6
633.671	1	-1
634.858	1	4
636.045	1	5
637.232	1	-3
638.419	1	9
639.606	1	12
640.793	1	14
641.980	1	1
643.167	1	11
644.354	1	-5
645.541	1	0
646.728	1	6
647.914	1	2
649.101	1	4
650.288	1	6
651.474	1	9
652.661	1	2
653.847	1	7
655.034	1	8
656.220	1	7
657.406	1	1
658.593	1	0
659.779	1	3
660.965	1	-6
662.152	1	8
663.338	1	-6
664.524	1	-13
665.710	1	1
666.896	1	5
668.082	1	-4
669.268	1	1
670.454	1	2
671.640	1	-10
672.826	1	-11
674.011	1	7
675.197	1	2
676.383	1	-8
677.569	1	-8
678.754	1	-6
679.940	1	5
681.125	1	10
682.311	1	7
683.496	1	1
684.682	1	7
685.867	1	3
687.053	1	7
688.238	1	6
688.746	1	-1

File: GaN_sample E_spot4_UVVIS_68 K_200um_200 ms 2x2mm1_257.txt
340.368	1	4
341.565	1	-5
342.763	1	3
343.960	1	2
345.157	1	14
346.354	1	-7
347.552	1	2
348.749	1	3
349.946	1	10
351.143	1	-2
352.340	1	5
353.537	1	1
354.734	1	2
355.931	1	-4
357.127	1	1
358.324	1	1
359.521	1	6
360.718	1	8
361.914	1	2
363.111	1	18
364.308	1	5
365.504	1	15
366.701	1	4
367.897	1	16
369.093	1	9
370.290	1	3
371.486	1	14
372.682	1	14
373.879	1	17
375.075	1	10
376.271	1	8
377.467	1	2
378.663	1	3
379.859	1	5
381.055	1	9
382.251	1	10
383.447	1	15
384.643	1	26
385.839	1	18
387.035	1	6
388.230	1	10
389.426	1	11
390.622	1	13
391.817	1	12
393.013	1	13
394.208	1	18
395.404	1	10
396.599	1	16
397.795	1	20
398.990	1	17
400.186	1	30
401.381	1	22
402.576	1	21
403.771	1	13
404.967	1	9
406.162	1	15
407.357	1	8
408.552	1	11
409.747	1	5
410.942	1	13
412.137	1	14
413.332	1	1
414.526	1	6
415.721	1	13
416.916	1	5
418.111	1	8
419.305	1	2
420.500	1	15
421.695	1	12
422.889	1	13
424.084	1	8
425.278	1	1
426.472	1	9
427.667	1	12
428.861	1	10
430.055	1	5
431.250	1	-1
432.444	1	6
433.638	1	3
434.832	1	1
436.026	1	16
437.220	1	12
438.414	1	8
439.608	1	12
440.802	1	11
441.996	1	-1
443.190	1	-6
444.384	1	3
445.578	1	9
446.771	1	9
447.965	1	-1
449.159	1	-5
450.352	1	8
451.546	1	12
452.739	1	4
453.933	1	8
455.126	1	1
456.320	1	-1
457.513	1	10
458.706	1	6
459.899	1	15
461.093	1	11
462.286	1	3
463.479	1	12
464.672	1	4
465.865	1	-3
467.058	1	16
468.251	1	0
469.444	1	-2
470.637	1	9
471.830	1	22
473.023	1	1
474.215	1	-1
475.408	1	7
476.601	1	1
477.793	1	5
478.986	1	0
480.179	1	7
481.371	1	-1
482.564	1	0
483.756	1	10
484.948	1	7
486.141	1	-6
487.333	1	6
488.525	1	-2
489.718	1	-4
490.910	1	-3
492.102	1	0
493.294	1	8
494.486	1	6
495.678	1	16
496.870	1	-8
498.062	1	9
499.254	1	6
500.446	1	11
501.638	1	9
502.829	1	16
504.021	1	15
505.213	1	9
506.404	1	0
507.596	1	13
508.788	1	3
509.979	1	10
511.171	1	17
512.362	1	1
513.553	1	-4
514.745	1	2
515.936	1	8
517.127	1	11
518.319	1	1
519.510	1	12
520.701	1	19
521.892	1	-4
523.083	1	9
524.274	1	-2
525.465	1	11
526.656	1	16
527.847	1	5
529.038	1	15
530.229	1	15
531.419	1	15
532.610	1	15
533.801	1	16
534.991	1	7
536.182	1	12
537.373	1	4
538.563	1	10
539.754	1	2
540.944	1	10
542.134	1	16
543.325	1	9
544.515	1	8
545.705	1	12
546.896	1	15
548.086	1	5
549.276	1	12
550.466	1	4
551.656	1	2
552.846	1	8
554.036	1	13
555.226	1	-12
556.416	1	14
557.606	1	-1
558.796	1	4
559.986	1	-4
561.175	1	11
562.365	1	11
563.555	1	8
564.744	1	8
565.934	1	5
567.123	1	13
568.313	1	-2
569.502	1	10
570.692	1	9
571.881	1	14
573.070	1	9
574.260	1	-1
575.449	1	2
576.638	1	4
577.827	1	9
579.016	1	14
580.205	1	6
581.394	1	-9
582.583	1	-6
583.772	1	3
584.961	1	10
586.150	1	10
587.339	1	0
588.528	1	8
589.717	1	3
590.905	1	3
592.094	1	-1
593.283	1	11
594.471	1	8
595.660	1	0
596.848	1	6
598.037	1	7
599.225	1	3
600.413	1	4
601.602	1	9
602.790	1	-1
603.978	1	2
605.166	1	0
606.355	1	5
607.543	1	-6
608.731	1	-3
609.919	1	-7
611.107	1	16
612.295	1	8
613.483	1	6
614.671	1	9
615.858	1	1
617.046	1	9
618.234	1	7
619.422	1	0
620.609	1	10
621.797	1	2
622.985	1	7
624.172	1	12
625.360	1	-5
626.547	1	6
627.735	1	5
628.922	1	-5
630.109	1	0
631.297	1	4
632.484	1	5
633.671	1	5
634.858	1	9
636.045	1	6
637.232	1	1
638.419	1	16
639.606	1	12
640.793	1	5
641.980	1	-1
643.167	1	6
644.354	1	4
645.541	1	-3
646.728	1	9
647.914	1	5
649.101	1	0
650.288	1	-5
651.474	1	10
652.661	1	3
653.847	1	6
655.034	1	3
656.220	1	12
657.406	1	9
658.593	1	-3
659.779	1	-3
660.965	1	4
662.152	1	0
663.338	1	-6
664.524	1	-10
665.710	1	1
666.896	1	2
668.082	1	0
669.268	1	1
670.454	1	7
671.640	1	-18
672.826	1	-2
674.011	1	6
675.197	1	5
676.383	1	7
677.569	1	0
678.754	1	2
679.940	1	-3
681.125	1	8
682.311	1	2
683.496	1	-1
684.682	1	5
685.867	1	3
687.053	1	3
688.238	1	1
688.746	1	-1

File: GaN_sample E_spot4_UVVIS_68 K_200um_200 ms 2x2mm1_261.txt
340.368	1	-1
341.565	1	2
342.763	1	5
343.960	1	6
345.157	1	7
346.354	1	-3
347.552	1	-3
348.749	1	4
349.946	1	16
351.143	1	-6
352.340	1	-7
353.537	1	9
354.734	1	8
355.931	1	12
357.127	1	18
358.324	1	3
359.521	1	5
360.718	1	-6
361.914	1	-1
363.111	1	15
364.308	1	2
365.504	1	5
366.701	1	-3
367.897	1	5
369.093	1	11
370.290	1	4
371.486	1	13
372.682	1	3
373.879	1	12
375.075	1	16
376.271	1	4
377.467	1	5
378.663	1	2
379.859	1	3
381.055	1	6
382.251	1	9
383.447	1	19
384.643	1	23
385.839	1	22
387.035	1	20
388.230	1	11
389.426	1	13
390.622	1	14
391.817	1	3
393.013	1	18
394.208	1	17
395.404	1	25
396.599	1	12
397.795	1	27
398.990	1	24
400.186	1	19
401.381	1	21
402.576	1	17
403.771	1	17
404.967	1	9
406.162	1	4
407.357	1	12
408.552	1	19
409.747	1	-2
410.942	1	23
412.137	1	22
413.332	1	10
414.526	1	9
415.721	1	12
416.916	1	15
418.111	1	4
419.305	1	6
420.500	1	16
421.695	1	16
422.889	1	12
424.084	1	10
425.278	1	7
426.472	1	5
427.667	1	8
428.861	1	3
430.055	1	-3
431.250	1	-3
432.444	1	4
433.638	1	0
434.832	1	4
436.026	1	3
437.220	1	18
438.414	1	12
439.608	1	8
440.802	1	13
441.996	1	10
443.190	1	0
444.384	1	13
445.578	1	16
446.771	1	7
447.965	1	-1
449.159	1	3
450.352	1	23
451.546	1	9
452.739	1	-3
453.933	1	17
455.126	1	3
456.320	1	5
457.513	1	10
458.706	1	-2
459.899	1	12
461.093	1	7
462.286	1	15
463.479	1	12
464.672	1	2
465.865	1	-3
467.058	1	14
468.251	1	-4
469.444	1	5
470.637	1	4
471.830	1	13
473.023	1	-3
474.215	1	-6
475.408	1	7
476.601	1	8
477.793	1	1
478.986	1	1
480.179	1	3
481.371	1	4
482.564	1	-5
483.756	1	13
484.948	1	-2
486.141	1	3
487.333	1	15
488.525	1	7
489.718	1	-5
490.910	1	7
492.102	1	1
493.294	1	10
494.486	1	16
495.678	1	8
496.870	1	7
498.062	1	6
499.254	1	7
500.446	1	5
501.638	1	8
502.829	1	7
504.021	1	18
505.213	1	11
506.404	1	-4
507.596	1	4
508.788	1	15
509.979	1	2
511.171	1	15
512.362	1	12
513.553	1	-1
514.745	1	3
515.936	1	11
517.127	1	13
518.319	1	7
519.510	1	6
520.701	1	9
521.892	1	8
523.083	1	11
524.274	1	0
525.465	1	10
526.656	1	28
527.847	1	9
529.038	1	19
530.229	1	14
531.419	1	15
532.610	1	9
533.801	1	12
534.991	1	15
536.182	1	10
537.373	1	9
538.563	1	9
539.754	1	8
540.944	1	2
542.134	1	13
543.325	1	7
544.515	1	9
545.705	1	14
546.896	1	16
548.086	1	4
549.276	1	16
550.466	1	16
551.656	1	-2
552.846	1	8
554.036	1	13
555.226	1	-8
556.416	1	0
557.606	1	2
558.796	1	0
559.986	1	5
561.175	1	9
562.365	1	10
563.555	1	12
564.744	1	11
565.934	1	15
567.123	1	20
568.313	1	0
569.502	1	15
570.692	1	13
571.881	1	6
573.070	1	18
574.260	1	11
575.449	1	13
576.638	1	17
577.827	1	7
579.016	1	17
580.205	1	8
581.394	1	-3
582.583	1	-1
583.772	1	-1
584.961	1	9
586.150	1	9
587.339	1	4
588.528	1	4
589.717	1	-2
590.905	1	13
592.094	1	0
593.283	1	7
594.471	1	10
595.660	1	5
596.848	1	6
598.037	1	5
599.225	1	4
600.413	1	7
601.602	1	8
602.790	1	9
603.978	1	3
605.166	1	-2
606.355	1	-4
607.543	1	-2
608.731	1	-8
609.919	1	6
611.107	1	13
612.295	1	5
613.483	1	11
614.671	1	-2
615.858	1	9
617.046	1	4
618.234	1	1
619.422	1	0
620.609	1	12
621.797	1	0
622.985	1	-1
624.172	1	20
625.360	1	7
626.547	1	7
627.735	1	6
628.922	1	-3
630.109	1	4
631.297	1	-2
632.484	1	0
633.671	1	1
634.858	1	3
636.045	1	4
637.232	1	7
638.419	1	7
639.606	1	15
640.793	1	6
641.980	1	-6
643.167	1	14
644.354	1	3
645.541	1	-9
646.728	1	6
647.914	1	1
649.101	1	-6
650.288	1	-1
651.474	1	7
652.661	1	4
653.847	1	5
655.034	1	-2
656.220	1	9
657.406	1	9
658.593	1	-4
659.779	1	-6
660.965	1	0
662.152	1	6
663.338	1	-7
664.524	1	-9
665.710	1	6
666.896	1	-4
668.082	1	6
669.268	1	1
670.454	1	6
671.640	1	-10
672.826	1	-6
674.011	1	5
675.197	1	-5
676.383	1	6
677.569	1	4
678.754	1	-3
679.940	1	0
681.125	1	8
682.311	1	17
683.496	1	-13
684.682	1	2
685.867	1	4
687.053	1	6
688.238	1	10
688.746	1	5