Folder: cryo-il_analysis/Analysis/GaN_68K_200ms (part 15)

File: GaN_sample E_spot4_UVVIS_68 K_200um_200 ms 2x2mm1_284.txt
340.368	1	4
341.565	1	0
342.763	1	2
343.960	1	-9
345.157	1	11
346.354	1	6
347.552	1	-2
348.749	1	12
349.946	1	5
351.143	1	-3
352.340	1	-3
353.537	1	3
354.734	1	-2
355.931	1	-1
357.127	1	6
358.324	1	4
359.521	1	5
360.718	1	-6
361.914	1	-5
363.111	1	17
364.308	1	-4
365.504	1	3
366.701	1	3
367.897	1	12
369.093	1	11
370.290	1	-7
371.486	1	9
372.682	1	4
373.879	1	9
375.075	1	4
376.271	1	-2
377.467	1	9
378.663	1	3
379.859	1	-6
381.055	1	4
382.251	1	9
383.447	1	14
384.643	1	15
385.839	1	17
387.035	1	13
388.230	1	15
389.426	1	4
390.622	1	15
391.817	1	5
393.013	1	13
394.208	1	24
395.404	1	14
396.599	1	23
397.795	1	6
398.990	1	6
400.186	1	14
401.381	1	15
402.576	1	18
403.771	1	2
404.967	1	5
406.162	1	5
407.357	1	6
408.552	1	7
409.747	1	5
410.942	1	5
412.137	1	14
413.332	1	1
414.526	1	12
415.721	1	12
416.916	1	5
418.111	1	5
419.305	1	3
420.500	1	5
421.695	1	5
422.889	1	13
424.084	1	20
425.278	1	-4
426.472	1	3
427.667	1	1
428.861	1	2
430.055	1	-1
431.250	1	-4
432.444	1	17
433.638	1	-3
434.832	1	-6
436.026	1	9
437.220	1	3
438.414	1	-2
439.608	1	11
440.802	1	10
441.996	1	7
443.190	1	-1
444.384	1	5
445.578	1	13
446.771	1	-3
447.965	1	0
449.159	1	3
450.352	1	16
451.546	1	1
452.739	1	1
453.933	1	11
455.126	1	11
456.320	1	9
457.513	1	10
458.706	1	6
459.899	1	3
461.093	1	6
462.286	1	11
463.479	1	11
464.672	1	5
465.865	1	5
467.058	1	13
468.251	1	0
469.444	1	10
470.637	1	14
471.830	1	14
473.023	1	-1
474.215	1	-3
475.408	1	8
476.601	1	1
477.793	1	13
478.986	1	7
480.179	1	0
481.371	1	8
482.564	1	-6
483.756	1	16
484.948	1	-12
486.141	1	-6
487.333	1	8
488.525	1	-2
489.718	1	5
490.910	1	-6
492.102	1	-10
493.294	1	6
494.486	1	0
495.678	1	8
496.870	1	0
498.062	1	2
499.254	1	10
500.446	1	15
501.638	1	5
502.829	1	6
504.021	1	20
505.213	1	7
506.404	1	4
507.596	1	10
508.788	1	7
509.979	1	15
511.171	1	9
512.362	1	6
513.553	1	-6
514.745	1	4
515.936	1	14
517.127	1	-8
518.319	1	1
519.510	1	9
520.701	1	14
521.892	1	-4
523.083	1	12
524.274	1	-5
525.465	1	16
526.656	1	22
527.847	1	0
529.038	1	11
530.229	1	-3
531.419	1	19
532.610	1	10
533.801	1	13
534.991	1	9
536.182	1	8
537.373	1	-6
538.563	1	12
539.754	1	2
540.944	1	3
542.134	1	11
543.325	1	-2
544.515	1	8
545.705	1	12
546.896	1	7
548.086	1	14
549.276	1	9
550.466	1	-2
551.656	1	-5
552.846	1	11
554.036	1	7
555.226	1	-1
556.416	1	4
557.606	1	-4
558.796	1	5
559.986	1	-3
561.175	1	-4
562.365	1	2
563.555	1	11
564.744	1	9
565.934	1	9
567.123	1	19
568.313	1	-4
569.502	1	2
570.692	1	11
571.881	1	12
573.070	1	-2
574.260	1	-3
575.449	1	12
576.638	1	-6
577.827	1	2
579.016	1	10
580.205	1	-2
581.394	1	1
582.583	1	-1
583.772	1	2
584.961	1	4
586.150	1	14
587.339	1	9
588.528	1	0
589.717	1	8
590.905	1	4
592.094	1	-2
593.283	1	11
594.471	1	4
595.660	1	-1
596.848	1	9
598.037	1	8
599.225	1	7
600.413	1	2
601.602	1	9
602.790	1	0
603.978	1	6
605.166	1	-3
606.355	1	16
607.543	1	-11
608.731	1	-5
609.919	1	-13
611.107	1	7
612.295	1	-2
613.483	1	18
614.671	1	8
615.858	1	7
617.046	1	0
618.234	1	-1
619.422	1	-8
620.609	1	5
621.797	1	-4
622.985	1	6
624.172	1	12
625.360	1	8
626.547	1	-2
627.735	1	6
628.922	1	-5
630.109	1	-3
631.297	1	0
632.484	1	-6
633.671	1	6
634.858	1	3
636.045	1	5
637.232	1	6
638.419	1	5
639.606	1	14
640.793	1	10
641.980	1	-4
643.167	1	11
644.354	1	1
645.541	1	-3
646.728	1	3
647.914	1	-6
649.101	1	-2
650.288	1	-3
651.474	1	9
652.661	1	0
653.847	1	5
655.034	1	4
656.220	1	9
657.406	1	9
658.593	1	-3
659.779	1	8
660.965	1	-4
662.152	1	5
663.338	1	5
664.524	1	-9
665.710	1	7
666.896	1	-2
668.082	1	0
669.268	1	2
670.454	1	0
671.640	1	-9
672.826	1	-18
674.011	1	1
675.197	1	-7
676.383	1	-1
677.569	1	-1
678.754	1	1
679.940	1	-4
681.125	1	15
682.311	1	-9
683.496	1	-7
684.682	1	3
685.867	1	-6
687.053	1	8
688.238	1	2
688.746	1	1

File: GaN_sample E_spot4_UVVIS_68 K_200um_200 ms 2x2mm1_288.txt
340.368	1	3
341.565	1	-7
342.763	1	-1
343.960	1	-3
345.157	1	5
346.354	1	1
347.552	1	3
348.749	1	5
349.946	1	2
351.143	1	0
352.340	1	7
353.537	1	7
354.734	1	0
355.931	1	11
357.127	1	4
358.324	1	2
359.521	1	0
360.718	1	2
361.914	1	1
363.111	1	13
364.308	1	3
365.504	1	12
366.701	1	7
367.897	1	4
369.093	1	8
370.290	1	5
371.486	1	14
372.682	1	-1
373.879	1	14
375.075	1	15
376.271	1	-2
377.467	1	-1
378.663	1	8
379.859	1	-1
381.055	1	11
382.251	1	-2
383.447	1	15
384.643	1	15
385.839	1	15
387.035	1	9
388.230	1	16
389.426	1	15
390.622	1	10
391.817	1	1
393.013	1	19
394.208	1	17
395.404	1	11
396.599	1	16
397.795	1	16
398.990	1	12
400.186	1	16
401.381	1	8
402.576	1	9
403.771	1	12
404.967	1	0
406.162	1	-5
407.357	1	6
408.552	1	5
409.747	1	-6
410.942	1	9
412.137	1	11
413.332	1	9
414.526	1	7
415.721	1	6
416.916	1	0
418.111	1	10
419.305	1	10
420.500	1	3
421.695	1	11
422.889	1	1
424.084	1	10
425.278	1	-2
426.472	1	-5
427.667	1	11
428.861	1	0
430.055	1	-2
431.250	1	-5
432.444	1	14
433.638	1	4
434.832	1	-8
436.026	1	5
437.220	1	9
438.414	1	0
439.608	1	0
440.802	1	6
441.996	1	3
443.190	1	-1
444.384	1	7
445.578	1	18
446.771	1	-6
447.965	1	1
449.159	1	1
450.352	1	12
451.546	1	5
452.739	1	4
453.933	1	5
455.126	1	-1
456.320	1	5
457.513	1	6
458.706	1	0
459.899	1	17
461.093	1	-2
462.286	1	6
463.479	1	9
464.672	1	3
465.865	1	2
467.058	1	17
468.251	1	-6
469.444	1	3
470.637	1	3
471.830	1	17
473.023	1	-6
474.215	1	0
475.408	1	-1
476.601	1	-4
477.793	1	15
478.986	1	-2
480.179	1	-1
481.371	1	4
482.564	1	-9
483.756	1	13
484.948	1	-13
486.141	1	-4
487.333	1	10
488.525	1	3
489.718	1	-6
490.910	1	6
492.102	1	-6
493.294	1	14
494.486	1	10
495.678	1	12
496.870	1	2
498.062	1	4
499.254	1	9
500.446	1	5
501.638	1	9
502.829	1	17
504.021	1	18
505.213	1	-4
506.404	1	3
507.596	1	11
508.788	1	1
509.979	1	2
511.171	1	13
512.362	1	14
513.553	1	-11
514.745	1	9
515.936	1	3
517.127	1	7
518.319	1	1
519.510	1	7
520.701	1	6
521.892	1	-4
523.083	1	3
524.274	1	-6
525.465	1	8
526.656	1	24
527.847	1	-2
529.038	1	16
530.229	1	7
531.419	1	16
532.610	1	7
533.801	1	12
534.991	1	9
536.182	1	-1
537.373	1	2
538.563	1	5
539.754	1	-2
540.944	1	0
542.134	1	3
543.325	1	7
544.515	1	5
545.705	1	11
546.896	1	-2
548.086	1	20
549.276	1	19
550.466	1	-6
551.656	1	-2
552.846	1	10
554.036	1	10
555.226	1	-4
556.416	1	6
557.606	1	-9
558.796	1	4
559.986	1	11
561.175	1	4
562.365	1	10
563.555	1	18
564.744	1	7
565.934	1	10
567.123	1	14
568.313	1	12
569.502	1	0
570.692	1	3
571.881	1	7
573.070	1	15
574.260	1	-9
575.449	1	5
576.638	1	9
577.827	1	14
579.016	1	8
580.205	1	7
581.394	1	0
582.583	1	3
583.772	1	4
584.961	1	3
586.150	1	11
587.339	1	11
588.528	1	8
589.717	1	4
590.905	1	4
592.094	1	1
593.283	1	4
594.471	1	10
595.660	1	-3
596.848	1	11
598.037	1	8
599.225	1	8
600.413	1	-4
601.602	1	6
602.790	1	4
603.978	1	-5
605.166	1	5
606.355	1	6
607.543	1	-9
608.731	1	-7
609.919	1	5
611.107	1	7
612.295	1	-2
613.483	1	5
614.671	1	10
615.858	1	6
617.046	1	7
618.234	1	5
619.422	1	4
620.609	1	9
621.797	1	3
622.985	1	8
624.172	1	7
625.360	1	-1
626.547	1	6
627.735	1	6
628.922	1	3
630.109	1	-1
631.297	1	2
632.484	1	-6
633.671	1	4
634.858	1	11
636.045	1	7
637.232	1	0
638.419	1	6
639.606	1	19
640.793	1	9
641.980	1	-1
643.167	1	10
644.354	1	-1
645.541	1	-15
646.728	1	10
647.914	1	-10
649.101	1	8
650.288	1	6
651.474	1	10
652.661	1	1
653.847	1	8
655.034	1	12
656.220	1	11
657.406	1	-3
658.593	1	-3
659.779	1	-2
660.965	1	-2
662.152	1	4
663.338	1	-4
664.524	1	-4
665.710	1	-2
666.896	1	-1
668.082	1	-3
669.268	1	7
670.454	1	4
671.640	1	-7
672.826	1	-8
674.011	1	6
675.197	1	8
676.383	1	1
677.569	1	4
678.754	1	-3
679.940	1	0
681.125	1	2
682.311	1	3
683.496	1	0
684.682	1	9
685.867	1	-4
687.053	1	5
688.238	1	-1
688.746	1	1

File: GaN_sample E_spot4_UVVIS_68 K_200um_200 ms 2x2mm1_291.txt
340.368	1	5
341.565	1	6
342.763	1	-2
343.960	1	-4
345.157	1	4
346.354	1	1
347.552	1	2
348.749	1	2
349.946	1	7
351.143	1	-4
352.340	1	4
353.537	1	2
354.734	1	9
355.931	1	7
357.127	1	12
358.324	1	1
359.521	1	4
360.718	1	2
361.914	1	4
363.111	1	8
364.308	1	3
365.504	1	2
366.701	1	6
367.897	1	4
369.093	1	5
370.290	1	12
371.486	1	15
372.682	1	4
373.879	1	19
375.075	1	10
376.271	1	6
377.467	1	1
378.663	1	0
379.859	1	6
381.055	1	10
382.251	1	9
383.447	1	18
384.643	1	16
385.839	1	16
387.035	1	8
388.230	1	14
389.426	1	15
390.622	1	13
391.817	1	8
393.013	1	19
394.208	1	5
395.404	1	6
396.599	1	16
397.795	1	20
398.990	1	18
400.186	1	13
401.381	1	10
402.576	1	12
403.771	1	15
404.967	1	9
406.162	1	10
407.357	1	19
408.552	1	11
409.747	1	9
410.942	1	3
412.137	1	16
413.332	1	6
414.526	1	-2
415.721	1	5
416.916	1	11
418.111	1	15
419.305	1	7
420.500	1	13
421.695	1	9
422.889	1	21
424.084	1	7
425.278	1	-3
426.472	1	1
427.667	1	11
428.861	1	9
430.055	1	12
431.250	1	-4
432.444	1	5
433.638	1	6
434.832	1	-3
436.026	1	8
437.220	1	11
438.414	1	6
439.608	1	6
440.802	1	15
441.996	1	3
443.190	1	-10
444.384	1	2
445.578	1	4
446.771	1	-9
447.965	1	-1
449.159	1	-9
450.352	1	10
451.546	1	9
452.739	1	11
453.933	1	-2
455.126	1	4
456.320	1	0
457.513	1	13
458.706	1	-1
459.899	1	17
461.093	1	1
462.286	1	12
463.479	1	5
464.672	1	0
465.865	1	-1
467.058	1	12
468.251	1	-6
469.444	1	-3
470.637	1	11
471.830	1	19
473.023	1	-1
474.215	1	-8
475.408	1	11
476.601	1	-4
477.793	1	11
478.986	1	2
480.179	1	6
481.371	1	3
482.564	1	-6
483.756	1	8
484.948	1	-1
486.141	1	-2
487.333	1	8
488.525	1	3
489.718	1	0
490.910	1	-3
492.102	1	0
493.294	1	3
494.486	1	-1
495.678	1	15
496.870	1	3
498.062	1	3
499.254	1	5
500.446	1	6
501.638	1	12
502.829	1	9
504.021	1	24
505.213	1	1
506.404	1	3
507.596	1	13
508.788	1	-2
509.979	1	0
511.171	1	16
512.362	1	1
513.553	1	5
514.745	1	4
515.936	1	8
517.127	1	14
518.319	1	1
519.510	1	12
520.701	1	16
521.892	1	-4
523.083	1	7
524.274	1	2
525.465	1	1
526.656	1	21
527.847	1	5
529.038	1	19
530.229	1	12
531.419	1	19
532.610	1	5
533.801	1	0
534.991	1	0
536.182	1	3
537.373	1	-6
538.563	1	7
539.754	1	11
540.944	1	6
542.134	1	22
543.325	1	1
544.515	1	6
545.705	1	9
546.896	1	6
548.086	1	7
549.276	1	3
550.466	1	5
551.656	1	-11
552.846	1	19
554.036	1	6
555.226	1	-9
556.416	1	14
557.606	1	-11
558.796	1	3
559.986	1	6
561.175	1	8
562.365	1	16
563.555	1	9
564.744	1	6
565.934	1	11
567.123	1	17
568.313	1	6
569.502	1	9
570.692	1	5
571.881	1	6
573.070	1	11
574.260	1	-4
575.449	1	1
576.638	1	4
577.827	1	11
579.016	1	21
580.205	1	1
581.394	1	-1
582.583	1	0
583.772	1	3
584.961	1	14
586.150	1	1
587.339	1	10
588.528	1	5
589.717	1	7
590.905	1	6
592.094	1	2
593.283	1	11
594.471	1	2
595.660	1	0
596.848	1	10
598.037	1	3
599.225	1	-3
600.413	1	4
601.602	1	1
602.790	1	10
603.978	1	3
605.166	1	2
606.355	1	4
607.543	1	-2
608.731	1	-5
609.919	1	0
611.107	1	1
612.295	1	9
613.483	1	5
614.671	1	8
615.858	1	11
617.046	1	1
618.234	1	-7
619.422	1	-1
620.609	1	11
621.797	1	-5
622.985	1	2
624.172	1	6
625.360	1	-7
626.547	1	2
627.735	1	3
628.922	1	3
630.109	1	2
631.297	1	-7
632.484	1	-4
633.671	1	10
634.858	1	7
636.045	1	3
637.232	1	1
638.419	1	3
639.606	1	9
640.793	1	4
641.980	1	1
643.167	1	7
644.354	1	2
645.541	1	1
646.728	1	6
647.914	1	-7
649.101	1	5
650.288	1	-4
651.474	1	2
652.661	1	5
653.847	1	0
655.034	1	0
656.220	1	-1
657.406	1	10
658.593	1	-9
659.779	1	1
660.965	1	4
662.152	1	1
663.338	1	-8
664.524	1	-5
665.710	1	1
666.896	1	-7
668.082	1	9
669.268	1	6
670.454	1	2
671.640	1	-17
672.826	1	-17
674.011	1	11
675.197	1	-4
676.383	1	3
677.569	1	-5
678.754	1	3
679.940	1	-3
681.125	1	10
682.311	1	-11
683.496	1	0
684.682	1	10
685.867	1	7
687.053	1	12
688.238	1	-7
688.746	1	1

File: GaN_sample E_spot4_UVVIS_68 K_200um_200 ms 2x2mm1_293.txt
340.368	1	2
341.565	1	-5
342.763	1	1
343.960	1	-2
345.157	1	9
346.354	1	-2
347.552	1	1
348.749	1	8
349.946	1	11
351.143	1	-5
352.340	1	6
353.537	1	-1
354.734	1	-3
355.931	1	1
357.127	1	7
358.324	1	-3
359.521	1	2
360.718	1	0
361.914	1	4
363.111	1	15
364.308	1	13
365.504	1	0
366.701	1	1
367.897	1	6
369.093	1	6
370.290	1	10
371.486	1	11
372.682	1	0
373.879	1	10
375.075	1	12
376.271	1	1
377.467	1	-1
378.663	1	3
379.859	1	-2
381.055	1	-1
382.251	1	1
383.447	1	13
384.643	1	16
385.839	1	11
387.035	1	11
388.230	1	16
389.426	1	19
390.622	1	7
391.817	1	-3
393.013	1	7
394.208	1	18
395.404	1	14
396.599	1	6
397.795	1	14
398.990	1	11
400.186	1	12
401.381	1	-1
402.576	1	21
403.771	1	14
404.967	1	14
406.162	1	14
407.357	1	4
408.552	1	9
409.747	1	-1
410.942	1	5
412.137	1	11
413.332	1	0
414.526	1	3
415.721	1	6
416.916	1	3
418.111	1	11
419.305	1	1
420.500	1	1
421.695	1	9
422.889	1	6
424.084	1	16
425.278	1	1
426.472	1	-2
427.667	1	5
428.861	1	5
430.055	1	6
431.250	1	-7
432.444	1	7
433.638	1	7
434.832	1	-1
436.026	1	10
437.220	1	11
438.414	1	6
439.608	1	-4
440.802	1	9
441.996	1	4
443.190	1	-1
444.384	1	6
445.578	1	14
446.771	1	5
447.965	1	3
449.159	1	-2
450.352	1	11
451.546	1	1
452.739	1	5
453.933	1	8
455.126	1	0
456.320	1	3
457.513	1	11
458.706	1	0
459.899	1	15
461.093	1	-1
462.286	1	19
463.479	1	1
464.672	1	3
465.865	1	1
467.058	1	7
468.251	1	-6
469.444	1	-3
470.637	1	11
471.830	1	17
473.023	1	-7
474.215	1	-6
475.408	1	0
476.601	1	4
477.793	1	11
478.986	1	-6
480.179	1	8
481.371	1	-1
482.564	1	-11
483.756	1	8
484.948	1	1
486.141	1	-2
487.333	1	0
488.525	1	0
489.718	1	2
490.910	1	8
492.102	1	-3
493.294	1	8
494.486	1	11
495.678	1	8
496.870	1	3
498.062	1	1
499.254	1	-1
500.446	1	12
501.638	1	-1
502.829	1	8
504.021	1	20
505.213	1	2
506.404	1	2
507.596	1	12
508.788	1	2
509.979	1	0
511.171	1	11
512.362	1	9
513.553	1	6
514.745	1	6
515.936	1	8
517.127	1	2
518.319	1	11
519.510	1	8
520.701	1	7
521.892	1	-5
523.083	1	6
524.274	1	-5
525.465	1	4
526.656	1	22
527.847	1	-6
529.038	1	11
530.229	1	13
531.419	1	16
532.610	1	0
533.801	1	10
534.991	1	3
536.182	1	7
537.373	1	12
538.563	1	8
539.754	1	0
540.944	1	2
542.134	1	13
543.325	1	-1
544.515	1	5
545.705	1	14
546.896	1	1
548.086	1	8
549.276	1	14
550.466	1	-1
551.656	1	1
552.846	1	10
554.036	1	10
555.226	1	-7
556.416	1	5
557.606	1	-4
558.796	1	2
559.986	1	0
561.175	1	9
562.365	1	15
563.555	1	14
564.744	1	9
565.934	1	3
567.123	1	16
568.313	1	-1
569.502	1	13
570.692	1	7
571.881	1	12
573.070	1	6
574.260	1	5
575.449	1	9
576.638	1	8
577.827	1	5
579.016	1	19
580.205	1	6
581.394	1	-4
582.583	1	-4
583.772	1	5
584.961	1	2
586.150	1	2
587.339	1	13
588.528	1	16
589.717	1	2
590.905	1	2
592.094	1	10
593.283	1	9
594.471	1	1
595.660	1	3
596.848	1	12
598.037	1	5
599.225	1	4
600.413	1	5
601.602	1	2
602.790	1	6
603.978	1	-5
605.166	1	-1
606.355	1	15
607.543	1	-8
608.731	1	-2
609.919	1	-3
611.107	1	7
612.295	1	9
613.483	1	6
614.671	1	0
615.858	1	7
617.046	1	8
618.234	1	-6
619.422	1	-1
620.609	1	-2
621.797	1	7
622.985	1	2
624.172	1	25
625.360	1	1
626.547	1	7
627.735	1	-1
628.922	1	4
630.109	1	-2
631.297	1	-2
632.484	1	0
633.671	1	1
634.858	1	0
636.045	1	11
637.232	1	1
638.419	1	4
639.606	1	13
640.793	1	13
641.980	1	6
643.167	1	14
644.354	1	-4
645.541	1	-9
646.728	1	6
647.914	1	-10
649.101	1	3
650.288	1	4
651.474	1	2
652.661	1	5
653.847	1	10
655.034	1	3
656.220	1	13
657.406	1	2
658.593	1	-6
659.779	1	-3
660.965	1	8
662.152	1	3
663.338	1	-9
664.524	1	-7
665.710	1	4
666.896	1	2
668.082	1	-4
669.268	1	7
670.454	1	9
671.640	1	-15
672.826	1	-8
674.011	1	11
675.197	1	3
676.383	1	2
677.569	1	-4
678.754	1	7
679.940	1	1
681.125	1	4
682.311	1	6
683.496	1	-5
684.682	1	10
685.867	1	8
687.053	1	-1
688.238	1	5
688.746	1	7

File: GaN_sample E_spot4_UVVIS_68 K_200um_200 ms 2x2mm1_297.txt
340.368	1	3
341.565	1	-2
342.763	1	0
343.960	1	1
345.157	1	7
346.354	1	4
347.552	1	-3
348.749	1	-7
349.946	1	11
351.143	1	-7
352.340	1	-7
353.537	1	1
354.734	1	7
355.931	1	6
357.127	1	0
358.324	1	6
359.521	1	7
360.718	1	-8
361.914	1	-5
363.111	1	13
364.308	1	3
365.504	1	-3
366.701	1	5
367.897	1	13
369.093	1	1
370.290	1	8
371.486	1	13
372.682	1	5
373.879	1	3
375.075	1	10
376.271	1	0
377.467	1	-1
378.663	1	-10
379.859	1	0
381.055	1	0
382.251	1	11
383.447	1	13
384.643	1	18
385.839	1	16
387.035	1	5
388.230	1	6
389.426	1	10
390.622	1	2
391.817	1	12
393.013	1	20
394.208	1	11
395.404	1	12
396.599	1	12
397.795	1	9
398.990	1	12
400.186	1	12
401.381	1	17
402.576	1	16
403.771	1	14
404.967	1	11
406.162	1	1
407.357	1	13
408.552	1	12
409.747	1	3
410.942	1	15
412.137	1	14
413.332	1	4
414.526	1	6
415.721	1	9
416.916	1	-2
418.111	1	4
419.305	1	-3
420.500	1	9
421.695	1	3
422.889	1	8
424.084	1	14
425.278	1	4
426.472	1	-3
427.667	1	13
428.861	1	5
430.055	1	10
431.250	1	-5
432.444	1	10
433.638	1	0
434.832	1	5
436.026	1	5
437.220	1	9
438.414	1	3
439.608	1	2
440.802	1	5
441.996	1	2
443.190	1	-11
444.384	1	-1
445.578	1	14
446.771	1	7
447.965	1	-6
449.159	1	-2
450.352	1	5
451.546	1	7
452.739	1	0
453.933	1	8
455.126	1	4
456.320	1	3
457.513	1	6
458.706	1	5
459.899	1	6
461.093	1	11
462.286	1	10
463.479	1	16
464.672	1	6
465.865	1	-7
467.058	1	12
468.251	1	-9
469.444	1	-8
470.637	1	11
471.830	1	1
473.023	1	-8
474.215	1	9
475.408	1	1
476.601	1	1
477.793	1	4
478.986	1	13
480.179	1	5
481.371	1	4
482.564	1	3
483.756	1	10
484.948	1	3
486.141	1	-3
487.333	1	2
488.525	1	-6
489.718	1	-1
490.910	1	-2
492.102	1	-6
493.294	1	11
494.486	1	6
495.678	1	16
496.870	1	-1
498.062	1	-5
499.254	1	-2
500.446	1	5
501.638	1	13
502.829	1	-1
504.021	1	15
505.213	1	1
506.404	1	3
507.596	1	7
508.788	1	-1
509.979	1	-1
511.171	1	7
512.362	1	4
513.553	1	2
514.745	1	-4
515.936	1	9
517.127	1	11
518.319	1	1
519.510	1	14
520.701	1	13
521.892	1	0
523.083	1	1
524.274	1	-3
525.465	1	7
526.656	1	16
527.847	1	-6
529.038	1	13
530.229	1	13
531.419	1	17
532.610	1	11
533.801	1	8
534.991	1	8
536.182	1	4
537.373	1	2
538.563	1	10
539.754	1	4
540.944	1	6
542.134	1	18
543.325	1	5
544.515	1	13
545.705	1	13
546.896	1	8
548.086	1	10
549.276	1	5
550.466	1	-3
551.656	1	5
552.846	1	1
554.036	1	5
555.226	1	0
556.416	1	13
557.606	1	-4
558.796	1	13
559.986	1	1
561.175	1	1
562.365	1	4
563.555	1	13
564.744	1	-3
565.934	1	7
567.123	1	13
568.313	1	8
569.502	1	2
570.692	1	11
571.881	1	5
573.070	1	7
574.260	1	-5
575.449	1	3
576.638	1	3
577.827	1	17
579.016	1	-3
580.205	1	3
581.394	1	-4
582.583	1	9
583.772	1	-8
584.961	1	1
586.150	1	3
587.339	1	7
588.528	1	9
589.717	1	12
590.905	1	6
592.094	1	9
593.283	1	2
594.471	1	5
595.660	1	-1
596.848	1	11
598.037	1	7
599.225	1	-2
600.413	1	1
601.602	1	7
602.790	1	8
603.978	1	2
605.166	1	4
606.355	1	8
607.543	1	-3
608.731	1	-11
609.919	1	1
611.107	1	3
612.295	1	8
613.483	1	4
614.671	1	-6
615.858	1	11
617.046	1	2
618.234	1	0
619.422	1	0
620.609	1	5
621.797	1	2
622.985	1	2
624.172	1	12
625.360	1	-4
626.547	1	5
627.735	1	5
628.922	1	-2
630.109	1	-1
631.297	1	3
632.484	1	2
633.671	1	-5
634.858	1	12
636.045	1	1
637.232	1	-1
638.419	1	10
639.606	1	14
640.793	1	0
641.980	1	-2
643.167	1	2
644.354	1	1
645.541	1	-4
646.728	1	5
647.914	1	-9
649.101	1	-1
650.288	1	0
651.474	1	-2
652.661	1	5
653.847	1	13
655.034	1	4
656.220	1	0
657.406	1	11
658.593	1	-6
659.779	1	3
660.965	1	2
662.152	1	6
663.338	1	-2
664.524	1	-4
665.710	1	-4
666.896	1	-5
668.082	1	1
669.268	1	6
670.454	1	5
671.640	1	-15
672.826	1	-4
674.011	1	14
675.197	1	-7
676.383	1	5
677.569	1	2
678.754	1	-1
679.940	1	-3
681.125	1	2
682.311	1	-3
683.496	1	-11
684.682	1	18
685.867	1	-1
687.053	1	6
688.238	1	5
688.746	1	4

File: GaN_sample E_spot4_UVVIS_68 K_200um_200 ms 2x2mm1_300.txt
340.368	1	-4
341.565	1	-1
342.763	1	1
343.960	1	-1
345.157	1	0
346.354	1	1
347.552	1	3
348.749	1	-1
349.946	1	4
351.143	1	-11
352.340	1	-5
353.537	1	-3
354.734	1	-2
355.931	1	1
357.127	1	3
358.324	1	4
359.521	1	7
360.718	1	1
361.914	1	11
363.111	1	16
364.308	1	1
365.504	1	-1
366.701	1	4
367.897	1	7
369.093	1	7
370.290	1	6
371.486	1	15
372.682	1	-5
373.879	1	11
375.075	1	15
376.271	1	-1
377.467	1	1
378.663	1	-1
379.859	1	2
381.055	1	4
382.251	1	6
383.447	1	13
384.643	1	16
385.839	1	19
387.035	1	5
388.230	1	1
389.426	1	12
390.622	1	14
391.817	1	8
393.013	1	15
394.208	1	12
395.404	1	11
396.599	1	12
397.795	1	13
398.990	1	11
400.186	1	12
401.381	1	15
402.576	1	17
403.771	1	5
404.967	1	4
406.162	1	8
407.357	1	13
408.552	1	9
409.747	1	4
410.942	1	12
412.137	1	9
413.332	1	10
414.526	1	10
415.721	1	4
416.916	1	3
418.111	1	7
419.305	1	13
420.500	1	10
421.695	1	3
422.889	1	10
424.084	1	4
425.278	1	-3
426.472	1	-7
427.667	1	16
428.861	1	-2
430.055	1	2
431.250	1	-6
432.444	1	5
433.638	1	7
434.832	1	-1
436.026	1	10
437.220	1	13
438.414	1	0
439.608	1	3
440.802	1	7
441.996	1	2
443.190	1	-3
444.384	1	11
445.578	1	6
446.771	1	-1
447.965	1	11
449.159	1	-7
450.352	1	8
451.546	1	3
452.739	1	7
453.933	1	8
455.126	1	2
456.320	1	-1
457.513	1	13
458.706	1	10
459.899	1	13
461.093	1	8
462.286	1	9
463.479	1	11
464.672	1	2
465.865	1	-7
467.058	1	18
468.251	1	2
469.444	1	-7
470.637	1	10
471.830	1	24
473.023	1	-15
474.215	1	3
475.408	1	7
476.601	1	3
477.793	1	10
478.986	1	3
480.179	1	-1
481.371	1	7
482.564	1	-5
483.756	1	13
484.948	1	-4
486.141	1	-9
487.333	1	4
488.525	1	0
489.718	1	-8
490.910	1	-2
492.102	1	2
493.294	1	11
494.486	1	6
495.678	1	13
496.870	1	9
498.062	1	-1
499.254	1	-4
500.446	1	10
501.638	1	6
502.829	1	3
504.021	1	15
505.213	1	2
506.404	1	5
507.596	1	15
508.788	1	0
509.979	1	5
511.171	1	22
512.362	1	2
513.553	1	-20
514.745	1	6
515.936	1	4
517.127	1	3
518.319	1	2
519.510	1	8
520.701	1	6
521.892	1	-10
523.083	1	3
524.274	1	4
525.465	1	7
526.656	1	13
527.847	1	1
529.038	1	20
530.229	1	13
531.419	1	8
532.610	1	9
533.801	1	9
534.991	1	7
536.182	1	6
537.373	1	2
538.563	1	16
539.754	1	0
540.944	1	8
542.134	1	14
543.325	1	3
544.515	1	3
545.705	1	15
546.896	1	7
548.086	1	12
549.276	1	4
550.466	1	3
551.656	1	-3
552.846	1	7
554.036	1	11
555.226	1	-1
556.416	1	10
557.606	1	3
558.796	1	2
559.986	1	2
561.175	1	1
562.365	1	-7
563.555	1	16
564.744	1	14
565.934	1	7
567.123	1	15
568.313	1	-7
569.502	1	-4
570.692	1	10
571.881	1	3
573.070	1	7
574.260	1	4
575.449	1	8
576.638	1	-2
577.827	1	18
579.016	1	9
580.205	1	8
581.394	1	3
582.583	1	-11
583.772	1	2
584.961	1	1
586.150	1	4
587.339	1	10
588.528	1	5
589.717	1	3
590.905	1	4
592.094	1	12
593.283	1	0
594.471	1	3
595.660	1	-1
596.848	1	14
598.037	1	0
599.225	1	-1
600.413	1	2
601.602	1	0
602.790	1	6
603.978	1	3
605.166	1	-2
606.355	1	13
607.543	1	3
608.731	1	-3
609.919	1	-5
611.107	1	2
612.295	1	2
613.483	1	12
614.671	1	12
615.858	1	8
617.046	1	11
618.234	1	3
619.422	1	2
620.609	1	2
621.797	1	2
622.985	1	9
624.172	1	12
625.360	1	-1
626.547	1	8
627.735	1	6
628.922	1	-1
630.109	1	0
631.297	1	-4
632.484	1	5
633.671	1	5
634.858	1	10
636.045	1	4
637.232	1	13
638.419	1	7
639.606	1	7
640.793	1	13
641.980	1	4
643.167	1	2
644.354	1	-2
645.541	1	-10
646.728	1	1
647.914	1	0
649.101	1	-1
650.288	1	-6
651.474	1	-2
652.661	1	1
653.847	1	1
655.034	1	4
656.220	1	5
657.406	1	2
658.593	1	-4
659.779	1	-10
660.965	1	3
662.152	1	-3
663.338	1	-6
664.524	1	-2
665.710	1	2
666.896	1	-10
668.082	1	10
669.268	1	-2
670.454	1	8
671.640	1	-20
672.826	1	-13
674.011	1	7
675.197	1	1
676.383	1	3
677.569	1	-1
678.754	1	-1
679.940	1	-1
681.125	1	7
682.311	1	2
683.496	1	-7
684.682	1	11
685.867	1	1
687.053	1	6
688.238	1	1
688.746	1	7