Folder: cryo-il_analysis/Analysis/GaN_68K_200ms (part 17)

File: GaN_sample E_spot4_UVVIS_68 K_200um_200 ms 2x2mm1_328.txt
340.368	1	0
341.565	1	-4
342.763	1	5
343.960	1	-10
345.157	1	17
346.354	1	1
347.552	1	-9
348.749	1	6
349.946	1	8
351.143	1	-12
352.340	1	2
353.537	1	-3
354.734	1	1
355.931	1	-4
357.127	1	-2
358.324	1	-6
359.521	1	-1
360.718	1	4
361.914	1	7
363.111	1	15
364.308	1	2
365.504	1	1
366.701	1	-7
367.897	1	12
369.093	1	10
370.290	1	6
371.486	1	14
372.682	1	5
373.879	1	9
375.075	1	13
376.271	1	2
377.467	1	-2
378.663	1	1
379.859	1	6
381.055	1	4
382.251	1	7
383.447	1	9
384.643	1	5
385.839	1	14
387.035	1	7
388.230	1	12
389.426	1	11
390.622	1	4
391.817	1	-5
393.013	1	6
394.208	1	17
395.404	1	17
396.599	1	7
397.795	1	15
398.990	1	16
400.186	1	18
401.381	1	10
402.576	1	17
403.771	1	10
404.967	1	17
406.162	1	5
407.357	1	1
408.552	1	6
409.747	1	10
410.942	1	7
412.137	1	16
413.332	1	13
414.526	1	1
415.721	1	-2
416.916	1	1
418.111	1	0
419.305	1	0
420.500	1	8
421.695	1	-1
422.889	1	13
424.084	1	-2
425.278	1	2
426.472	1	1
427.667	1	17
428.861	1	-3
430.055	1	3
431.250	1	-5
432.444	1	4
433.638	1	5
434.832	1	-7
436.026	1	13
437.220	1	11
438.414	1	-7
439.608	1	6
440.802	1	5
441.996	1	9
443.190	1	-5
444.384	1	4
445.578	1	11
446.771	1	2
447.965	1	-2
449.159	1	4
450.352	1	10
451.546	1	6
452.739	1	6
453.933	1	12
455.126	1	4
456.320	1	6
457.513	1	-3
458.706	1	-8
459.899	1	10
461.093	1	6
462.286	1	9
463.479	1	6
464.672	1	-1
465.865	1	-3
467.058	1	14
468.251	1	4
469.444	1	3
470.637	1	15
471.830	1	20
473.023	1	2
474.215	1	-7
475.408	1	-1
476.601	1	5
477.793	1	9
478.986	1	-2
480.179	1	4
481.371	1	1
482.564	1	-9
483.756	1	11
484.948	1	-6
486.141	1	-4
487.333	1	1
488.525	1	-2
489.718	1	5
490.910	1	1
492.102	1	-2
493.294	1	13
494.486	1	2
495.678	1	9
496.870	1	2
498.062	1	-4
499.254	1	7
500.446	1	10
501.638	1	2
502.829	1	7
504.021	1	23
505.213	1	3
506.404	1	-2
507.596	1	7
508.788	1	0
509.979	1	1
511.171	1	15
512.362	1	1
513.553	1	-3
514.745	1	2
515.936	1	3
517.127	1	5
518.319	1	7
519.510	1	8
520.701	1	11
521.892	1	-6
523.083	1	5
524.274	1	-8
525.465	1	7
526.656	1	18
527.847	1	0
529.038	1	8
530.229	1	9
531.419	1	21
532.610	1	1
533.801	1	5
534.991	1	2
536.182	1	9
537.373	1	-3
538.563	1	-2
539.754	1	4
540.944	1	9
542.134	1	11
543.325	1	3
544.515	1	0
545.705	1	12
546.896	1	1
548.086	1	13
549.276	1	8
550.466	1	6
551.656	1	-3
552.846	1	12
554.036	1	3
555.226	1	6
556.416	1	4
557.606	1	0
558.796	1	11
559.986	1	-2
561.175	1	3
562.365	1	10
563.555	1	11
564.744	1	10
565.934	1	15
567.123	1	15
568.313	1	-1
569.502	1	-6
570.692	1	9
571.881	1	8
573.070	1	13
574.260	1	6
575.449	1	7
576.638	1	7
577.827	1	7
579.016	1	12
580.205	1	11
581.394	1	0
582.583	1	-6
583.772	1	2
584.961	1	11
586.150	1	11
587.339	1	11
588.528	1	12
589.717	1	2
590.905	1	4
592.094	1	1
593.283	1	1
594.471	1	3
595.660	1	3
596.848	1	2
598.037	1	7
599.225	1	7
600.413	1	-1
601.602	1	4
602.790	1	1
603.978	1	4
605.166	1	1
606.355	1	0
607.543	1	-6
608.731	1	-3
609.919	1	-13
611.107	1	9
612.295	1	-6
613.483	1	10
614.671	1	-2
615.858	1	8
617.046	1	0
618.234	1	5
619.422	1	0
620.609	1	1
621.797	1	-1
622.985	1	8
624.172	1	16
625.360	1	-13
626.547	1	7
627.735	1	2
628.922	1	3
630.109	1	-3
631.297	1	-5
632.484	1	6
633.671	1	5
634.858	1	10
636.045	1	-3
637.232	1	-3
638.419	1	-1
639.606	1	3
640.793	1	13
641.980	1	-3
643.167	1	7
644.354	1	-1
645.541	1	-7
646.728	1	11
647.914	1	0
649.101	1	4
650.288	1	-7
651.474	1	8
652.661	1	4
653.847	1	5
655.034	1	7
656.220	1	13
657.406	1	-2
658.593	1	-4
659.779	1	0
660.965	1	8
662.152	1	-2
663.338	1	1
664.524	1	-7
665.710	1	-8
666.896	1	5
668.082	1	2
669.268	1	1
670.454	1	1
671.640	1	-9
672.826	1	-12
674.011	1	11
675.197	1	3
676.383	1	7
677.569	1	0
678.754	1	7
679.940	1	-4
681.125	1	9
682.311	1	6
683.496	1	0
684.682	1	9
685.867	1	-3
687.053	1	8
688.238	1	-6
688.746	1	3

File: GaN_sample E_spot4_UVVIS_68 K_200um_200 ms 2x2mm1_338.txt
340.368	1	-5
341.565	1	2
342.763	1	1
343.960	1	1
345.157	1	7
346.354	1	-9
347.552	1	9
348.749	1	-4
349.946	1	11
351.143	1	-2
352.340	1	-3
353.537	1	-4
354.734	1	3
355.931	1	8
357.127	1	5
358.324	1	-2
359.521	1	-2
360.718	1	-7
361.914	1	-3
363.111	1	5
364.308	1	5
365.504	1	3
366.701	1	-2
367.897	1	-8
369.093	1	7
370.290	1	4
371.486	1	1
372.682	1	-2
373.879	1	13
375.075	1	10
376.271	1	-1
377.467	1	7
378.663	1	-3
379.859	1	2
381.055	1	3
382.251	1	4
383.447	1	12
384.643	1	10
385.839	1	13
387.035	1	-7
388.230	1	1
389.426	1	14
390.622	1	-1
391.817	1	-1
393.013	1	14
394.208	1	11
395.404	1	12
396.599	1	15
397.795	1	10
398.990	1	11
400.186	1	17
401.381	1	12
402.576	1	16
403.771	1	7
404.967	1	3
406.162	1	1
407.357	1	4
408.552	1	7
409.747	1	6
410.942	1	9
412.137	1	13
413.332	1	2
414.526	1	-5
415.721	1	13
416.916	1	-1
418.111	1	-2
419.305	1	6
420.500	1	9
421.695	1	-8
422.889	1	8
424.084	1	2
425.278	1	-3
426.472	1	12
427.667	1	8
428.861	1	6
430.055	1	0
431.250	1	3
432.444	1	10
433.638	1	2
434.832	1	0
436.026	1	6
437.220	1	17
438.414	1	11
439.608	1	2
440.802	1	7
441.996	1	2
443.190	1	-4
444.384	1	4
445.578	1	18
446.771	1	4
447.965	1	-2
449.159	1	-5
450.352	1	6
451.546	1	0
452.739	1	9
453.933	1	13
455.126	1	11
456.320	1	4
457.513	1	9
458.706	1	6
459.899	1	7
461.093	1	3
462.286	1	5
463.479	1	10
464.672	1	-1
465.865	1	1
467.058	1	9
468.251	1	-1
469.444	1	0
470.637	1	9
471.830	1	14
473.023	1	-6
474.215	1	1
475.408	1	0
476.601	1	1
477.793	1	7
478.986	1	4
480.179	1	-1
481.371	1	6
482.564	1	1
483.756	1	9
484.948	1	-2
486.141	1	-5
487.333	1	14
488.525	1	1
489.718	1	-6
490.910	1	-2
492.102	1	-2
493.294	1	16
494.486	1	9
495.678	1	9
496.870	1	0
498.062	1	-6
499.254	1	-5
500.446	1	11
501.638	1	12
502.829	1	8
504.021	1	14
505.213	1	-4
506.404	1	4
507.596	1	14
508.788	1	1
509.979	1	6
511.171	1	15
512.362	1	11
513.553	1	2
514.745	1	6
515.936	1	10
517.127	1	-2
518.319	1	0
519.510	1	2
520.701	1	-2
521.892	1	0
523.083	1	14
524.274	1	4
525.465	1	1
526.656	1	22
527.847	1	0
529.038	1	7
530.229	1	7
531.419	1	15
532.610	1	1
533.801	1	6
534.991	1	9
536.182	1	4
537.373	1	3
538.563	1	6
539.754	1	-1
540.944	1	-7
542.134	1	14
543.325	1	2
544.515	1	8
545.705	1	10
546.896	1	3
548.086	1	6
549.276	1	14
550.466	1	10
551.656	1	-6
552.846	1	7
554.036	1	2
555.226	1	0
556.416	1	2
557.606	1	-3
558.796	1	4
559.986	1	-3
561.175	1	2
562.365	1	8
563.555	1	15
564.744	1	12
565.934	1	7
567.123	1	19
568.313	1	-3
569.502	1	11
570.692	1	2
571.881	1	12
573.070	1	17
574.260	1	7
575.449	1	8
576.638	1	6
577.827	1	7
579.016	1	15
580.205	1	5
581.394	1	1
582.583	1	-3
583.772	1	1
584.961	1	-1
586.150	1	2
587.339	1	-4
588.528	1	4
589.717	1	2
590.905	1	-8
592.094	1	10
593.283	1	4
594.471	1	0
595.660	1	3
596.848	1	3
598.037	1	-2
599.225	1	10
600.413	1	0
601.602	1	0
602.790	1	-2
603.978	1	6
605.166	1	-6
606.355	1	11
607.543	1	-4
608.731	1	-4
609.919	1	5
611.107	1	10
612.295	1	1
613.483	1	17
614.671	1	12
615.858	1	5
617.046	1	1
618.234	1	-1
619.422	1	-1
620.609	1	2
621.797	1	4
622.985	1	5
624.172	1	10
625.360	1	-4
626.547	1	-4
627.735	1	-3
628.922	1	-6
630.109	1	-2
631.297	1	-4
632.484	1	-1
633.671	1	8
634.858	1	10
636.045	1	3
637.232	1	-7
638.419	1	-1
639.606	1	15
640.793	1	6
641.980	1	1
643.167	1	3
644.354	1	1
645.541	1	-12
646.728	1	6
647.914	1	-7
649.101	1	8
650.288	1	-6
651.474	1	8
652.661	1	5
653.847	1	5
655.034	1	-1
656.220	1	8
657.406	1	11
658.593	1	-11
659.779	1	5
660.965	1	-5
662.152	1	4
663.338	1	-1
664.524	1	0
665.710	1	-7
666.896	1	-5
668.082	1	0
669.268	1	5
670.454	1	9
671.640	1	-12
672.826	1	-10
674.011	1	9
675.197	1	-4
676.383	1	-7
677.569	1	3
678.754	1	-8
679.940	1	5
681.125	1	7
682.311	1	-4
683.496	1	-10
684.682	1	9
685.867	1	1
687.053	1	5
688.238	1	2
688.746	1	1

File: GaN_sample E_spot4_UVVIS_68 K_200um_200 ms 2x2mm1_350.txt
340.368	1	0
341.565	1	1
342.763	1	4
343.960	1	0
345.157	1	12
346.354	1	-7
347.552	1	-5
348.749	1	0
349.946	1	10
351.143	1	-4
352.340	1	-1
353.537	1	-1
354.734	1	8
355.931	1	-4
357.127	1	3
358.324	1	3
359.521	1	-4
360.718	1	2
361.914	1	-6
363.111	1	7
364.308	1	-3
365.504	1	-5
366.701	1	-6
367.897	1	-2
369.093	1	4
370.290	1	-1
371.486	1	13
372.682	1	-10
373.879	1	4
375.075	1	11
376.271	1	-8
377.467	1	6
378.663	1	1
379.859	1	-14
381.055	1	0
382.251	1	4
383.447	1	13
384.643	1	7
385.839	1	14
387.035	1	1
388.230	1	4
389.426	1	15
390.622	1	0
391.817	1	-4
393.013	1	19
394.208	1	8
395.404	1	7
396.599	1	4
397.795	1	15
398.990	1	22
400.186	1	18
401.381	1	17
402.576	1	9
403.771	1	14
404.967	1	7
406.162	1	8
407.357	1	6
408.552	1	7
409.747	1	-7
410.942	1	10
412.137	1	14
413.332	1	2
414.526	1	5
415.721	1	5
416.916	1	1
418.111	1	8
419.305	1	-2
420.500	1	9
421.695	1	5
422.889	1	6
424.084	1	4
425.278	1	-5
426.472	1	4
427.667	1	6
428.861	1	-4
430.055	1	1
431.250	1	-9
432.444	1	7
433.638	1	-9
434.832	1	-12
436.026	1	-2
437.220	1	8
438.414	1	2
439.608	1	9
440.802	1	8
441.996	1	-1
443.190	1	-8
444.384	1	2
445.578	1	15
446.771	1	-4
447.965	1	-3
449.159	1	-1
450.352	1	6
451.546	1	-5
452.739	1	0
453.933	1	11
455.126	1	7
456.320	1	2
457.513	1	8
458.706	1	2
459.899	1	9
461.093	1	1
462.286	1	14
463.479	1	11
464.672	1	3
465.865	1	1
467.058	1	5
468.251	1	2
469.444	1	-4
470.637	1	15
471.830	1	15
473.023	1	1
474.215	1	-3
475.408	1	-3
476.601	1	4
477.793	1	1
478.986	1	0
480.179	1	8
481.371	1	4
482.564	1	-10
483.756	1	6
484.948	1	-3
486.141	1	-2
487.333	1	0
488.525	1	-1
489.718	1	-5
490.910	1	-8
492.102	1	0
493.294	1	0
494.486	1	0
495.678	1	5
496.870	1	6
498.062	1	3
499.254	1	1
500.446	1	-1
501.638	1	10
502.829	1	1
504.021	1	16
505.213	1	-1
506.404	1	3
507.596	1	7
508.788	1	3
509.979	1	-4
511.171	1	8
512.362	1	5
513.553	1	1
514.745	1	5
515.936	1	-1
517.127	1	7
518.319	1	2
519.510	1	0
520.701	1	8
521.892	1	-11
523.083	1	0
524.274	1	-1
525.465	1	5
526.656	1	13
527.847	1	1
529.038	1	2
530.229	1	10
531.419	1	8
532.610	1	6
533.801	1	-4
534.991	1	12
536.182	1	15
537.373	1	3
538.563	1	-1
539.754	1	-2
540.944	1	2
542.134	1	13
543.325	1	1
544.515	1	4
545.705	1	9
546.896	1	4
548.086	1	11
549.276	1	10
550.466	1	4
551.656	1	-5
552.846	1	9
554.036	1	7
555.226	1	1
556.416	1	11
557.606	1	5
558.796	1	9
559.986	1	6
561.175	1	6
562.365	1	-5
563.555	1	11
564.744	1	9
565.934	1	12
567.123	1	15
568.313	1	2
569.502	1	1
570.692	1	6
571.881	1	0
573.070	1	2
574.260	1	-6
575.449	1	3
576.638	1	-5
577.827	1	4
579.016	1	13
580.205	1	7
581.394	1	-4
582.583	1	-6
583.772	1	1
584.961	1	3
586.150	1	0
587.339	1	9
588.528	1	6
589.717	1	-4
590.905	1	6
592.094	1	10
593.283	1	4
594.471	1	7
595.660	1	7
596.848	1	10
598.037	1	8
599.225	1	-2
600.413	1	0
601.602	1	10
602.790	1	3
603.978	1	1
605.166	1	5
606.355	1	13
607.543	1	-7
608.731	1	-2
609.919	1	-10
611.107	1	7
612.295	1	7
613.483	1	8
614.671	1	-3
615.858	1	8
617.046	1	5
618.234	1	4
619.422	1	-5
620.609	1	7
621.797	1	5
622.985	1	5
624.172	1	16
625.360	1	-3
626.547	1	1
627.735	1	6
628.922	1	3
630.109	1	0
631.297	1	11
632.484	1	-14
633.671	1	4
634.858	1	8
636.045	1	1
637.232	1	7
638.419	1	8
639.606	1	7
640.793	1	10
641.980	1	-1
643.167	1	9
644.354	1	3
645.541	1	-6
646.728	1	11
647.914	1	-5
649.101	1	7
650.288	1	5
651.474	1	12
652.661	1	5
653.847	1	1
655.034	1	-6
656.220	1	9
657.406	1	8
658.593	1	3
659.779	1	-1
660.965	1	4
662.152	1	0
663.338	1	3
664.524	1	-8
665.710	1	-9
666.896	1	6
668.082	1	1
669.268	1	-2
670.454	1	9
671.640	1	-15
672.826	1	-8
674.011	1	7
675.197	1	-9
676.383	1	0
677.569	1	0
678.754	1	2
679.940	1	0
681.125	1	4
682.311	1	-6
683.496	1	-3
684.682	1	-3
685.867	1	4
687.053	1	5
688.238	1	6
688.746	1	2

File: GaN_sample E_spot4_UVVIS_68 K_200um_200 ms 2x2mm1_354.txt
340.368	1	12
341.565	1	-11
342.763	1	1
343.960	1	-2
345.157	1	4
346.354	1	-7
347.552	1	-1
348.749	1	3
349.946	1	7
351.143	1	1
352.340	1	7
353.537	1	1
354.734	1	-3
355.931	1	5
357.127	1	-4
358.324	1	5
359.521	1	2
360.718	1	9
361.914	1	-3
363.111	1	14
364.308	1	-2
365.504	1	3
366.701	1	-2
367.897	1	9
369.093	1	2
370.290	1	-2
371.486	1	8
372.682	1	7
373.879	1	9
375.075	1	8
376.271	1	-7
377.467	1	-5
378.663	1	-4
379.859	1	1
381.055	1	7
382.251	1	-1
383.447	1	15
384.643	1	0
385.839	1	8
387.035	1	0
388.230	1	1
389.426	1	13
390.622	1	-5
391.817	1	5
393.013	1	5
394.208	1	2
395.404	1	11
396.599	1	5
397.795	1	4
398.990	1	15
400.186	1	16
401.381	1	2
402.576	1	16
403.771	1	17
404.967	1	4
406.162	1	2
407.357	1	12
408.552	1	21
409.747	1	0
410.942	1	6
412.137	1	16
413.332	1	4
414.526	1	6
415.721	1	3
416.916	1	0
418.111	1	-2
419.305	1	3
420.500	1	5
421.695	1	-4
422.889	1	17
424.084	1	13
425.278	1	-13
426.472	1	5
427.667	1	8
428.861	1	8
430.055	1	-1
431.250	1	-15
432.444	1	2
433.638	1	6
434.832	1	1
436.026	1	2
437.220	1	0
438.414	1	11
439.608	1	8
440.802	1	16
441.996	1	1
443.190	1	-7
444.384	1	7
445.578	1	13
446.771	1	-9
447.965	1	1
449.159	1	-1
450.352	1	4
451.546	1	4
452.739	1	7
453.933	1	6
455.126	1	1
456.320	1	-8
457.513	1	12
458.706	1	10
459.899	1	14
461.093	1	2
462.286	1	8
463.479	1	12
464.672	1	-2
465.865	1	-3
467.058	1	7
468.251	1	-6
469.444	1	0
470.637	1	14
471.830	1	11
473.023	1	-1
474.215	1	3
475.408	1	-1
476.601	1	1
477.793	1	4
478.986	1	-5
480.179	1	0
481.371	1	-3
482.564	1	-7
483.756	1	5
484.948	1	-2
486.141	1	-11
487.333	1	-4
488.525	1	0
489.718	1	-4
490.910	1	0
492.102	1	-3
493.294	1	6
494.486	1	-1
495.678	1	18
496.870	1	1
498.062	1	0
499.254	1	5
500.446	1	5
501.638	1	7
502.829	1	4
504.021	1	20
505.213	1	8
506.404	1	4
507.596	1	10
508.788	1	9
509.979	1	0
511.171	1	14
512.362	1	1
513.553	1	-12
514.745	1	-3
515.936	1	1
517.127	1	4
518.319	1	5
519.510	1	-3
520.701	1	13
521.892	1	-9
523.083	1	0
524.274	1	2
525.465	1	7
526.656	1	19
527.847	1	1
529.038	1	7
530.229	1	7
531.419	1	8
532.610	1	4
533.801	1	11
534.991	1	4
536.182	1	5
537.373	1	-7
538.563	1	6
539.754	1	1
540.944	1	4
542.134	1	18
543.325	1	3
544.515	1	9
545.705	1	0
546.896	1	1
548.086	1	10
549.276	1	12
550.466	1	-11
551.656	1	-11
552.846	1	-1
554.036	1	9
555.226	1	3
556.416	1	-2
557.606	1	-4
558.796	1	-2
559.986	1	2
561.175	1	0
562.365	1	22
563.555	1	12
564.744	1	3
565.934	1	7
567.123	1	11
568.313	1	-3
569.502	1	5
570.692	1	12
571.881	1	11
573.070	1	10
574.260	1	4
575.449	1	-2
576.638	1	-1
577.827	1	2
579.016	1	16
580.205	1	13
581.394	1	-8
582.583	1	-2
583.772	1	5
584.961	1	11
586.150	1	5
587.339	1	-2
588.528	1	6
589.717	1	2
590.905	1	2
592.094	1	2
593.283	1	5
594.471	1	3
595.660	1	-10
596.848	1	2
598.037	1	-3
599.225	1	3
600.413	1	-4
601.602	1	6
602.790	1	-5
603.978	1	1
605.166	1	-2
606.355	1	5
607.543	1	-8
608.731	1	-6
609.919	1	-6
611.107	1	8
612.295	1	-3
613.483	1	6
614.671	1	2
615.858	1	6
617.046	1	4
618.234	1	10
619.422	1	8
620.609	1	-1
621.797	1	10
622.985	1	-5
624.172	1	18
625.360	1	-6
626.547	1	-1
627.735	1	1
628.922	1	-7
630.109	1	-2
631.297	1	0
632.484	1	-1
633.671	1	2
634.858	1	11
636.045	1	5
637.232	1	10
638.419	1	10
639.606	1	12
640.793	1	4
641.980	1	4
643.167	1	3
644.354	1	-2
645.541	1	-3
646.728	1	9
647.914	1	2
649.101	1	-1
650.288	1	-1
651.474	1	8
652.661	1	0
653.847	1	5
655.034	1	5
656.220	1	0
657.406	1	12
658.593	1	-4
659.779	1	-3
660.965	1	2
662.152	1	-1
663.338	1	0
664.524	1	-13
665.710	1	1
666.896	1	-3
668.082	1	9
669.268	1	-4
670.454	1	-4
671.640	1	-10
672.826	1	-14
674.011	1	11
675.197	1	-1
676.383	1	-1
677.569	1	-9
678.754	1	5
679.940	1	2
681.125	1	6
682.311	1	5
683.496	1	-6
684.682	1	3
685.867	1	-4
687.053	1	-2
688.238	1	-1
688.746	1	5

File: GaN_sample E_spot4_UVVIS_68 K_200um_200 ms 2x2mm1_357.txt
340.368	1	0
341.565	1	-2
342.763	1	-1
343.960	1	1
345.157	1	7
346.354	1	2
347.552	1	1
348.749	1	6
349.946	1	14
351.143	1	-9
352.340	1	-4
353.537	1	0
354.734	1	4
355.931	1	4
357.127	1	5
358.324	1	1
359.521	1	-2
360.718	1	-1
361.914	1	1
363.111	1	12
364.308	1	9
365.504	1	6
366.701	1	-5
367.897	1	9
369.093	1	1
370.290	1	-1
371.486	1	10
372.682	1	-10
373.879	1	10
375.075	1	2
376.271	1	-3
377.467	1	2
378.663	1	6
379.859	1	-2
381.055	1	5
382.251	1	7
383.447	1	14
384.643	1	8
385.839	1	8
387.035	1	2
388.230	1	12
389.426	1	13
390.622	1	15
391.817	1	0
393.013	1	15
394.208	1	11
395.404	1	6
396.599	1	22
397.795	1	13
398.990	1	12
400.186	1	17
401.381	1	13
402.576	1	15
403.771	1	17
404.967	1	4
406.162	1	-2
407.357	1	8
408.552	1	9
409.747	1	5
410.942	1	7
412.137	1	4
413.332	1	2
414.526	1	1
415.721	1	8
416.916	1	-3
418.111	1	9
419.305	1	12
420.500	1	0
421.695	1	8
422.889	1	7
424.084	1	6
425.278	1	5
426.472	1	5
427.667	1	9
428.861	1	5
430.055	1	10
431.250	1	-6
432.444	1	9
433.638	1	5
434.832	1	2
436.026	1	2
437.220	1	0
438.414	1	3
439.608	1	8
440.802	1	5
441.996	1	1
443.190	1	-14
444.384	1	10
445.578	1	12
446.771	1	2
447.965	1	-5
449.159	1	4
450.352	1	7
451.546	1	5
452.739	1	0
453.933	1	3
455.126	1	-8
456.320	1	-9
457.513	1	3
458.706	1	0
459.899	1	9
461.093	1	14
462.286	1	7
463.479	1	13
464.672	1	-4
465.865	1	5
467.058	1	14
468.251	1	-2
469.444	1	2
470.637	1	8
471.830	1	15
473.023	1	-2
474.215	1	-8
475.408	1	7
476.601	1	-7
477.793	1	15
478.986	1	1
480.179	1	7
481.371	1	17
482.564	1	2
483.756	1	10
484.948	1	-7
486.141	1	-8
487.333	1	-2
488.525	1	2
489.718	1	4
490.910	1	-6
492.102	1	-8
493.294	1	7
494.486	1	7
495.678	1	7
496.870	1	-2
498.062	1	-11
499.254	1	2
500.446	1	15
501.638	1	6
502.829	1	8
504.021	1	24
505.213	1	6
506.404	1	-9
507.596	1	6
508.788	1	11
509.979	1	-2
511.171	1	11
512.362	1	7
513.553	1	-7
514.745	1	1
515.936	1	6
517.127	1	2
518.319	1	-5
519.510	1	11
520.701	1	12
521.892	1	0
523.083	1	3
524.274	1	-4
525.465	1	-3
526.656	1	19
527.847	1	2
529.038	1	18
530.229	1	8
531.419	1	7
532.610	1	10
533.801	1	-3
534.991	1	6
536.182	1	5
537.373	1	1
538.563	1	1
539.754	1	-4
540.944	1	2
542.134	1	9
543.325	1	0
544.515	1	6
545.705	1	1
546.896	1	3
548.086	1	9
549.276	1	8
550.466	1	0
551.656	1	-12
552.846	1	10
554.036	1	1
555.226	1	-5
556.416	1	5
557.606	1	-4
558.796	1	-5
559.986	1	0
561.175	1	6
562.365	1	10
563.555	1	12
564.744	1	2
565.934	1	12
567.123	1	18
568.313	1	3
569.502	1	-1
570.692	1	8
571.881	1	5
573.070	1	5
574.260	1	6
575.449	1	2
576.638	1	12
577.827	1	18
579.016	1	3
580.205	1	1
581.394	1	-3
582.583	1	-10
583.772	1	5
584.961	1	2
586.150	1	7
587.339	1	-2
588.528	1	12
589.717	1	0
590.905	1	0
592.094	1	-1
593.283	1	9
594.471	1	-4
595.660	1	-2
596.848	1	2
598.037	1	1
599.225	1	0
600.413	1	-2
601.602	1	2
602.790	1	-2
603.978	1	7
605.166	1	-1
606.355	1	12
607.543	1	-4
608.731	1	-7
609.919	1	-1
611.107	1	0
612.295	1	-5
613.483	1	-1
614.671	1	12
615.858	1	2
617.046	1	3
618.234	1	6
619.422	1	0
620.609	1	11
621.797	1	4
622.985	1	1
624.172	1	5
625.360	1	-3
626.547	1	-1
627.735	1	4
628.922	1	-7
630.109	1	-5
631.297	1	-4
632.484	1	0
633.671	1	4
634.858	1	15
636.045	1	-2
637.232	1	-4
638.419	1	4
639.606	1	9
640.793	1	13
641.980	1	1
643.167	1	4
644.354	1	-4
645.541	1	-8
646.728	1	8
647.914	1	-9
649.101	1	0
650.288	1	6
651.474	1	6
652.661	1	3
653.847	1	4
655.034	1	6
656.220	1	2
657.406	1	9
658.593	1	-9
659.779	1	-9
660.965	1	-2
662.152	1	2
663.338	1	-3
664.524	1	-7
665.710	1	-3
666.896	1	0
668.082	1	-1
669.268	1	3
670.454	1	3
671.640	1	-10
672.826	1	-5
674.011	1	8
675.197	1	-1
676.383	1	-6
677.569	1	3
678.754	1	2
679.940	1	0
681.125	1	5
682.311	1	-1
683.496	1	-6
684.682	1	10
685.867	1	3
687.053	1	-7
688.238	1	-5
688.746	1	9

File: GaN_sample E_spot4_UVVIS_68 K_200um_200 ms 2x2mm1_358.txt
340.368	1	5
341.565	1	0
342.763	1	-8
343.960	1	-4
345.157	1	-3
346.354	1	1
347.552	1	-1
348.749	1	-1
349.946	1	7
351.143	1	-10
352.340	1	5
353.537	1	7
354.734	1	-4
355.931	1	0
357.127	1	7
358.324	1	-4
359.521	1	3
360.718	1	-5
361.914	1	-1
363.111	1	3
364.308	1	-1
365.504	1	-6
366.701	1	-2
367.897	1	3
369.093	1	10
370.290	1	-5
371.486	1	8
372.682	1	-5
373.879	1	14
375.075	1	4
376.271	1	5
377.467	1	-4
378.663	1	1
379.859	1	3
381.055	1	0
382.251	1	3
383.447	1	13
384.643	1	12
385.839	1	11
387.035	1	5
388.230	1	-2
389.426	1	9
390.622	1	-2
391.817	1	5
393.013	1	14
394.208	1	8
395.404	1	6
396.599	1	19
397.795	1	6
398.990	1	16
400.186	1	10
401.381	1	12
402.576	1	17
403.771	1	5
404.967	1	5
406.162	1	10
407.357	1	14
408.552	1	5
409.747	1	1
410.942	1	7
412.137	1	9
413.332	1	-4
414.526	1	16
415.721	1	-1
416.916	1	3
418.111	1	4
419.305	1	1
420.500	1	7
421.695	1	3
422.889	1	10
424.084	1	2
425.278	1	-3
426.472	1	3
427.667	1	14
428.861	1	7
430.055	1	-3
431.250	1	-3
432.444	1	1
433.638	1	-1
434.832	1	-5
436.026	1	8
437.220	1	8
438.414	1	1
439.608	1	-1
440.802	1	8
441.996	1	7
443.190	1	-4
444.384	1	10
445.578	1	20
446.771	1	-2
447.965	1	-12
449.159	1	-2
450.352	1	7
451.546	1	2
452.739	1	6
453.933	1	9
455.126	1	4
456.320	1	-1
457.513	1	10
458.706	1	7
459.899	1	10
461.093	1	3
462.286	1	7
463.479	1	13
464.672	1	6
465.865	1	-11
467.058	1	8
468.251	1	-4
469.444	1	5
470.637	1	22
471.830	1	13
473.023	1	-16
474.215	1	7
475.408	1	8
476.601	1	0
477.793	1	4
478.986	1	1
480.179	1	6
481.371	1	0
482.564	1	-13
483.756	1	3
484.948	1	0
486.141	1	-9
487.333	1	2
488.525	1	-14
489.718	1	9
490.910	1	-3
492.102	1	2
493.294	1	6
494.486	1	3
495.678	1	12
496.870	1	1
498.062	1	-5
499.254	1	17
500.446	1	14
501.638	1	3
502.829	1	2
504.021	1	25
505.213	1	-1
506.404	1	-2
507.596	1	4
508.788	1	-2
509.979	1	-4
511.171	1	9
512.362	1	5
513.553	1	-14
514.745	1	1
515.936	1	13
517.127	1	7
518.319	1	-1
519.510	1	0
520.701	1	10
521.892	1	0
523.083	1	7
524.274	1	-2
525.465	1	6
526.656	1	17
527.847	1	-9
529.038	1	7
530.229	1	2
531.419	1	16
532.610	1	7
533.801	1	11
534.991	1	0
536.182	1	2
537.373	1	9
538.563	1	12
539.754	1	-3
540.944	1	-4
542.134	1	9
543.325	1	-6
544.515	1	9
545.705	1	13
546.896	1	6
548.086	1	2
549.276	1	7
550.466	1	2
551.656	1	-3
552.846	1	9
554.036	1	5
555.226	1	6
556.416	1	1
557.606	1	1
558.796	1	-3
559.986	1	-4
561.175	1	-7
562.365	1	11
563.555	1	10
564.744	1	12
565.934	1	7
567.123	1	11
568.313	1	1
569.502	1	2
570.692	1	3
571.881	1	10
573.070	1	8
574.260	1	-5
575.449	1	8
576.638	1	1
577.827	1	13
579.016	1	12
580.205	1	7
581.394	1	-3
582.583	1	2
583.772	1	2
584.961	1	7
586.150	1	-2
587.339	1	1
588.528	1	-2
589.717	1	1
590.905	1	5
592.094	1	5
593.283	1	12
594.471	1	11
595.660	1	-5
596.848	1	2
598.037	1	6
599.225	1	-5
600.413	1	3
601.602	1	3
602.790	1	2
603.978	1	-1
605.166	1	0
606.355	1	7
607.543	1	-7
608.731	1	3
609.919	1	-1
611.107	1	10
612.295	1	2
613.483	1	7
614.671	1	3
615.858	1	1
617.046	1	4
618.234	1	6
619.422	1	-3
620.609	1	9
621.797	1	2
622.985	1	4
624.172	1	21
625.360	1	-7
626.547	1	6
627.735	1	8
628.922	1	5
630.109	1	-10
631.297	1	-7
632.484	1	-6
633.671	1	-8
634.858	1	15
636.045	1	-1
637.232	1	-3
638.419	1	12
639.606	1	12
640.793	1	2
641.980	1	-5
643.167	1	13
644.354	1	-1
645.541	1	-9
646.728	1	12
647.914	1	1
649.101	1	-2
650.288	1	1
651.474	1	3
652.661	1	0
653.847	1	6
655.034	1	9
656.220	1	5
657.406	1	3
658.593	1	-6
659.779	1	-2
660.965	1	9
662.152	1	-2
663.338	1	3
664.524	1	-10
665.710	1	-5
666.896	1	3
668.082	1	-2
669.268	1	-5
670.454	1	-2
671.640	1	-6
672.826	1	-10
674.011	1	11
675.197	1	-4
676.383	1	0
677.569	1	-2
678.754	1	-3
679.940	1	-4
681.125	1	-6
682.311	1	-3
683.496	1	-4
684.682	1	6
685.867	1	2
687.053	1	11
688.238	1	2
688.746	1	2