Folder: cryo-il_analysis/Analysis/GaN_68K_200ms (part 14)

File: GaN_sample E_spot4_UVVIS_68 K_200um_200 ms 2x2mm1_262.txt
340.368	1	2
341.565	1	-1
342.763	1	6
343.960	1	1
345.157	1	17
346.354	1	-5
347.552	1	3
348.749	1	7
349.946	1	5
351.143	1	-14
352.340	1	8
353.537	1	2
354.734	1	4
355.931	1	5
357.127	1	3
358.324	1	3
359.521	1	-1
360.718	1	1
361.914	1	-1
363.111	1	17
364.308	1	6
365.504	1	3
366.701	1	-5
367.897	1	5
369.093	1	5
370.290	1	-5
371.486	1	13
372.682	1	14
373.879	1	14
375.075	1	7
376.271	1	-8
377.467	1	6
378.663	1	2
379.859	1	3
381.055	1	14
382.251	1	8
383.447	1	15
384.643	1	9
385.839	1	17
387.035	1	0
388.230	1	2
389.426	1	26
390.622	1	11
391.817	1	11
393.013	1	17
394.208	1	16
395.404	1	10
396.599	1	12
397.795	1	16
398.990	1	17
400.186	1	15
401.381	1	16
402.576	1	15
403.771	1	14
404.967	1	16
406.162	1	12
407.357	1	6
408.552	1	14
409.747	1	7
410.942	1	13
412.137	1	11
413.332	1	8
414.526	1	5
415.721	1	7
416.916	1	7
418.111	1	11
419.305	1	8
420.500	1	9
421.695	1	4
422.889	1	12
424.084	1	7
425.278	1	0
426.472	1	2
427.667	1	11
428.861	1	1
430.055	1	4
431.250	1	0
432.444	1	14
433.638	1	11
434.832	1	1
436.026	1	11
437.220	1	12
438.414	1	1
439.608	1	0
440.802	1	5
441.996	1	6
443.190	1	-8
444.384	1	8
445.578	1	10
446.771	1	-4
447.965	1	-2
449.159	1	7
450.352	1	13
451.546	1	9
452.739	1	3
453.933	1	15
455.126	1	1
456.320	1	-1
457.513	1	6
458.706	1	5
459.899	1	12
461.093	1	8
462.286	1	6
463.479	1	13
464.672	1	10
465.865	1	1
467.058	1	9
468.251	1	0
469.444	1	6
470.637	1	7
471.830	1	12
473.023	1	-1
474.215	1	-2
475.408	1	-4
476.601	1	2
477.793	1	8
478.986	1	-7
480.179	1	1
481.371	1	5
482.564	1	-1
483.756	1	16
484.948	1	-2
486.141	1	-10
487.333	1	2
488.525	1	3
489.718	1	10
490.910	1	2
492.102	1	6
493.294	1	10
494.486	1	8
495.678	1	14
496.870	1	-1
498.062	1	5
499.254	1	5
500.446	1	9
501.638	1	5
502.829	1	6
504.021	1	22
505.213	1	-1
506.404	1	4
507.596	1	4
508.788	1	3
509.979	1	12
511.171	1	18
512.362	1	10
513.553	1	0
514.745	1	4
515.936	1	6
517.127	1	8
518.319	1	-2
519.510	1	7
520.701	1	13
521.892	1	1
523.083	1	11
524.274	1	0
525.465	1	10
526.656	1	16
527.847	1	5
529.038	1	19
530.229	1	14
531.419	1	17
532.610	1	13
533.801	1	6
534.991	1	4
536.182	1	8
537.373	1	7
538.563	1	11
539.754	1	4
540.944	1	6
542.134	1	17
543.325	1	-1
544.515	1	5
545.705	1	9
546.896	1	8
548.086	1	13
549.276	1	4
550.466	1	6
551.656	1	-1
552.846	1	2
554.036	1	9
555.226	1	-4
556.416	1	2
557.606	1	-6
558.796	1	12
559.986	1	7
561.175	1	-9
562.365	1	13
563.555	1	14
564.744	1	9
565.934	1	13
567.123	1	17
568.313	1	-3
569.502	1	9
570.692	1	7
571.881	1	14
573.070	1	11
574.260	1	1
575.449	1	8
576.638	1	9
577.827	1	11
579.016	1	14
580.205	1	2
581.394	1	-2
582.583	1	1
583.772	1	5
584.961	1	12
586.150	1	-1
587.339	1	4
588.528	1	3
589.717	1	7
590.905	1	12
592.094	1	4
593.283	1	4
594.471	1	16
595.660	1	-5
596.848	1	11
598.037	1	7
599.225	1	0
600.413	1	10
601.602	1	12
602.790	1	-3
603.978	1	4
605.166	1	-2
606.355	1	10
607.543	1	0
608.731	1	-5
609.919	1	-6
611.107	1	13
612.295	1	2
613.483	1	7
614.671	1	13
615.858	1	6
617.046	1	0
618.234	1	4
619.422	1	5
620.609	1	1
621.797	1	5
622.985	1	7
624.172	1	17
625.360	1	1
626.547	1	9
627.735	1	3
628.922	1	0
630.109	1	7
631.297	1	-1
632.484	1	-3
633.671	1	2
634.858	1	2
636.045	1	5
637.232	1	6
638.419	1	15
639.606	1	13
640.793	1	10
641.980	1	4
643.167	1	17
644.354	1	-2
645.541	1	-7
646.728	1	7
647.914	1	0
649.101	1	4
650.288	1	-4
651.474	1	5
652.661	1	0
653.847	1	1
655.034	1	-1
656.220	1	5
657.406	1	4
658.593	1	-2
659.779	1	2
660.965	1	6
662.152	1	7
663.338	1	2
664.524	1	-7
665.710	1	1
666.896	1	-3
668.082	1	1
669.268	1	2
670.454	1	-1
671.640	1	-14
672.826	1	-12
674.011	1	3
675.197	1	5
676.383	1	-9
677.569	1	-9
678.754	1	5
679.940	1	2
681.125	1	7
682.311	1	10
683.496	1	-5
684.682	1	4
685.867	1	9
687.053	1	5
688.238	1	-1
688.746	1	4

File: GaN_sample E_spot4_UVVIS_68 K_200um_200 ms 2x2mm1_265.txt
340.368	1	9
341.565	1	-8
342.763	1	-1
343.960	1	0
345.157	1	-1
346.354	1	0
347.552	1	5
348.749	1	3
349.946	1	9
351.143	1	-3
352.340	1	1
353.537	1	-5
354.734	1	5
355.931	1	4
357.127	1	14
358.324	1	3
359.521	1	-8
360.718	1	5
361.914	1	10
363.111	1	9
364.308	1	3
365.504	1	4
366.701	1	3
367.897	1	0
369.093	1	8
370.290	1	7
371.486	1	14
372.682	1	10
373.879	1	13
375.075	1	11
376.271	1	2
377.467	1	5
378.663	1	2
379.859	1	1
381.055	1	8
382.251	1	8
383.447	1	19
384.643	1	16
385.839	1	12
387.035	1	8
388.230	1	9
389.426	1	13
390.622	1	10
391.817	1	2
393.013	1	11
394.208	1	15
395.404	1	14
396.599	1	17
397.795	1	8
398.990	1	20
400.186	1	19
401.381	1	5
402.576	1	14
403.771	1	19
404.967	1	7
406.162	1	10
407.357	1	12
408.552	1	9
409.747	1	4
410.942	1	11
412.137	1	6
413.332	1	2
414.526	1	8
415.721	1	12
416.916	1	6
418.111	1	5
419.305	1	2
420.500	1	10
421.695	1	8
422.889	1	12
424.084	1	10
425.278	1	-6
426.472	1	8
427.667	1	14
428.861	1	-2
430.055	1	5
431.250	1	-4
432.444	1	8
433.638	1	9
434.832	1	2
436.026	1	0
437.220	1	6
438.414	1	16
439.608	1	11
440.802	1	7
441.996	1	-1
443.190	1	-5
444.384	1	8
445.578	1	19
446.771	1	5
447.965	1	-4
449.159	1	3
450.352	1	15
451.546	1	7
452.739	1	2
453.933	1	10
455.126	1	-2
456.320	1	6
457.513	1	5
458.706	1	6
459.899	1	7
461.093	1	11
462.286	1	12
463.479	1	8
464.672	1	5
465.865	1	1
467.058	1	15
468.251	1	2
469.444	1	3
470.637	1	13
471.830	1	6
473.023	1	-2
474.215	1	2
475.408	1	5
476.601	1	-1
477.793	1	10
478.986	1	10
480.179	1	2
481.371	1	5
482.564	1	0
483.756	1	13
484.948	1	-8
486.141	1	-5
487.333	1	3
488.525	1	5
489.718	1	-3
490.910	1	-7
492.102	1	7
493.294	1	8
494.486	1	9
495.678	1	17
496.870	1	13
498.062	1	-1
499.254	1	1
500.446	1	13
501.638	1	2
502.829	1	2
504.021	1	21
505.213	1	4
506.404	1	4
507.596	1	12
508.788	1	5
509.979	1	3
511.171	1	9
512.362	1	7
513.553	1	-2
514.745	1	-1
515.936	1	5
517.127	1	10
518.319	1	5
519.510	1	1
520.701	1	11
521.892	1	0
523.083	1	11
524.274	1	-2
525.465	1	11
526.656	1	12
527.847	1	-2
529.038	1	18
530.229	1	16
531.419	1	16
532.610	1	7
533.801	1	3
534.991	1	6
536.182	1	8
537.373	1	3
538.563	1	3
539.754	1	5
540.944	1	3
542.134	1	17
543.325	1	2
544.515	1	9
545.705	1	9
546.896	1	13
548.086	1	7
549.276	1	12
550.466	1	4
551.656	1	9
552.846	1	12
554.036	1	9
555.226	1	5
556.416	1	11
557.606	1	2
558.796	1	2
559.986	1	7
561.175	1	7
562.365	1	8
563.555	1	9
564.744	1	6
565.934	1	7
567.123	1	20
568.313	1	-4
569.502	1	0
570.692	1	5
571.881	1	9
573.070	1	4
574.260	1	8
575.449	1	4
576.638	1	15
577.827	1	16
579.016	1	14
580.205	1	8
581.394	1	0
582.583	1	-2
583.772	1	-1
584.961	1	9
586.150	1	4
587.339	1	5
588.528	1	8
589.717	1	14
590.905	1	9
592.094	1	3
593.283	1	16
594.471	1	2
595.660	1	2
596.848	1	11
598.037	1	2
599.225	1	8
600.413	1	10
601.602	1	10
602.790	1	3
603.978	1	5
605.166	1	0
606.355	1	11
607.543	1	-4
608.731	1	-9
609.919	1	-2
611.107	1	12
612.295	1	3
613.483	1	10
614.671	1	-1
615.858	1	8
617.046	1	7
618.234	1	4
619.422	1	0
620.609	1	1
621.797	1	8
622.985	1	3
624.172	1	16
625.360	1	-1
626.547	1	1
627.735	1	6
628.922	1	-2
630.109	1	12
631.297	1	-1
632.484	1	-6
633.671	1	8
634.858	1	-6
636.045	1	4
637.232	1	3
638.419	1	9
639.606	1	16
640.793	1	9
641.980	1	4
643.167	1	11
644.354	1	-3
645.541	1	-5
646.728	1	15
647.914	1	-3
649.101	1	0
650.288	1	-2
651.474	1	3
652.661	1	9
653.847	1	7
655.034	1	-1
656.220	1	9
657.406	1	9
658.593	1	-8
659.779	1	-3
660.965	1	5
662.152	1	-7
663.338	1	-1
664.524	1	-2
665.710	1	-4
666.896	1	4
668.082	1	5
669.268	1	0
670.454	1	1
671.640	1	-12
672.826	1	-6
674.011	1	11
675.197	1	-1
676.383	1	5
677.569	1	5
678.754	1	2
679.940	1	2
681.125	1	17
682.311	1	-4
683.496	1	-3
684.682	1	10
685.867	1	-1
687.053	1	5
688.238	1	3
688.746	1	4

File: GaN_sample E_spot4_UVVIS_68 K_200um_200 ms 2x2mm1_272.txt
340.368	1	-1
341.565	1	-7
342.763	1	-1
343.960	1	-2
345.157	1	6
346.354	1	2
347.552	1	-2
348.749	1	2
349.946	1	11
351.143	1	-7
352.340	1	1
353.537	1	5
354.734	1	3
355.931	1	7
357.127	1	13
358.324	1	-4
359.521	1	1
360.718	1	0
361.914	1	9
363.111	1	11
364.308	1	8
365.504	1	4
366.701	1	3
367.897	1	12
369.093	1	7
370.290	1	9
371.486	1	11
372.682	1	4
373.879	1	14
375.075	1	13
376.271	1	4
377.467	1	-1
378.663	1	-8
379.859	1	-4
381.055	1	13
382.251	1	4
383.447	1	13
384.643	1	21
385.839	1	16
387.035	1	7
388.230	1	20
389.426	1	17
390.622	1	13
391.817	1	13
393.013	1	22
394.208	1	14
395.404	1	11
396.599	1	21
397.795	1	18
398.990	1	14
400.186	1	23
401.381	1	13
402.576	1	14
403.771	1	9
404.967	1	15
406.162	1	13
407.357	1	8
408.552	1	12
409.747	1	7
410.942	1	9
412.137	1	8
413.332	1	16
414.526	1	9
415.721	1	11
416.916	1	2
418.111	1	11
419.305	1	9
420.500	1	13
421.695	1	7
422.889	1	6
424.084	1	9
425.278	1	1
426.472	1	8
427.667	1	9
428.861	1	3
430.055	1	5
431.250	1	1
432.444	1	11
433.638	1	0
434.832	1	6
436.026	1	1
437.220	1	15
438.414	1	4
439.608	1	-3
440.802	1	8
441.996	1	6
443.190	1	-7
444.384	1	6
445.578	1	7
446.771	1	-2
447.965	1	-1
449.159	1	-3
450.352	1	12
451.546	1	0
452.739	1	4
453.933	1	10
455.126	1	3
456.320	1	-6
457.513	1	3
458.706	1	8
459.899	1	5
461.093	1	9
462.286	1	5
463.479	1	6
464.672	1	-3
465.865	1	-3
467.058	1	13
468.251	1	7
469.444	1	1
470.637	1	9
471.830	1	22
473.023	1	1
474.215	1	3
475.408	1	0
476.601	1	5
477.793	1	4
478.986	1	5
480.179	1	3
481.371	1	2
482.564	1	-7
483.756	1	14
484.948	1	4
486.141	1	-6
487.333	1	7
488.525	1	6
489.718	1	-1
490.910	1	7
492.102	1	-3
493.294	1	8
494.486	1	5
495.678	1	6
496.870	1	9
498.062	1	4
499.254	1	6
500.446	1	7
501.638	1	12
502.829	1	5
504.021	1	21
505.213	1	2
506.404	1	-8
507.596	1	9
508.788	1	11
509.979	1	2
511.171	1	20
512.362	1	12
513.553	1	8
514.745	1	6
515.936	1	5
517.127	1	9
518.319	1	10
519.510	1	0
520.701	1	7
521.892	1	-2
523.083	1	7
524.274	1	-2
525.465	1	14
526.656	1	23
527.847	1	9
529.038	1	16
530.229	1	13
531.419	1	11
532.610	1	9
533.801	1	9
534.991	1	12
536.182	1	7
537.373	1	1
538.563	1	10
539.754	1	4
540.944	1	-4
542.134	1	19
543.325	1	15
544.515	1	3
545.705	1	7
546.896	1	1
548.086	1	15
549.276	1	15
550.466	1	7
551.656	1	5
552.846	1	12
554.036	1	6
555.226	1	-1
556.416	1	-1
557.606	1	-6
558.796	1	4
559.986	1	6
561.175	1	0
562.365	1	10
563.555	1	14
564.744	1	10
565.934	1	10
567.123	1	20
568.313	1	2
569.502	1	3
570.692	1	10
571.881	1	9
573.070	1	14
574.260	1	16
575.449	1	5
576.638	1	7
577.827	1	6
579.016	1	14
580.205	1	8
581.394	1	0
582.583	1	0
583.772	1	-1
584.961	1	7
586.150	1	5
587.339	1	9
588.528	1	1
589.717	1	8
590.905	1	2
592.094	1	-1
593.283	1	-1
594.471	1	9
595.660	1	11
596.848	1	21
598.037	1	-1
599.225	1	1
600.413	1	8
601.602	1	8
602.790	1	-1
603.978	1	4
605.166	1	-2
606.355	1	7
607.543	1	-5
608.731	1	3
609.919	1	2
611.107	1	10
612.295	1	0
613.483	1	9
614.671	1	3
615.858	1	9
617.046	1	10
618.234	1	4
619.422	1	1
620.609	1	0
621.797	1	-2
622.985	1	9
624.172	1	4
625.360	1	-10
626.547	1	3
627.735	1	3
628.922	1	1
630.109	1	-2
631.297	1	-6
632.484	1	0
633.671	1	6
634.858	1	12
636.045	1	7
637.232	1	-4
638.419	1	13
639.606	1	16
640.793	1	7
641.980	1	5
643.167	1	11
644.354	1	3
645.541	1	-2
646.728	1	6
647.914	1	-6
649.101	1	-3
650.288	1	0
651.474	1	6
652.661	1	10
653.847	1	9
655.034	1	-2
656.220	1	7
657.406	1	-4
658.593	1	-3
659.779	1	0
660.965	1	2
662.152	1	12
663.338	1	-10
664.524	1	-4
665.710	1	-6
666.896	1	3
668.082	1	-7
669.268	1	1
670.454	1	-2
671.640	1	-9
672.826	1	-12
674.011	1	14
675.197	1	-1
676.383	1	-5
677.569	1	-2
678.754	1	-1
679.940	1	1
681.125	1	9
682.311	1	1
683.496	1	-3
684.682	1	4
685.867	1	-1
687.053	1	4
688.238	1	6
688.746	1	2

File: GaN_sample E_spot4_UVVIS_68 K_200um_200 ms 2x2mm1_275.txt
340.368	1	5
341.565	1	-1
342.763	1	13
343.960	1	-6
345.157	1	14
346.354	1	-2
347.552	1	5
348.749	1	3
349.946	1	14
351.143	1	-4
352.340	1	3
353.537	1	0
354.734	1	8
355.931	1	-9
357.127	1	8
358.324	1	4
359.521	1	14
360.718	1	-1
361.914	1	12
363.111	1	6
364.308	1	-1
365.504	1	2
366.701	1	2
367.897	1	7
369.093	1	9
370.290	1	6
371.486	1	16
372.682	1	7
373.879	1	27
375.075	1	18
376.271	1	0
377.467	1	2
378.663	1	-3
379.859	1	1
381.055	1	-3
382.251	1	12
383.447	1	13
384.643	1	16
385.839	1	8
387.035	1	5
388.230	1	15
389.426	1	15
390.622	1	9
391.817	1	11
393.013	1	12
394.208	1	7
395.404	1	23
396.599	1	15
397.795	1	9
398.990	1	23
400.186	1	16
401.381	1	7
402.576	1	18
403.771	1	9
404.967	1	11
406.162	1	-2
407.357	1	13
408.552	1	13
409.747	1	2
410.942	1	5
412.137	1	12
413.332	1	4
414.526	1	10
415.721	1	11
416.916	1	10
418.111	1	4
419.305	1	8
420.500	1	8
421.695	1	4
422.889	1	5
424.084	1	8
425.278	1	-1
426.472	1	-2
427.667	1	13
428.861	1	6
430.055	1	-3
431.250	1	-5
432.444	1	8
433.638	1	5
434.832	1	-1
436.026	1	2
437.220	1	7
438.414	1	6
439.608	1	7
440.802	1	5
441.996	1	-3
443.190	1	-4
444.384	1	3
445.578	1	12
446.771	1	3
447.965	1	-4
449.159	1	-11
450.352	1	7
451.546	1	6
452.739	1	3
453.933	1	15
455.126	1	-3
456.320	1	1
457.513	1	6
458.706	1	-2
459.899	1	12
461.093	1	14
462.286	1	5
463.479	1	2
464.672	1	6
465.865	1	5
467.058	1	6
468.251	1	-1
469.444	1	1
470.637	1	13
471.830	1	16
473.023	1	-1
474.215	1	-2
475.408	1	10
476.601	1	5
477.793	1	6
478.986	1	-2
480.179	1	9
481.371	1	5
482.564	1	-9
483.756	1	4
484.948	1	-5
486.141	1	-1
487.333	1	-1
488.525	1	2
489.718	1	0
490.910	1	0
492.102	1	-2
493.294	1	8
494.486	1	10
495.678	1	14
496.870	1	0
498.062	1	-9
499.254	1	12
500.446	1	4
501.638	1	5
502.829	1	6
504.021	1	24
505.213	1	3
506.404	1	0
507.596	1	0
508.788	1	1
509.979	1	6
511.171	1	16
512.362	1	10
513.553	1	-8
514.745	1	3
515.936	1	15
517.127	1	10
518.319	1	2
519.510	1	9
520.701	1	14
521.892	1	4
523.083	1	6
524.274	1	3
525.465	1	14
526.656	1	14
527.847	1	12
529.038	1	14
530.229	1	9
531.419	1	14
532.610	1	6
533.801	1	13
534.991	1	10
536.182	1	2
537.373	1	2
538.563	1	8
539.754	1	2
540.944	1	4
542.134	1	7
543.325	1	7
544.515	1	5
545.705	1	6
546.896	1	8
548.086	1	12
549.276	1	11
550.466	1	4
551.656	1	1
552.846	1	6
554.036	1	6
555.226	1	-1
556.416	1	10
557.606	1	6
558.796	1	8
559.986	1	0
561.175	1	6
562.365	1	4
563.555	1	14
564.744	1	5
565.934	1	20
567.123	1	11
568.313	1	7
569.502	1	10
570.692	1	2
571.881	1	8
573.070	1	9
574.260	1	3
575.449	1	3
576.638	1	4
577.827	1	9
579.016	1	7
580.205	1	6
581.394	1	-2
582.583	1	-6
583.772	1	7
584.961	1	5
586.150	1	11
587.339	1	6
588.528	1	5
589.717	1	8
590.905	1	-1
592.094	1	7
593.283	1	8
594.471	1	7
595.660	1	1
596.848	1	11
598.037	1	12
599.225	1	-1
600.413	1	5
601.602	1	3
602.790	1	9
603.978	1	-3
605.166	1	3
606.355	1	18
607.543	1	-1
608.731	1	-6
609.919	1	7
611.107	1	8
612.295	1	8
613.483	1	10
614.671	1	-1
615.858	1	13
617.046	1	17
618.234	1	5
619.422	1	7
620.609	1	2
621.797	1	10
622.985	1	5
624.172	1	15
625.360	1	-2
626.547	1	4
627.735	1	11
628.922	1	-3
630.109	1	2
631.297	1	-1
632.484	1	-3
633.671	1	-1
634.858	1	14
636.045	1	4
637.232	1	0
638.419	1	7
639.606	1	12
640.793	1	5
641.980	1	-2
643.167	1	11
644.354	1	-4
645.541	1	-11
646.728	1	6
647.914	1	-5
649.101	1	2
650.288	1	5
651.474	1	1
652.661	1	3
653.847	1	4
655.034	1	3
656.220	1	11
657.406	1	9
658.593	1	-5
659.779	1	1
660.965	1	7
662.152	1	5
663.338	1	1
664.524	1	0
665.710	1	6
666.896	1	-4
668.082	1	8
669.268	1	1
670.454	1	0
671.640	1	-13
672.826	1	-18
674.011	1	8
675.197	1	0
676.383	1	-5
677.569	1	-8
678.754	1	-3
679.940	1	-3
681.125	1	0
682.311	1	8
683.496	1	-9
684.682	1	10
685.867	1	0
687.053	1	10
688.238	1	8
688.746	1	2

File: GaN_sample E_spot4_UVVIS_68 K_200um_200 ms 2x2mm1_277.txt
340.368	1	1
341.565	1	-5
342.763	1	3
343.960	1	-10
345.157	1	7
346.354	1	3
347.552	1	3
348.749	1	6
349.946	1	14
351.143	1	-6
352.340	1	2
353.537	1	-2
354.734	1	1
355.931	1	-2
357.127	1	8
358.324	1	3
359.521	1	6
360.718	1	10
361.914	1	7
363.111	1	13
364.308	1	3
365.504	1	2
366.701	1	4
367.897	1	9
369.093	1	8
370.290	1	8
371.486	1	15
372.682	1	6
373.879	1	12
375.075	1	17
376.271	1	4
377.467	1	1
378.663	1	7
379.859	1	-3
381.055	1	1
382.251	1	5
383.447	1	17
384.643	1	8
385.839	1	17
387.035	1	5
388.230	1	8
389.426	1	10
390.622	1	4
391.817	1	11
393.013	1	17
394.208	1	17
395.404	1	17
396.599	1	9
397.795	1	13
398.990	1	13
400.186	1	17
401.381	1	11
402.576	1	13
403.771	1	14
404.967	1	10
406.162	1	4
407.357	1	12
408.552	1	26
409.747	1	-6
410.942	1	8
412.137	1	17
413.332	1	4
414.526	1	8
415.721	1	6
416.916	1	3
418.111	1	3
419.305	1	1
420.500	1	-1
421.695	1	1
422.889	1	5
424.084	1	11
425.278	1	-7
426.472	1	-9
427.667	1	16
428.861	1	10
430.055	1	1
431.250	1	-5
432.444	1	15
433.638	1	4
434.832	1	-1
436.026	1	7
437.220	1	8
438.414	1	1
439.608	1	13
440.802	1	3
441.996	1	2
443.190	1	-1
444.384	1	11
445.578	1	13
446.771	1	5
447.965	1	1
449.159	1	-1
450.352	1	7
451.546	1	0
452.739	1	4
453.933	1	4
455.126	1	7
456.320	1	3
457.513	1	7
458.706	1	8
459.899	1	18
461.093	1	12
462.286	1	7
463.479	1	2
464.672	1	9
465.865	1	-2
467.058	1	13
468.251	1	-14
469.444	1	0
470.637	1	16
471.830	1	11
473.023	1	-2
474.215	1	-3
475.408	1	2
476.601	1	4
477.793	1	8
478.986	1	7
480.179	1	3
481.371	1	1
482.564	1	-9
483.756	1	19
484.948	1	-10
486.141	1	0
487.333	1	4
488.525	1	5
489.718	1	-6
490.910	1	2
492.102	1	3
493.294	1	13
494.486	1	8
495.678	1	9
496.870	1	6
498.062	1	-8
499.254	1	8
500.446	1	5
501.638	1	6
502.829	1	1
504.021	1	19
505.213	1	-2
506.404	1	-3
507.596	1	14
508.788	1	4
509.979	1	4
511.171	1	11
512.362	1	2
513.553	1	-6
514.745	1	-8
515.936	1	7
517.127	1	11
518.319	1	4
519.510	1	12
520.701	1	3
521.892	1	-6
523.083	1	-1
524.274	1	-2
525.465	1	7
526.656	1	17
527.847	1	-2
529.038	1	11
530.229	1	14
531.419	1	14
532.610	1	6
533.801	1	5
534.991	1	10
536.182	1	8
537.373	1	9
538.563	1	4
539.754	1	-2
540.944	1	3
542.134	1	13
543.325	1	3
544.515	1	8
545.705	1	10
546.896	1	2
548.086	1	7
549.276	1	15
550.466	1	2
551.656	1	-2
552.846	1	7
554.036	1	14
555.226	1	3
556.416	1	7
557.606	1	-3
558.796	1	9
559.986	1	-2
561.175	1	8
562.365	1	9
563.555	1	4
564.744	1	3
565.934	1	4
567.123	1	25
568.313	1	-1
569.502	1	3
570.692	1	6
571.881	1	12
573.070	1	7
574.260	1	-3
575.449	1	3
576.638	1	3
577.827	1	3
579.016	1	22
580.205	1	8
581.394	1	7
582.583	1	-3
583.772	1	8
584.961	1	2
586.150	1	1
587.339	1	1
588.528	1	7
589.717	1	1
590.905	1	6
592.094	1	-5
593.283	1	9
594.471	1	2
595.660	1	1
596.848	1	2
598.037	1	-2
599.225	1	10
600.413	1	4
601.602	1	16
602.790	1	1
603.978	1	5
605.166	1	-5
606.355	1	12
607.543	1	-2
608.731	1	-1
609.919	1	-3
611.107	1	14
612.295	1	2
613.483	1	5
614.671	1	8
615.858	1	11
617.046	1	6
618.234	1	5
619.422	1	6
620.609	1	5
621.797	1	0
622.985	1	12
624.172	1	12
625.360	1	-1
626.547	1	-6
627.735	1	5
628.922	1	-4
630.109	1	6
631.297	1	0
632.484	1	-5
633.671	1	2
634.858	1	3
636.045	1	8
637.232	1	10
638.419	1	19
639.606	1	8
640.793	1	18
641.980	1	-6
643.167	1	9
644.354	1	14
645.541	1	-8
646.728	1	3
647.914	1	0
649.101	1	10
650.288	1	-2
651.474	1	11
652.661	1	5
653.847	1	1
655.034	1	3
656.220	1	7
657.406	1	1
658.593	1	0
659.779	1	-1
660.965	1	10
662.152	1	0
663.338	1	1
664.524	1	-10
665.710	1	1
666.896	1	9
668.082	1	5
669.268	1	5
670.454	1	2
671.640	1	-17
672.826	1	-14
674.011	1	9
675.197	1	4
676.383	1	5
677.569	1	4
678.754	1	2
679.940	1	5
681.125	1	17
682.311	1	3
683.496	1	-2
684.682	1	3
685.867	1	6
687.053	1	2
688.238	1	6
688.746	1	1

File: GaN_sample E_spot4_UVVIS_68 K_200um_200 ms 2x2mm1_283.txt
340.368	1	8
341.565	1	-1
342.763	1	-1
343.960	1	-4
345.157	1	1
346.354	1	13
347.552	1	0
348.749	1	12
349.946	1	4
351.143	1	-11
352.340	1	3
353.537	1	-1
354.734	1	1
355.931	1	-4
357.127	1	1
358.324	1	1
359.521	1	4
360.718	1	5
361.914	1	11
363.111	1	14
364.308	1	3
365.504	1	-1
366.701	1	1
367.897	1	12
369.093	1	5
370.290	1	11
371.486	1	19
372.682	1	-1
373.879	1	11
375.075	1	9
376.271	1	2
377.467	1	-4
378.663	1	1
379.859	1	-1
381.055	1	0
382.251	1	10
383.447	1	8
384.643	1	12
385.839	1	15
387.035	1	15
388.230	1	8
389.426	1	7
390.622	1	7
391.817	1	2
393.013	1	18
394.208	1	16
395.404	1	20
396.599	1	17
397.795	1	12
398.990	1	8
400.186	1	16
401.381	1	22
402.576	1	19
403.771	1	18
404.967	1	8
406.162	1	-5
407.357	1	7
408.552	1	9
409.747	1	1
410.942	1	6
412.137	1	18
413.332	1	-6
414.526	1	8
415.721	1	10
416.916	1	0
418.111	1	8
419.305	1	-1
420.500	1	13
421.695	1	3
422.889	1	6
424.084	1	4
425.278	1	-8
426.472	1	-3
427.667	1	15
428.861	1	8
430.055	1	1
431.250	1	-3
432.444	1	8
433.638	1	1
434.832	1	-10
436.026	1	12
437.220	1	4
438.414	1	11
439.608	1	7
440.802	1	7
441.996	1	10
443.190	1	3
444.384	1	8
445.578	1	3
446.771	1	3
447.965	1	-1
449.159	1	-8
450.352	1	10
451.546	1	3
452.739	1	4
453.933	1	13
455.126	1	6
456.320	1	8
457.513	1	10
458.706	1	4
459.899	1	16
461.093	1	10
462.286	1	10
463.479	1	19
464.672	1	1
465.865	1	1
467.058	1	12
468.251	1	-13
469.444	1	2
470.637	1	11
471.830	1	18
473.023	1	9
474.215	1	-1
475.408	1	6
476.601	1	0
477.793	1	8
478.986	1	5
480.179	1	2
481.371	1	0
482.564	1	-11
483.756	1	16
484.948	1	-6
486.141	1	-9
487.333	1	8
488.525	1	-7
489.718	1	-8
490.910	1	0
492.102	1	4
493.294	1	11
494.486	1	3
495.678	1	6
496.870	1	-9
498.062	1	3
499.254	1	7
500.446	1	8
501.638	1	-5
502.829	1	11
504.021	1	16
505.213	1	4
506.404	1	3
507.596	1	11
508.788	1	2
509.979	1	8
511.171	1	12
512.362	1	13
513.553	1	-8
514.745	1	8
515.936	1	8
517.127	1	8
518.319	1	4
519.510	1	4
520.701	1	10
521.892	1	-4
523.083	1	0
524.274	1	2
525.465	1	9
526.656	1	22
527.847	1	6
529.038	1	13
530.229	1	7
531.419	1	12
532.610	1	9
533.801	1	12
534.991	1	7
536.182	1	1
537.373	1	8
538.563	1	7
539.754	1	6
540.944	1	1
542.134	1	13
543.325	1	15
544.515	1	7
545.705	1	13
546.896	1	5
548.086	1	9
549.276	1	10
550.466	1	-9
551.656	1	-3
552.846	1	0
554.036	1	7
555.226	1	5
556.416	1	7
557.606	1	-1
558.796	1	7
559.986	1	4
561.175	1	4
562.365	1	6
563.555	1	12
564.744	1	7
565.934	1	16
567.123	1	16
568.313	1	-7
569.502	1	8
570.692	1	12
571.881	1	12
573.070	1	-4
574.260	1	4
575.449	1	5
576.638	1	9
577.827	1	18
579.016	1	17
580.205	1	2
581.394	1	-1
582.583	1	-7
583.772	1	8
584.961	1	3
586.150	1	-4
587.339	1	-1
588.528	1	2
589.717	1	13
590.905	1	-2
592.094	1	1
593.283	1	9
594.471	1	1
595.660	1	7
596.848	1	3
598.037	1	-1
599.225	1	5
600.413	1	-2
601.602	1	11
602.790	1	4
603.978	1	8
605.166	1	0
606.355	1	14
607.543	1	-4
608.731	1	-7
609.919	1	-6
611.107	1	19
612.295	1	-2
613.483	1	10
614.671	1	3
615.858	1	12
617.046	1	-1
618.234	1	-2
619.422	1	10
620.609	1	8
621.797	1	-3
622.985	1	3
624.172	1	16
625.360	1	-7
626.547	1	-1
627.735	1	6
628.922	1	1
630.109	1	-2
631.297	1	-9
632.484	1	8
633.671	1	1
634.858	1	2
636.045	1	2
637.232	1	7
638.419	1	5
639.606	1	13
640.793	1	3
641.980	1	1
643.167	1	10
644.354	1	-6
645.541	1	-4
646.728	1	3
647.914	1	-6
649.101	1	1
650.288	1	-6
651.474	1	8
652.661	1	3
653.847	1	0
655.034	1	4
656.220	1	3
657.406	1	5
658.593	1	-15
659.779	1	3
660.965	1	0
662.152	1	1
663.338	1	-6
664.524	1	-5
665.710	1	-3
666.896	1	3
668.082	1	-3
669.268	1	3
670.454	1	1
671.640	1	-14
672.826	1	-9
674.011	1	1
675.197	1	-3
676.383	1	-10
677.569	1	-5
678.754	1	-3
679.940	1	2
681.125	1	8
682.311	1	-2
683.496	1	-8
684.682	1	5
685.867	1	-1
687.053	1	5
688.238	1	4
688.746	1	9