Folder: cryo-il_analysis/Analysis/GaN_68K_200ms (part 11)

File: GaN_sample E_spot4_UVVIS_68 K_200um_200 ms 2x2mm1_210.txt
340.368	1	4
341.565	1	-5
342.763	1	2
343.960	1	1
345.157	1	12
346.354	1	-5
347.552	1	3
348.749	1	5
349.946	1	8
351.143	1	-15
352.340	1	10
353.537	1	3
354.734	1	3
355.931	1	12
357.127	1	6
358.324	1	3
359.521	1	9
360.718	1	1
361.914	1	15
363.111	1	21
364.308	1	15
365.504	1	5
366.701	1	7
367.897	1	24
369.093	1	18
370.290	1	6
371.486	1	19
372.682	1	1
373.879	1	11
375.075	1	18
376.271	1	5
377.467	1	8
378.663	1	-3
379.859	1	1
381.055	1	10
382.251	1	12
383.447	1	17
384.643	1	16
385.839	1	26
387.035	1	12
388.230	1	14
389.426	1	17
390.622	1	15
391.817	1	17
393.013	1	29
394.208	1	16
395.404	1	22
396.599	1	21
397.795	1	26
398.990	1	27
400.186	1	27
401.381	1	21
402.576	1	23
403.771	1	14
404.967	1	19
406.162	1	7
407.357	1	16
408.552	1	9
409.747	1	5
410.942	1	23
412.137	1	24
413.332	1	7
414.526	1	10
415.721	1	22
416.916	1	3
418.111	1	0
419.305	1	3
420.500	1	20
421.695	1	12
422.889	1	22
424.084	1	9
425.278	1	4
426.472	1	13
427.667	1	15
428.861	1	12
430.055	1	6
431.250	1	-9
432.444	1	14
433.638	1	11
434.832	1	-4
436.026	1	10
437.220	1	14
438.414	1	-3
439.608	1	-3
440.802	1	9
441.996	1	3
443.190	1	-2
444.384	1	8
445.578	1	11
446.771	1	0
447.965	1	5
449.159	1	1
450.352	1	12
451.546	1	11
452.739	1	4
453.933	1	20
455.126	1	9
456.320	1	9
457.513	1	10
458.706	1	9
459.899	1	19
461.093	1	11
462.286	1	18
463.479	1	16
464.672	1	7
465.865	1	-3
467.058	1	13
468.251	1	3
469.444	1	4
470.637	1	12
471.830	1	15
473.023	1	2
474.215	1	5
475.408	1	-3
476.601	1	11
477.793	1	6
478.986	1	11
480.179	1	2
481.371	1	-2
482.564	1	-12
483.756	1	12
484.948	1	-4
486.141	1	-1
487.333	1	4
488.525	1	6
489.718	1	3
490.910	1	5
492.102	1	1
493.294	1	16
494.486	1	18
495.678	1	17
496.870	1	7
498.062	1	12
499.254	1	12
500.446	1	5
501.638	1	2
502.829	1	11
504.021	1	24
505.213	1	9
506.404	1	12
507.596	1	13
508.788	1	4
509.979	1	9
511.171	1	20
512.362	1	10
513.553	1	13
514.745	1	12
515.936	1	15
517.127	1	21
518.319	1	8
519.510	1	14
520.701	1	11
521.892	1	-4
523.083	1	15
524.274	1	8
525.465	1	10
526.656	1	33
527.847	1	1
529.038	1	14
530.229	1	22
531.419	1	20
532.610	1	20
533.801	1	15
534.991	1	26
536.182	1	15
537.373	1	12
538.563	1	13
539.754	1	11
540.944	1	14
542.134	1	21
543.325	1	7
544.515	1	12
545.705	1	21
546.896	1	4
548.086	1	22
549.276	1	23
550.466	1	10
551.656	1	7
552.846	1	9
554.036	1	20
555.226	1	-2
556.416	1	5
557.606	1	2
558.796	1	9
559.986	1	4
561.175	1	0
562.365	1	3
563.555	1	17
564.744	1	25
565.934	1	16
567.123	1	22
568.313	1	13
569.502	1	11
570.692	1	15
571.881	1	7
573.070	1	11
574.260	1	7
575.449	1	12
576.638	1	9
577.827	1	10
579.016	1	20
580.205	1	12
581.394	1	-10
582.583	1	-1
583.772	1	4
584.961	1	6
586.150	1	7
587.339	1	9
588.528	1	9
589.717	1	9
590.905	1	14
592.094	1	6
593.283	1	8
594.471	1	6
595.660	1	4
596.848	1	19
598.037	1	8
599.225	1	6
600.413	1	9
601.602	1	19
602.790	1	7
603.978	1	-1
605.166	1	-5
606.355	1	10
607.543	1	-4
608.731	1	-9
609.919	1	-3
611.107	1	16
612.295	1	6
613.483	1	16
614.671	1	12
615.858	1	6
617.046	1	10
618.234	1	0
619.422	1	14
620.609	1	0
621.797	1	13
622.985	1	2
624.172	1	15
625.360	1	2
626.547	1	14
627.735	1	-1
628.922	1	3
630.109	1	0
631.297	1	-2
632.484	1	-1
633.671	1	3
634.858	1	13
636.045	1	8
637.232	1	2
638.419	1	6
639.606	1	13
640.793	1	7
641.980	1	-3
643.167	1	4
644.354	1	0
645.541	1	2
646.728	1	7
647.914	1	7
649.101	1	6
650.288	1	5
651.474	1	6
652.661	1	6
653.847	1	11
655.034	1	8
656.220	1	11
657.406	1	6
658.593	1	-5
659.779	1	1
660.965	1	9
662.152	1	-4
663.338	1	-6
664.524	1	-8
665.710	1	-2
666.896	1	7
668.082	1	-1
669.268	1	7
670.454	1	-1
671.640	1	-7
672.826	1	-10
674.011	1	10
675.197	1	-11
676.383	1	5
677.569	1	-3
678.754	1	1
679.940	1	0
681.125	1	4
682.311	1	1
683.496	1	-3
684.682	1	5
685.867	1	0
687.053	1	11
688.238	1	6
688.746	1	3

File: GaN_sample E_spot4_UVVIS_68 K_200um_200 ms 2x2mm1_217.txt
340.368	1	-1
341.565	1	-5
342.763	1	6
343.960	1	5
345.157	1	11
346.354	1	3
347.552	1	1
348.749	1	7
349.946	1	8
351.143	1	-7
352.340	1	4
353.537	1	0
354.734	1	-4
355.931	1	8
357.127	1	1
358.324	1	-7
359.521	1	3
360.718	1	3
361.914	1	2
363.111	1	22
364.308	1	13
365.504	1	9
366.701	1	11
367.897	1	17
369.093	1	16
370.290	1	16
371.486	1	16
372.682	1	5
373.879	1	13
375.075	1	11
376.271	1	8
377.467	1	-6
378.663	1	-5
379.859	1	11
381.055	1	-1
382.251	1	7
383.447	1	12
384.643	1	25
385.839	1	23
387.035	1	15
388.230	1	16
389.426	1	21
390.622	1	13
391.817	1	16
393.013	1	33
394.208	1	25
395.404	1	21
396.599	1	21
397.795	1	18
398.990	1	19
400.186	1	22
401.381	1	15
402.576	1	25
403.771	1	18
404.967	1	14
406.162	1	12
407.357	1	8
408.552	1	18
409.747	1	7
410.942	1	3
412.137	1	25
413.332	1	9
414.526	1	2
415.721	1	13
416.916	1	4
418.111	1	7
419.305	1	16
420.500	1	15
421.695	1	8
422.889	1	12
424.084	1	7
425.278	1	6
426.472	1	11
427.667	1	21
428.861	1	3
430.055	1	7
431.250	1	2
432.444	1	17
433.638	1	1
434.832	1	8
436.026	1	2
437.220	1	9
438.414	1	13
439.608	1	2
440.802	1	10
441.996	1	7
443.190	1	-8
444.384	1	12
445.578	1	8
446.771	1	4
447.965	1	0
449.159	1	-3
450.352	1	12
451.546	1	3
452.739	1	10
453.933	1	18
455.126	1	10
456.320	1	5
457.513	1	7
458.706	1	4
459.899	1	17
461.093	1	7
462.286	1	8
463.479	1	14
464.672	1	16
465.865	1	0
467.058	1	12
468.251	1	5
469.444	1	2
470.637	1	10
471.830	1	18
473.023	1	-1
474.215	1	4
475.408	1	6
476.601	1	4
477.793	1	15
478.986	1	1
480.179	1	9
481.371	1	10
482.564	1	-5
483.756	1	18
484.948	1	2
486.141	1	-5
487.333	1	-2
488.525	1	7
489.718	1	5
490.910	1	1
492.102	1	-3
493.294	1	6
494.486	1	10
495.678	1	9
496.870	1	5
498.062	1	6
499.254	1	4
500.446	1	1
501.638	1	9
502.829	1	7
504.021	1	18
505.213	1	8
506.404	1	4
507.596	1	12
508.788	1	10
509.979	1	4
511.171	1	11
512.362	1	6
513.553	1	4
514.745	1	7
515.936	1	10
517.127	1	6
518.319	1	-2
519.510	1	19
520.701	1	8
521.892	1	2
523.083	1	10
524.274	1	0
525.465	1	8
526.656	1	32
527.847	1	0
529.038	1	19
530.229	1	15
531.419	1	20
532.610	1	5
533.801	1	19
534.991	1	29
536.182	1	17
537.373	1	3
538.563	1	12
539.754	1	11
540.944	1	4
542.134	1	15
543.325	1	7
544.515	1	11
545.705	1	3
546.896	1	9
548.086	1	14
549.276	1	11
550.466	1	10
551.656	1	5
552.846	1	10
554.036	1	15
555.226	1	2
556.416	1	10
557.606	1	1
558.796	1	9
559.986	1	1
561.175	1	5
562.365	1	11
563.555	1	18
564.744	1	8
565.934	1	6
567.123	1	24
568.313	1	7
569.502	1	7
570.692	1	8
571.881	1	11
573.070	1	16
574.260	1	5
575.449	1	14
576.638	1	7
577.827	1	13
579.016	1	14
580.205	1	9
581.394	1	-4
582.583	1	4
583.772	1	4
584.961	1	9
586.150	1	5
587.339	1	1
588.528	1	3
589.717	1	4
590.905	1	14
592.094	1	10
593.283	1	8
594.471	1	6
595.660	1	1
596.848	1	11
598.037	1	10
599.225	1	8
600.413	1	6
601.602	1	12
602.790	1	6
603.978	1	4
605.166	1	0
606.355	1	17
607.543	1	-8
608.731	1	1
609.919	1	1
611.107	1	7
612.295	1	7
613.483	1	9
614.671	1	12
615.858	1	6
617.046	1	9
618.234	1	2
619.422	1	4
620.609	1	2
621.797	1	11
622.985	1	6
624.172	1	8
625.360	1	6
626.547	1	-4
627.735	1	9
628.922	1	5
630.109	1	-1
631.297	1	-5
632.484	1	4
633.671	1	5
634.858	1	7
636.045	1	11
637.232	1	6
638.419	1	14
639.606	1	8
640.793	1	7
641.980	1	-4
643.167	1	10
644.354	1	3
645.541	1	2
646.728	1	4
647.914	1	0
649.101	1	2
650.288	1	4
651.474	1	3
652.661	1	5
653.847	1	2
655.034	1	4
656.220	1	10
657.406	1	7
658.593	1	3
659.779	1	-3
660.965	1	1
662.152	1	2
663.338	1	-1
664.524	1	-11
665.710	1	5
666.896	1	6
668.082	1	1
669.268	1	7
670.454	1	9
671.640	1	-12
672.826	1	-14
674.011	1	5
675.197	1	-4
676.383	1	-3
677.569	1	3
678.754	1	6
679.940	1	4
681.125	1	14
682.311	1	1
683.496	1	4
684.682	1	12
685.867	1	11
687.053	1	10
688.238	1	2
688.746	1	5

File: GaN_sample E_spot4_UVVIS_68 K_200um_200 ms 2x2mm1_220.txt
340.368	1	-1
341.565	1	3
342.763	1	1
343.960	1	-3
345.157	1	6
346.354	1	4
347.552	1	9
348.749	1	9
349.946	1	10
351.143	1	-8
352.340	1	1
353.537	1	6
354.734	1	6
355.931	1	3
357.127	1	5
358.324	1	2
359.521	1	8
360.718	1	4
361.914	1	-1
363.111	1	11
364.308	1	8
365.504	1	-3
366.701	1	15
367.897	1	7
369.093	1	16
370.290	1	10
371.486	1	19
372.682	1	1
373.879	1	16
375.075	1	13
376.271	1	11
377.467	1	4
378.663	1	7
379.859	1	-4
381.055	1	10
382.251	1	11
383.447	1	20
384.643	1	12
385.839	1	17
387.035	1	18
388.230	1	26
389.426	1	18
390.622	1	15
391.817	1	2
393.013	1	17
394.208	1	16
395.404	1	18
396.599	1	11
397.795	1	15
398.990	1	26
400.186	1	20
401.381	1	18
402.576	1	23
403.771	1	10
404.967	1	10
406.162	1	12
407.357	1	10
408.552	1	16
409.747	1	10
410.942	1	16
412.137	1	19
413.332	1	6
414.526	1	12
415.721	1	17
416.916	1	9
418.111	1	10
419.305	1	4
420.500	1	12
421.695	1	12
422.889	1	11
424.084	1	11
425.278	1	-2
426.472	1	4
427.667	1	16
428.861	1	15
430.055	1	15
431.250	1	5
432.444	1	16
433.638	1	6
434.832	1	-1
436.026	1	8
437.220	1	11
438.414	1	3
439.608	1	5
440.802	1	6
441.996	1	2
443.190	1	-4
444.384	1	6
445.578	1	16
446.771	1	11
447.965	1	-1
449.159	1	-2
450.352	1	7
451.546	1	6
452.739	1	1
453.933	1	5
455.126	1	6
456.320	1	4
457.513	1	11
458.706	1	4
459.899	1	12
461.093	1	13
462.286	1	6
463.479	1	14
464.672	1	-3
465.865	1	-4
467.058	1	16
468.251	1	4
469.444	1	4
470.637	1	17
471.830	1	20
473.023	1	4
474.215	1	3
475.408	1	8
476.601	1	6
477.793	1	14
478.986	1	4
480.179	1	10
481.371	1	6
482.564	1	-5
483.756	1	13
484.948	1	-4
486.141	1	-4
487.333	1	6
488.525	1	7
489.718	1	8
490.910	1	-2
492.102	1	2
493.294	1	14
494.486	1	9
495.678	1	10
496.870	1	8
498.062	1	3
499.254	1	10
500.446	1	10
501.638	1	7
502.829	1	6
504.021	1	15
505.213	1	2
506.404	1	3
507.596	1	9
508.788	1	19
509.979	1	12
511.171	1	15
512.362	1	15
513.553	1	1
514.745	1	-3
515.936	1	11
517.127	1	10
518.319	1	1
519.510	1	13
520.701	1	12
521.892	1	8
523.083	1	9
524.274	1	15
525.465	1	2
526.656	1	24
527.847	1	4
529.038	1	11
530.229	1	16
531.419	1	22
532.610	1	20
533.801	1	13
534.991	1	8
536.182	1	6
537.373	1	1
538.563	1	11
539.754	1	7
540.944	1	9
542.134	1	21
543.325	1	6
544.515	1	13
545.705	1	22
546.896	1	15
548.086	1	23
549.276	1	17
550.466	1	9
551.656	1	8
552.846	1	8
554.036	1	10
555.226	1	2
556.416	1	13
557.606	1	-6
558.796	1	2
559.986	1	11
561.175	1	15
562.365	1	10
563.555	1	10
564.744	1	14
565.934	1	21
567.123	1	28
568.313	1	3
569.502	1	7
570.692	1	13
571.881	1	13
573.070	1	16
574.260	1	7
575.449	1	-1
576.638	1	4
577.827	1	17
579.016	1	22
580.205	1	8
581.394	1	6
582.583	1	-1
583.772	1	13
584.961	1	9
586.150	1	7
587.339	1	15
588.528	1	14
589.717	1	10
590.905	1	11
592.094	1	13
593.283	1	5
594.471	1	5
595.660	1	4
596.848	1	15
598.037	1	4
599.225	1	10
600.413	1	-5
601.602	1	14
602.790	1	13
603.978	1	4
605.166	1	-2
606.355	1	5
607.543	1	1
608.731	1	1
609.919	1	-7
611.107	1	6
612.295	1	4
613.483	1	13
614.671	1	4
615.858	1	5
617.046	1	16
618.234	1	2
619.422	1	8
620.609	1	11
621.797	1	4
622.985	1	-5
624.172	1	11
625.360	1	-6
626.547	1	8
627.735	1	7
628.922	1	0
630.109	1	-2
631.297	1	-2
632.484	1	3
633.671	1	1
634.858	1	12
636.045	1	4
637.232	1	4
638.419	1	15
639.606	1	18
640.793	1	4
641.980	1	2
643.167	1	15
644.354	1	4
645.541	1	0
646.728	1	9
647.914	1	-6
649.101	1	9
650.288	1	-1
651.474	1	9
652.661	1	7
653.847	1	6
655.034	1	-4
656.220	1	-1
657.406	1	8
658.593	1	-4
659.779	1	-7
660.965	1	9
662.152	1	1
663.338	1	0
664.524	1	-1
665.710	1	1
666.896	1	0
668.082	1	-1
669.268	1	-2
670.454	1	3
671.640	1	-9
672.826	1	-8
674.011	1	5
675.197	1	-1
676.383	1	-2
677.569	1	-5
678.754	1	-4
679.940	1	-3
681.125	1	11
682.311	1	4
683.496	1	-6
684.682	1	10
685.867	1	-2
687.053	1	7
688.238	1	3
688.746	1	10

File: GaN_sample E_spot4_UVVIS_68 K_200um_200 ms 2x2mm1_221.txt
340.368	1	-3
341.565	1	-9
342.763	1	-3
343.960	1	1
345.157	1	5
346.354	1	6
347.552	1	1
348.749	1	0
349.946	1	9
351.143	1	-5
352.340	1	-3
353.537	1	0
354.734	1	5
355.931	1	-4
357.127	1	2
358.324	1	1
359.521	1	6
360.718	1	-2
361.914	1	8
363.111	1	10
364.308	1	1
365.504	1	11
366.701	1	9
367.897	1	14
369.093	1	22
370.290	1	6
371.486	1	14
372.682	1	2
373.879	1	15
375.075	1	16
376.271	1	13
377.467	1	0
378.663	1	8
379.859	1	13
381.055	1	9
382.251	1	14
383.447	1	16
384.643	1	20
385.839	1	22
387.035	1	24
388.230	1	13
389.426	1	21
390.622	1	18
391.817	1	9
393.013	1	24
394.208	1	21
395.404	1	19
396.599	1	22
397.795	1	25
398.990	1	25
400.186	1	21
401.381	1	19
402.576	1	22
403.771	1	16
404.967	1	14
406.162	1	9
407.357	1	5
408.552	1	16
409.747	1	7
410.942	1	19
412.137	1	19
413.332	1	15
414.526	1	10
415.721	1	14
416.916	1	8
418.111	1	11
419.305	1	11
420.500	1	15
421.695	1	9
422.889	1	10
424.084	1	11
425.278	1	-4
426.472	1	10
427.667	1	17
428.861	1	5
430.055	1	8
431.250	1	-2
432.444	1	19
433.638	1	5
434.832	1	-4
436.026	1	6
437.220	1	9
438.414	1	5
439.608	1	7
440.802	1	8
441.996	1	5
443.190	1	1
444.384	1	4
445.578	1	22
446.771	1	-6
447.965	1	-5
449.159	1	3
450.352	1	18
451.546	1	4
452.739	1	-3
453.933	1	13
455.126	1	2
456.320	1	6
457.513	1	16
458.706	1	17
459.899	1	13
461.093	1	8
462.286	1	4
463.479	1	15
464.672	1	5
465.865	1	-4
467.058	1	15
468.251	1	6
469.444	1	3
470.637	1	11
471.830	1	21
473.023	1	-1
474.215	1	-4
475.408	1	4
476.601	1	9
477.793	1	16
478.986	1	-1
480.179	1	2
481.371	1	11
482.564	1	-5
483.756	1	13
484.948	1	4
486.141	1	-2
487.333	1	1
488.525	1	-2
489.718	1	2
490.910	1	6
492.102	1	3
493.294	1	17
494.486	1	15
495.678	1	17
496.870	1	0
498.062	1	-1
499.254	1	12
500.446	1	10
501.638	1	13
502.829	1	5
504.021	1	24
505.213	1	4
506.404	1	2
507.596	1	22
508.788	1	14
509.979	1	4
511.171	1	17
512.362	1	7
513.553	1	0
514.745	1	1
515.936	1	13
517.127	1	12
518.319	1	6
519.510	1	13
520.701	1	15
521.892	1	3
523.083	1	4
524.274	1	1
525.465	1	9
526.656	1	24
527.847	1	13
529.038	1	21
530.229	1	17
531.419	1	27
532.610	1	15
533.801	1	13
534.991	1	9
536.182	1	11
537.373	1	-2
538.563	1	11
539.754	1	7
540.944	1	20
542.134	1	12
543.325	1	3
544.515	1	14
545.705	1	13
546.896	1	15
548.086	1	15
549.276	1	6
550.466	1	4
551.656	1	6
552.846	1	13
554.036	1	14
555.226	1	3
556.416	1	10
557.606	1	5
558.796	1	5
559.986	1	11
561.175	1	5
562.365	1	12
563.555	1	19
564.744	1	12
565.934	1	17
567.123	1	23
568.313	1	1
569.502	1	9
570.692	1	8
571.881	1	15
573.070	1	4
574.260	1	6
575.449	1	12
576.638	1	10
577.827	1	6
579.016	1	19
580.205	1	2
581.394	1	2
582.583	1	5
583.772	1	7
584.961	1	9
586.150	1	6
587.339	1	5
588.528	1	11
589.717	1	7
590.905	1	10
592.094	1	2
593.283	1	5
594.471	1	-2
595.660	1	-1
596.848	1	8
598.037	1	2
599.225	1	-2
600.413	1	-2
601.602	1	11
602.790	1	1
603.978	1	8
605.166	1	-6
606.355	1	11
607.543	1	-3
608.731	1	-2
609.919	1	-1
611.107	1	13
612.295	1	3
613.483	1	13
614.671	1	10
615.858	1	14
617.046	1	6
618.234	1	14
619.422	1	2
620.609	1	3
621.797	1	2
622.985	1	7
624.172	1	14
625.360	1	-3
626.547	1	8
627.735	1	9
628.922	1	7
630.109	1	9
631.297	1	2
632.484	1	-5
633.671	1	-1
634.858	1	13
636.045	1	6
637.232	1	13
638.419	1	9
639.606	1	12
640.793	1	8
641.980	1	8
643.167	1	12
644.354	1	3
645.541	1	-5
646.728	1	1
647.914	1	-10
649.101	1	13
650.288	1	6
651.474	1	5
652.661	1	10
653.847	1	7
655.034	1	4
656.220	1	8
657.406	1	0
658.593	1	-6
659.779	1	1
660.965	1	2
662.152	1	-1
663.338	1	1
664.524	1	-7
665.710	1	2
666.896	1	7
668.082	1	-1
669.268	1	2
670.454	1	2
671.640	1	-9
672.826	1	-5
674.011	1	3
675.197	1	3
676.383	1	-3
677.569	1	-5
678.754	1	-11
679.940	1	7
681.125	1	14
682.311	1	8
683.496	1	-8
684.682	1	13
685.867	1	2
687.053	1	6
688.238	1	3
688.746	1	4

File: GaN_sample E_spot4_UVVIS_68 K_200um_200 ms 2x2mm1_224.txt
340.368	1	6
341.565	1	-5
342.763	1	2
343.960	1	6
345.157	1	13
346.354	1	5
347.552	1	7
348.749	1	3
349.946	1	8
351.143	1	2
352.340	1	7
353.537	1	1
354.734	1	0
355.931	1	9
357.127	1	10
358.324	1	4
359.521	1	1
360.718	1	-3
361.914	1	8
363.111	1	10
364.308	1	6
365.504	1	5
366.701	1	10
367.897	1	16
369.093	1	14
370.290	1	3
371.486	1	20
372.682	1	-1
373.879	1	8
375.075	1	20
376.271	1	6
377.467	1	8
378.663	1	6
379.859	1	3
381.055	1	3
382.251	1	9
383.447	1	22
384.643	1	16
385.839	1	25
387.035	1	20
388.230	1	16
389.426	1	16
390.622	1	9
391.817	1	13
393.013	1	26
394.208	1	30
395.404	1	14
396.599	1	21
397.795	1	20
398.990	1	13
400.186	1	18
401.381	1	14
402.576	1	25
403.771	1	16
404.967	1	20
406.162	1	5
407.357	1	18
408.552	1	7
409.747	1	12
410.942	1	16
412.137	1	15
413.332	1	8
414.526	1	10
415.721	1	7
416.916	1	10
418.111	1	9
419.305	1	7
420.500	1	9
421.695	1	9
422.889	1	9
424.084	1	10
425.278	1	9
426.472	1	10
427.667	1	13
428.861	1	2
430.055	1	9
431.250	1	7
432.444	1	16
433.638	1	5
434.832	1	3
436.026	1	8
437.220	1	20
438.414	1	3
439.608	1	12
440.802	1	12
441.996	1	0
443.190	1	-8
444.384	1	8
445.578	1	15
446.771	1	0
447.965	1	4
449.159	1	4
450.352	1	8
451.546	1	4
452.739	1	0
453.933	1	9
455.126	1	-1
456.320	1	11
457.513	1	10
458.706	1	-5
459.899	1	14
461.093	1	0
462.286	1	19
463.479	1	8
464.672	1	-4
465.865	1	4
467.058	1	14
468.251	1	-2
469.444	1	3
470.637	1	24
471.830	1	18
473.023	1	-1
474.215	1	5
475.408	1	10
476.601	1	1
477.793	1	2
478.986	1	4
480.179	1	7
481.371	1	4
482.564	1	-10
483.756	1	10
484.948	1	8
486.141	1	2
487.333	1	9
488.525	1	-2
489.718	1	-3
490.910	1	4
492.102	1	10
493.294	1	16
494.486	1	11
495.678	1	8
496.870	1	7
498.062	1	8
499.254	1	7
500.446	1	17
501.638	1	-2
502.829	1	-2
504.021	1	16
505.213	1	11
506.404	1	3
507.596	1	12
508.788	1	10
509.979	1	1
511.171	1	15
512.362	1	9
513.553	1	11
514.745	1	8
515.936	1	16
517.127	1	8
518.319	1	5
519.510	1	6
520.701	1	11
521.892	1	2
523.083	1	8
524.274	1	5
525.465	1	17
526.656	1	24
527.847	1	14
529.038	1	17
530.229	1	5
531.419	1	19
532.610	1	17
533.801	1	16
534.991	1	14
536.182	1	9
537.373	1	9
538.563	1	16
539.754	1	10
540.944	1	6
542.134	1	18
543.325	1	9
544.515	1	10
545.705	1	21
546.896	1	12
548.086	1	7
549.276	1	16
550.466	1	9
551.656	1	6
552.846	1	16
554.036	1	12
555.226	1	3
556.416	1	0
557.606	1	6
558.796	1	11
559.986	1	6
561.175	1	7
562.365	1	13
563.555	1	17
564.744	1	8
565.934	1	12
567.123	1	24
568.313	1	1
569.502	1	6
570.692	1	6
571.881	1	9
573.070	1	5
574.260	1	1
575.449	1	8
576.638	1	12
577.827	1	8
579.016	1	18
580.205	1	4
581.394	1	5
582.583	1	-1
583.772	1	3
584.961	1	7
586.150	1	5
587.339	1	6
588.528	1	5
589.717	1	0
590.905	1	3
592.094	1	6
593.283	1	7
594.471	1	6
595.660	1	2
596.848	1	20
598.037	1	2
599.225	1	3
600.413	1	3
601.602	1	15
602.790	1	-4
603.978	1	3
605.166	1	-3
606.355	1	11
607.543	1	-1
608.731	1	-5
609.919	1	1
611.107	1	14
612.295	1	8
613.483	1	13
614.671	1	8
615.858	1	6
617.046	1	0
618.234	1	5
619.422	1	2
620.609	1	9
621.797	1	-3
622.985	1	6
624.172	1	14
625.360	1	-2
626.547	1	14
627.735	1	2
628.922	1	0
630.109	1	-1
631.297	1	-5
632.484	1	-3
633.671	1	6
634.858	1	14
636.045	1	2
637.232	1	6
638.419	1	15
639.606	1	17
640.793	1	8
641.980	1	0
643.167	1	14
644.354	1	8
645.541	1	-6
646.728	1	11
647.914	1	2
649.101	1	2
650.288	1	-6
651.474	1	5
652.661	1	-3
653.847	1	7
655.034	1	4
656.220	1	14
657.406	1	16
658.593	1	-2
659.779	1	6
660.965	1	2
662.152	1	-4
663.338	1	-3
664.524	1	-8
665.710	1	-3
666.896	1	1
668.082	1	3
669.268	1	2
670.454	1	-2
671.640	1	-10
672.826	1	-8
674.011	1	7
675.197	1	-10
676.383	1	0
677.569	1	9
678.754	1	3
679.940	1	2
681.125	1	6
682.311	1	3
683.496	1	5
684.682	1	10
685.867	1	17
687.053	1	14
688.238	1	-1
688.746	1	5

File: GaN_sample E_spot4_UVVIS_68 K_200um_200 ms 2x2mm1_226.txt
340.368	1	1
341.565	1	-2
342.763	1	-4
343.960	1	-1
345.157	1	9
346.354	1	3
347.552	1	2
348.749	1	1
349.946	1	12
351.143	1	-5
352.340	1	3
353.537	1	-1
354.734	1	4
355.931	1	7
357.127	1	4
358.324	1	4
359.521	1	9
360.718	1	5
361.914	1	-1
363.111	1	16
364.308	1	16
365.504	1	20
366.701	1	6
367.897	1	17
369.093	1	20
370.290	1	14
371.486	1	20
372.682	1	11
373.879	1	15
375.075	1	13
376.271	1	7
377.467	1	4
378.663	1	3
379.859	1	2
381.055	1	4
382.251	1	12
383.447	1	18
384.643	1	16
385.839	1	21
387.035	1	23
388.230	1	24
389.426	1	22
390.622	1	12
391.817	1	11
393.013	1	25
394.208	1	20
395.404	1	23
396.599	1	22
397.795	1	17
398.990	1	26
400.186	1	27
401.381	1	30
402.576	1	21
403.771	1	11
404.967	1	12
406.162	1	9
407.357	1	20
408.552	1	20
409.747	1	10
410.942	1	9
412.137	1	14
413.332	1	11
414.526	1	12
415.721	1	20
416.916	1	13
418.111	1	8
419.305	1	14
420.500	1	18
421.695	1	6
422.889	1	9
424.084	1	7
425.278	1	-6
426.472	1	5
427.667	1	11
428.861	1	8
430.055	1	-3
431.250	1	-3
432.444	1	4
433.638	1	2
434.832	1	0
436.026	1	2
437.220	1	11
438.414	1	8
439.608	1	10
440.802	1	3
441.996	1	5
443.190	1	-1
444.384	1	9
445.578	1	19
446.771	1	0
447.965	1	-1
449.159	1	9
450.352	1	15
451.546	1	6
452.739	1	10
453.933	1	13
455.126	1	0
456.320	1	16
457.513	1	4
458.706	1	11
459.899	1	12
461.093	1	14
462.286	1	13
463.479	1	18
464.672	1	3
465.865	1	-1
467.058	1	9
468.251	1	3
469.444	1	0
470.637	1	21
471.830	1	17
473.023	1	3
474.215	1	7
475.408	1	5
476.601	1	6
477.793	1	15
478.986	1	5
480.179	1	1
481.371	1	5
482.564	1	-9
483.756	1	11
484.948	1	-1
486.141	1	-3
487.333	1	9
488.525	1	-4
489.718	1	3
490.910	1	4
492.102	1	-3
493.294	1	6
494.486	1	19
495.678	1	11
496.870	1	-1
498.062	1	10
499.254	1	11
500.446	1	18
501.638	1	4
502.829	1	2
504.021	1	19
505.213	1	11
506.404	1	5
507.596	1	9
508.788	1	15
509.979	1	5
511.171	1	19
512.362	1	4
513.553	1	7
514.745	1	12
515.936	1	11
517.127	1	23
518.319	1	9
519.510	1	10
520.701	1	18
521.892	1	5
523.083	1	12
524.274	1	10
525.465	1	12
526.656	1	23
527.847	1	13
529.038	1	21
530.229	1	16
531.419	1	24
532.610	1	16
533.801	1	16
534.991	1	14
536.182	1	14
537.373	1	7
538.563	1	15
539.754	1	4
540.944	1	13
542.134	1	22
543.325	1	7
544.515	1	13
545.705	1	19
546.896	1	13
548.086	1	17
549.276	1	13
550.466	1	4
551.656	1	12
552.846	1	7
554.036	1	15
555.226	1	10
556.416	1	13
557.606	1	-2
558.796	1	10
559.986	1	9
561.175	1	8
562.365	1	8
563.555	1	17
564.744	1	2
565.934	1	11
567.123	1	22
568.313	1	0
569.502	1	6
570.692	1	13
571.881	1	12
573.070	1	12
574.260	1	7
575.449	1	8
576.638	1	6
577.827	1	13
579.016	1	24
580.205	1	6
581.394	1	-7
582.583	1	3
583.772	1	10
584.961	1	10
586.150	1	8
587.339	1	10
588.528	1	10
589.717	1	11
590.905	1	9
592.094	1	2
593.283	1	10
594.471	1	9
595.660	1	0
596.848	1	14
598.037	1	6
599.225	1	10
600.413	1	-6
601.602	1	9
602.790	1	6
603.978	1	2
605.166	1	-4
606.355	1	13
607.543	1	-6
608.731	1	-1
609.919	1	6
611.107	1	12
612.295	1	2
613.483	1	12
614.671	1	15
615.858	1	2
617.046	1	9
618.234	1	0
619.422	1	-1
620.609	1	5
621.797	1	1
622.985	1	2
624.172	1	18
625.360	1	-7
626.547	1	3
627.735	1	4
628.922	1	-1
630.109	1	6
631.297	1	7
632.484	1	3
633.671	1	4
634.858	1	11
636.045	1	6
637.232	1	7
638.419	1	11
639.606	1	5
640.793	1	4
641.980	1	-3
643.167	1	14
644.354	1	0
645.541	1	-7
646.728	1	8
647.914	1	7
649.101	1	5
650.288	1	-6
651.474	1	10
652.661	1	13
653.847	1	4
655.034	1	9
656.220	1	11
657.406	1	4
658.593	1	1
659.779	1	0
660.965	1	-4
662.152	1	10
663.338	1	4
664.524	1	-2
665.710	1	-1
666.896	1	1
668.082	1	5
669.268	1	9
670.454	1	12
671.640	1	-16
672.826	1	-15
674.011	1	8
675.197	1	-3
676.383	1	3
677.569	1	-5
678.754	1	-3
679.940	1	3
681.125	1	6
682.311	1	6
683.496	1	-6
684.682	1	9
685.867	1	7
687.053	1	8
688.238	1	4
688.746	1	10