Folder: cryo-il_analysis/Analysis/GaN_68K_200ms (part 16)

File: GaN_sample E_spot4_UVVIS_68 K_200um_200 ms 2x2mm1_302.txt
340.368	1	-3
341.565	1	-2
342.763	1	-5
343.960	1	-5
345.157	1	7
346.354	1	2
347.552	1	-2
348.749	1	-1
349.946	1	5
351.143	1	-11
352.340	1	4
353.537	1	-1
354.734	1	3
355.931	1	5
357.127	1	6
358.324	1	1
359.521	1	4
360.718	1	0
361.914	1	3
363.111	1	5
364.308	1	3
365.504	1	2
366.701	1	-3
367.897	1	8
369.093	1	6
370.290	1	6
371.486	1	12
372.682	1	-9
373.879	1	13
375.075	1	11
376.271	1	3
377.467	1	0
378.663	1	2
379.859	1	0
381.055	1	9
382.251	1	8
383.447	1	18
384.643	1	7
385.839	1	13
387.035	1	-3
388.230	1	5
389.426	1	17
390.622	1	-2
391.817	1	5
393.013	1	13
394.208	1	14
395.404	1	12
396.599	1	11
397.795	1	13
398.990	1	16
400.186	1	10
401.381	1	18
402.576	1	7
403.771	1	8
404.967	1	12
406.162	1	-2
407.357	1	4
408.552	1	12
409.747	1	6
410.942	1	8
412.137	1	20
413.332	1	7
414.526	1	6
415.721	1	3
416.916	1	7
418.111	1	5
419.305	1	5
420.500	1	8
421.695	1	1
422.889	1	13
424.084	1	6
425.278	1	-1
426.472	1	0
427.667	1	18
428.861	1	3
430.055	1	6
431.250	1	3
432.444	1	8
433.638	1	-2
434.832	1	-4
436.026	1	3
437.220	1	6
438.414	1	6
439.608	1	8
440.802	1	2
441.996	1	-3
443.190	1	-1
444.384	1	3
445.578	1	21
446.771	1	-1
447.965	1	-8
449.159	1	-5
450.352	1	3
451.546	1	12
452.739	1	-1
453.933	1	7
455.126	1	4
456.320	1	-1
457.513	1	12
458.706	1	6
459.899	1	17
461.093	1	12
462.286	1	10
463.479	1	8
464.672	1	5
465.865	1	-7
467.058	1	18
468.251	1	1
469.444	1	3
470.637	1	11
471.830	1	12
473.023	1	-5
474.215	1	0
475.408	1	5
476.601	1	1
477.793	1	1
478.986	1	0
480.179	1	2
481.371	1	8
482.564	1	-1
483.756	1	15
484.948	1	1
486.141	1	-2
487.333	1	9
488.525	1	2
489.718	1	5
490.910	1	2
492.102	1	0
493.294	1	17
494.486	1	0
495.678	1	10
496.870	1	-1
498.062	1	-2
499.254	1	-3
500.446	1	2
501.638	1	10
502.829	1	1
504.021	1	16
505.213	1	1
506.404	1	-7
507.596	1	7
508.788	1	11
509.979	1	10
511.171	1	10
512.362	1	8
513.553	1	-1
514.745	1	-1
515.936	1	6
517.127	1	6
518.319	1	3
519.510	1	-3
520.701	1	6
521.892	1	-1
523.083	1	-2
524.274	1	-10
525.465	1	1
526.656	1	17
527.847	1	3
529.038	1	4
530.229	1	7
531.419	1	13
532.610	1	4
533.801	1	6
534.991	1	15
536.182	1	9
537.373	1	4
538.563	1	-1
539.754	1	-5
540.944	1	0
542.134	1	1
543.325	1	1
544.515	1	3
545.705	1	10
546.896	1	8
548.086	1	10
549.276	1	14
550.466	1	3
551.656	1	-3
552.846	1	8
554.036	1	10
555.226	1	-11
556.416	1	4
557.606	1	-5
558.796	1	9
559.986	1	-4
561.175	1	1
562.365	1	10
563.555	1	17
564.744	1	9
565.934	1	7
567.123	1	26
568.313	1	-7
569.502	1	10
570.692	1	7
571.881	1	4
573.070	1	7
574.260	1	4
575.449	1	10
576.638	1	5
577.827	1	13
579.016	1	10
580.205	1	0
581.394	1	-4
582.583	1	-4
583.772	1	8
584.961	1	11
586.150	1	7
587.339	1	1
588.528	1	7
589.717	1	10
590.905	1	2
592.094	1	4
593.283	1	0
594.471	1	4
595.660	1	2
596.848	1	9
598.037	1	4
599.225	1	6
600.413	1	6
601.602	1	10
602.790	1	5
603.978	1	-2
605.166	1	-5
606.355	1	8
607.543	1	1
608.731	1	-1
609.919	1	3
611.107	1	12
612.295	1	4
613.483	1	0
614.671	1	5
615.858	1	5
617.046	1	3
618.234	1	-5
619.422	1	2
620.609	1	8
621.797	1	-2
622.985	1	5
624.172	1	13
625.360	1	-2
626.547	1	7
627.735	1	4
628.922	1	-2
630.109	1	3
631.297	1	-4
632.484	1	-8
633.671	1	2
634.858	1	8
636.045	1	5
637.232	1	10
638.419	1	11
639.606	1	11
640.793	1	12
641.980	1	1
643.167	1	4
644.354	1	6
645.541	1	-11
646.728	1	9
647.914	1	-7
649.101	1	2
650.288	1	6
651.474	1	4
652.661	1	2
653.847	1	4
655.034	1	3
656.220	1	0
657.406	1	3
658.593	1	-1
659.779	1	-2
660.965	1	9
662.152	1	6
663.338	1	-5
664.524	1	1
665.710	1	-3
666.896	1	-2
668.082	1	-8
669.268	1	0
670.454	1	3
671.640	1	-10
672.826	1	-8
674.011	1	8
675.197	1	-2
676.383	1	3
677.569	1	3
678.754	1	1
679.940	1	3
681.125	1	3
682.311	1	7
683.496	1	-1
684.682	1	0
685.867	1	5
687.053	1	5
688.238	1	-2
688.746	1	-2

File: GaN_sample E_spot4_UVVIS_68 K_200um_200 ms 2x2mm1_311.txt
340.368	1	7
341.565	1	-5
342.763	1	-5
343.960	1	-5
345.157	1	8
346.354	1	-1
347.552	1	2
348.749	1	16
349.946	1	7
351.143	1	-16
352.340	1	7
353.537	1	-2
354.734	1	-5
355.931	1	11
357.127	1	6
358.324	1	6
359.521	1	1
360.718	1	-2
361.914	1	2
363.111	1	9
364.308	1	0
365.504	1	1
366.701	1	-5
367.897	1	17
369.093	1	6
370.290	1	-8
371.486	1	15
372.682	1	3
373.879	1	11
375.075	1	13
376.271	1	3
377.467	1	2
378.663	1	5
379.859	1	-11
381.055	1	7
382.251	1	13
383.447	1	15
384.643	1	18
385.839	1	7
387.035	1	9
388.230	1	5
389.426	1	9
390.622	1	3
391.817	1	11
393.013	1	16
394.208	1	12
395.404	1	6
396.599	1	15
397.795	1	5
398.990	1	10
400.186	1	19
401.381	1	14
402.576	1	18
403.771	1	11
404.967	1	10
406.162	1	7
407.357	1	13
408.552	1	4
409.747	1	-4
410.942	1	11
412.137	1	12
413.332	1	2
414.526	1	5
415.721	1	9
416.916	1	0
418.111	1	4
419.305	1	9
420.500	1	5
421.695	1	4
422.889	1	11
424.084	1	13
425.278	1	1
426.472	1	0
427.667	1	12
428.861	1	1
430.055	1	3
431.250	1	-3
432.444	1	8
433.638	1	-2
434.832	1	0
436.026	1	8
437.220	1	10
438.414	1	6
439.608	1	6
440.802	1	7
441.996	1	13
443.190	1	-11
444.384	1	0
445.578	1	11
446.771	1	1
447.965	1	-3
449.159	1	-9
450.352	1	11
451.546	1	13
452.739	1	0
453.933	1	7
455.126	1	6
456.320	1	-2
457.513	1	12
458.706	1	7
459.899	1	16
461.093	1	9
462.286	1	9
463.479	1	15
464.672	1	-2
465.865	1	0
467.058	1	13
468.251	1	5
469.444	1	-5
470.637	1	8
471.830	1	19
473.023	1	-1
474.215	1	4
475.408	1	13
476.601	1	-1
477.793	1	10
478.986	1	0
480.179	1	1
481.371	1	9
482.564	1	-5
483.756	1	4
484.948	1	7
486.141	1	3
487.333	1	10
488.525	1	-8
489.718	1	-2
490.910	1	3
492.102	1	0
493.294	1	9
494.486	1	4
495.678	1	8
496.870	1	-2
498.062	1	-2
499.254	1	-6
500.446	1	8
501.638	1	8
502.829	1	6
504.021	1	15
505.213	1	0
506.404	1	9
507.596	1	12
508.788	1	1
509.979	1	-6
511.171	1	18
512.362	1	3
513.553	1	-1
514.745	1	4
515.936	1	7
517.127	1	4
518.319	1	3
519.510	1	2
520.701	1	12
521.892	1	2
523.083	1	4
524.274	1	3
525.465	1	4
526.656	1	13
527.847	1	2
529.038	1	13
530.229	1	7
531.419	1	13
532.610	1	11
533.801	1	3
534.991	1	0
536.182	1	0
537.373	1	-2
538.563	1	8
539.754	1	-1
540.944	1	11
542.134	1	10
543.325	1	0
544.515	1	5
545.705	1	8
546.896	1	-1
548.086	1	6
549.276	1	7
550.466	1	-3
551.656	1	2
552.846	1	12
554.036	1	17
555.226	1	3
556.416	1	1
557.606	1	-6
558.796	1	-6
559.986	1	4
561.175	1	12
562.365	1	5
563.555	1	10
564.744	1	6
565.934	1	8
567.123	1	19
568.313	1	-2
569.502	1	13
570.692	1	11
571.881	1	8
573.070	1	4
574.260	1	6
575.449	1	5
576.638	1	14
577.827	1	12
579.016	1	9
580.205	1	4
581.394	1	-4
582.583	1	-3
583.772	1	1
584.961	1	-4
586.150	1	0
587.339	1	2
588.528	1	6
589.717	1	-1
590.905	1	3
592.094	1	6
593.283	1	6
594.471	1	1
595.660	1	5
596.848	1	10
598.037	1	7
599.225	1	2
600.413	1	16
601.602	1	4
602.790	1	6
603.978	1	5
605.166	1	0
606.355	1	5
607.543	1	-5
608.731	1	-7
609.919	1	-3
611.107	1	10
612.295	1	-5
613.483	1	9
614.671	1	-3
615.858	1	12
617.046	1	8
618.234	1	5
619.422	1	-2
620.609	1	5
621.797	1	6
622.985	1	7
624.172	1	13
625.360	1	-9
626.547	1	-2
627.735	1	10
628.922	1	5
630.109	1	1
631.297	1	-3
632.484	1	2
633.671	1	7
634.858	1	0
636.045	1	6
637.232	1	6
638.419	1	12
639.606	1	12
640.793	1	6
641.980	1	4
643.167	1	8
644.354	1	-4
645.541	1	-4
646.728	1	9
647.914	1	6
649.101	1	11
650.288	1	-1
651.474	1	8
652.661	1	3
653.847	1	10
655.034	1	11
656.220	1	0
657.406	1	5
658.593	1	3
659.779	1	-5
660.965	1	4
662.152	1	-7
663.338	1	-12
664.524	1	-7
665.710	1	2
666.896	1	-3
668.082	1	-2
669.268	1	-4
670.454	1	10
671.640	1	-17
672.826	1	-15
674.011	1	9
675.197	1	4
676.383	1	-2
677.569	1	2
678.754	1	-6
679.940	1	3
681.125	1	3
682.311	1	1
683.496	1	-8
684.682	1	14
685.867	1	3
687.053	1	8
688.238	1	-3
688.746	1	6

File: GaN_sample E_spot4_UVVIS_68 K_200um_200 ms 2x2mm1_315.txt
340.368	1	6
341.565	1	-2
342.763	1	6
343.960	1	0
345.157	1	12
346.354	1	3
347.552	1	2
348.749	1	8
349.946	1	16
351.143	1	-5
352.340	1	2
353.537	1	-5
354.734	1	-2
355.931	1	4
357.127	1	6
358.324	1	5
359.521	1	2
360.718	1	1
361.914	1	1
363.111	1	9
364.308	1	-1
365.504	1	0
366.701	1	8
367.897	1	14
369.093	1	12
370.290	1	0
371.486	1	22
372.682	1	0
373.879	1	8
375.075	1	9
376.271	1	-3
377.467	1	-1
378.663	1	-3
379.859	1	-3
381.055	1	3
382.251	1	10
383.447	1	12
384.643	1	16
385.839	1	12
387.035	1	15
388.230	1	-1
389.426	1	12
390.622	1	4
391.817	1	3
393.013	1	14
394.208	1	2
395.404	1	7
396.599	1	15
397.795	1	10
398.990	1	3
400.186	1	12
401.381	1	11
402.576	1	26
403.771	1	16
404.967	1	8
406.162	1	3
407.357	1	8
408.552	1	8
409.747	1	1
410.942	1	12
412.137	1	22
413.332	1	6
414.526	1	8
415.721	1	3
416.916	1	1
418.111	1	11
419.305	1	9
420.500	1	14
421.695	1	8
422.889	1	14
424.084	1	4
425.278	1	-3
426.472	1	-1
427.667	1	10
428.861	1	0
430.055	1	1
431.250	1	-11
432.444	1	4
433.638	1	-2
434.832	1	0
436.026	1	2
437.220	1	2
438.414	1	6
439.608	1	7
440.802	1	12
441.996	1	-6
443.190	1	-3
444.384	1	4
445.578	1	4
446.771	1	-8
447.965	1	-3
449.159	1	-9
450.352	1	4
451.546	1	8
452.739	1	0
453.933	1	1
455.126	1	3
456.320	1	3
457.513	1	9
458.706	1	0
459.899	1	11
461.093	1	2
462.286	1	16
463.479	1	14
464.672	1	2
465.865	1	6
467.058	1	13
468.251	1	0
469.444	1	-3
470.637	1	12
471.830	1	22
473.023	1	-2
474.215	1	-7
475.408	1	6
476.601	1	2
477.793	1	10
478.986	1	5
480.179	1	2
481.371	1	3
482.564	1	-12
483.756	1	13
484.948	1	-6
486.141	1	0
487.333	1	3
488.525	1	0
489.718	1	-6
490.910	1	-2
492.102	1	-2
493.294	1	7
494.486	1	8
495.678	1	8
496.870	1	4
498.062	1	-5
499.254	1	2
500.446	1	13
501.638	1	2
502.829	1	6
504.021	1	16
505.213	1	-3
506.404	1	1
507.596	1	5
508.788	1	-2
509.979	1	7
511.171	1	15
512.362	1	-6
513.553	1	-2
514.745	1	-1
515.936	1	12
517.127	1	13
518.319	1	0
519.510	1	5
520.701	1	15
521.892	1	-10
523.083	1	6
524.274	1	-3
525.465	1	8
526.656	1	17
527.847	1	5
529.038	1	10
530.229	1	4
531.419	1	6
532.610	1	12
533.801	1	4
534.991	1	4
536.182	1	3
537.373	1	3
538.563	1	9
539.754	1	-2
540.944	1	-2
542.134	1	14
543.325	1	9
544.515	1	3
545.705	1	8
546.896	1	6
548.086	1	8
549.276	1	14
550.466	1	-1
551.656	1	-8
552.846	1	8
554.036	1	7
555.226	1	-3
556.416	1	5
557.606	1	-3
558.796	1	2
559.986	1	4
561.175	1	10
562.365	1	0
563.555	1	18
564.744	1	7
565.934	1	9
567.123	1	6
568.313	1	0
569.502	1	4
570.692	1	10
571.881	1	6
573.070	1	4
574.260	1	3
575.449	1	6
576.638	1	11
577.827	1	5
579.016	1	14
580.205	1	1
581.394	1	-2
582.583	1	-5
583.772	1	0
584.961	1	2
586.150	1	-1
587.339	1	7
588.528	1	2
589.717	1	-2
590.905	1	6
592.094	1	8
593.283	1	-1
594.471	1	1
595.660	1	8
596.848	1	11
598.037	1	-5
599.225	1	5
600.413	1	1
601.602	1	3
602.790	1	5
603.978	1	2
605.166	1	1
606.355	1	1
607.543	1	-2
608.731	1	-1
609.919	1	-3
611.107	1	2
612.295	1	7
613.483	1	-1
614.671	1	2
615.858	1	10
617.046	1	5
618.234	1	7
619.422	1	-3
620.609	1	7
621.797	1	3
622.985	1	3
624.172	1	12
625.360	1	-4
626.547	1	11
627.735	1	5
628.922	1	-6
630.109	1	9
631.297	1	3
632.484	1	0
633.671	1	5
634.858	1	8
636.045	1	0
637.232	1	-5
638.419	1	3
639.606	1	13
640.793	1	8
641.980	1	-5
643.167	1	5
644.354	1	0
645.541	1	-8
646.728	1	-1
647.914	1	0
649.101	1	8
650.288	1	-3
651.474	1	11
652.661	1	7
653.847	1	12
655.034	1	0
656.220	1	8
657.406	1	11
658.593	1	-6
659.779	1	-6
660.965	1	1
662.152	1	1
663.338	1	2
664.524	1	-7
665.710	1	-5
666.896	1	-4
668.082	1	7
669.268	1	-1
670.454	1	5
671.640	1	-16
672.826	1	-19
674.011	1	0
675.197	1	-2
676.383	1	2
677.569	1	1
678.754	1	2
679.940	1	7
681.125	1	6
682.311	1	3
683.496	1	-2
684.682	1	4
685.867	1	1
687.053	1	2
688.238	1	8
688.746	1	-1

File: GaN_sample E_spot4_UVVIS_68 K_200um_200 ms 2x2mm1_319.txt
340.368	1	8
341.565	1	-11
342.763	1	1
343.960	1	-5
345.157	1	5
346.354	1	-4
347.552	1	1
348.749	1	6
349.946	1	18
351.143	1	-11
352.340	1	4
353.537	1	-2
354.734	1	1
355.931	1	1
357.127	1	7
358.324	1	4
359.521	1	2
360.718	1	6
361.914	1	3
363.111	1	15
364.308	1	2
365.504	1	3
366.701	1	5
367.897	1	4
369.093	1	4
370.290	1	-1
371.486	1	3
372.682	1	-4
373.879	1	18
375.075	1	16
376.271	1	-3
377.467	1	5
378.663	1	0
379.859	1	-6
381.055	1	10
382.251	1	9
383.447	1	19
384.643	1	3
385.839	1	11
387.035	1	10
388.230	1	5
389.426	1	11
390.622	1	12
391.817	1	8
393.013	1	22
394.208	1	7
395.404	1	4
396.599	1	12
397.795	1	12
398.990	1	8
400.186	1	20
401.381	1	11
402.576	1	22
403.771	1	17
404.967	1	10
406.162	1	7
407.357	1	8
408.552	1	7
409.747	1	0
410.942	1	15
412.137	1	10
413.332	1	11
414.526	1	7
415.721	1	2
416.916	1	2
418.111	1	6
419.305	1	5
420.500	1	7
421.695	1	13
422.889	1	13
424.084	1	7
425.278	1	-10
426.472	1	3
427.667	1	11
428.861	1	-6
430.055	1	9
431.250	1	-12
432.444	1	11
433.638	1	0
434.832	1	5
436.026	1	5
437.220	1	13
438.414	1	3
439.608	1	0
440.802	1	8
441.996	1	2
443.190	1	-9
444.384	1	11
445.578	1	3
446.771	1	6
447.965	1	-3
449.159	1	1
450.352	1	13
451.546	1	3
452.739	1	4
453.933	1	12
455.126	1	-5
456.320	1	-4
457.513	1	10
458.706	1	3
459.899	1	4
461.093	1	1
462.286	1	7
463.479	1	3
464.672	1	1
465.865	1	-2
467.058	1	8
468.251	1	-3
469.444	1	-1
470.637	1	17
471.830	1	14
473.023	1	0
474.215	1	4
475.408	1	2
476.601	1	5
477.793	1	10
478.986	1	-4
480.179	1	-2
481.371	1	7
482.564	1	-2
483.756	1	7
484.948	1	-7
486.141	1	-7
487.333	1	4
488.525	1	8
489.718	1	-5
490.910	1	-2
492.102	1	-3
493.294	1	5
494.486	1	1
495.678	1	14
496.870	1	1
498.062	1	7
499.254	1	4
500.446	1	4
501.638	1	10
502.829	1	5
504.021	1	18
505.213	1	9
506.404	1	0
507.596	1	3
508.788	1	4
509.979	1	4
511.171	1	18
512.362	1	8
513.553	1	0
514.745	1	4
515.936	1	5
517.127	1	13
518.319	1	6
519.510	1	-3
520.701	1	11
521.892	1	-9
523.083	1	9
524.274	1	6
525.465	1	3
526.656	1	17
527.847	1	-1
529.038	1	12
530.229	1	5
531.419	1	17
532.610	1	5
533.801	1	6
534.991	1	18
536.182	1	12
537.373	1	1
538.563	1	3
539.754	1	-2
540.944	1	9
542.134	1	16
543.325	1	8
544.515	1	10
545.705	1	8
546.896	1	2
548.086	1	14
549.276	1	4
550.466	1	1
551.656	1	4
552.846	1	1
554.036	1	6
555.226	1	-3
556.416	1	3
557.606	1	-4
558.796	1	5
559.986	1	6
561.175	1	-2
562.365	1	4
563.555	1	8
564.744	1	13
565.934	1	10
567.123	1	10
568.313	1	-1
569.502	1	6
570.692	1	6
571.881	1	8
573.070	1	8
574.260	1	6
575.449	1	9
576.638	1	7
577.827	1	7
579.016	1	11
580.205	1	8
581.394	1	-1
582.583	1	6
583.772	1	7
584.961	1	7
586.150	1	7
587.339	1	7
588.528	1	14
589.717	1	-1
590.905	1	11
592.094	1	-2
593.283	1	11
594.471	1	1
595.660	1	-1
596.848	1	11
598.037	1	8
599.225	1	9
600.413	1	2
601.602	1	5
602.790	1	1
603.978	1	-5
605.166	1	0
606.355	1	8
607.543	1	0
608.731	1	-6
609.919	1	-7
611.107	1	8
612.295	1	-1
613.483	1	0
614.671	1	2
615.858	1	4
617.046	1	3
618.234	1	7
619.422	1	6
620.609	1	-1
621.797	1	3
622.985	1	5
624.172	1	9
625.360	1	3
626.547	1	7
627.735	1	5
628.922	1	4
630.109	1	-3
631.297	1	7
632.484	1	-11
633.671	1	6
634.858	1	-2
636.045	1	-5
637.232	1	5
638.419	1	4
639.606	1	16
640.793	1	3
641.980	1	4
643.167	1	1
644.354	1	5
645.541	1	-13
646.728	1	12
647.914	1	-4
649.101	1	1
650.288	1	-3
651.474	1	11
652.661	1	11
653.847	1	18
655.034	1	5
656.220	1	4
657.406	1	2
658.593	1	2
659.779	1	2
660.965	1	-4
662.152	1	11
663.338	1	-1
664.524	1	-4
665.710	1	0
666.896	1	-5
668.082	1	-2
669.268	1	6
670.454	1	7
671.640	1	-15
672.826	1	-17
674.011	1	8
675.197	1	-7
676.383	1	1
677.569	1	-7
678.754	1	0
679.940	1	5
681.125	1	5
682.311	1	-3
683.496	1	2
684.682	1	7
685.867	1	0
687.053	1	1
688.238	1	3
688.746	1	7

File: GaN_sample E_spot4_UVVIS_68 K_200um_200 ms 2x2mm1_320.txt
340.368	1	-6
341.565	1	-4
342.763	1	-4
343.960	1	-1
345.157	1	3
346.354	1	13
347.552	1	0
348.749	1	18
349.946	1	2
351.143	1	-1
352.340	1	1
353.537	1	6
354.734	1	1
355.931	1	4
357.127	1	3
358.324	1	5
359.521	1	2
360.718	1	5
361.914	1	2
363.111	1	7
364.308	1	0
365.504	1	2
366.701	1	-6
367.897	1	0
369.093	1	10
370.290	1	9
371.486	1	6
372.682	1	-2
373.879	1	5
375.075	1	6
376.271	1	-5
377.467	1	-2
378.663	1	-3
379.859	1	0
381.055	1	2
382.251	1	1
383.447	1	9
384.643	1	15
385.839	1	16
387.035	1	5
388.230	1	2
389.426	1	17
390.622	1	1
391.817	1	9
393.013	1	8
394.208	1	6
395.404	1	17
396.599	1	7
397.795	1	11
398.990	1	14
400.186	1	18
401.381	1	5
402.576	1	18
403.771	1	10
404.967	1	14
406.162	1	9
407.357	1	15
408.552	1	7
409.747	1	5
410.942	1	9
412.137	1	19
413.332	1	-2
414.526	1	4
415.721	1	5
416.916	1	-2
418.111	1	4
419.305	1	0
420.500	1	14
421.695	1	5
422.889	1	10
424.084	1	10
425.278	1	-3
426.472	1	-11
427.667	1	10
428.861	1	5
430.055	1	3
431.250	1	-1
432.444	1	3
433.638	1	0
434.832	1	5
436.026	1	1
437.220	1	13
438.414	1	2
439.608	1	6
440.802	1	-1
441.996	1	10
443.190	1	0
444.384	1	6
445.578	1	17
446.771	1	7
447.965	1	-2
449.159	1	-3
450.352	1	8
451.546	1	2
452.739	1	5
453.933	1	3
455.126	1	14
456.320	1	3
457.513	1	5
458.706	1	-8
459.899	1	11
461.093	1	5
462.286	1	13
463.479	1	11
464.672	1	-4
465.865	1	2
467.058	1	11
468.251	1	-1
469.444	1	2
470.637	1	20
471.830	1	11
473.023	1	0
474.215	1	7
475.408	1	2
476.601	1	5
477.793	1	6
478.986	1	-8
480.179	1	8
481.371	1	3
482.564	1	0
483.756	1	1
484.948	1	-10
486.141	1	-16
487.333	1	-6
488.525	1	2
489.718	1	-6
490.910	1	-2
492.102	1	-7
493.294	1	13
494.486	1	4
495.678	1	23
496.870	1	-7
498.062	1	0
499.254	1	5
500.446	1	12
501.638	1	5
502.829	1	6
504.021	1	25
505.213	1	-6
506.404	1	-4
507.596	1	0
508.788	1	2
509.979	1	0
511.171	1	12
512.362	1	8
513.553	1	-5
514.745	1	8
515.936	1	10
517.127	1	8
518.319	1	5
519.510	1	7
520.701	1	8
521.892	1	5
523.083	1	2
524.274	1	-4
525.465	1	-1
526.656	1	23
527.847	1	3
529.038	1	10
530.229	1	5
531.419	1	17
532.610	1	6
533.801	1	3
534.991	1	-2
536.182	1	13
537.373	1	2
538.563	1	0
539.754	1	1
540.944	1	3
542.134	1	7
543.325	1	2
544.515	1	4
545.705	1	5
546.896	1	10
548.086	1	15
549.276	1	10
550.466	1	2
551.656	1	-2
552.846	1	0
554.036	1	1
555.226	1	-1
556.416	1	-2
557.606	1	-2
558.796	1	6
559.986	1	-6
561.175	1	-2
562.365	1	11
563.555	1	15
564.744	1	13
565.934	1	7
567.123	1	10
568.313	1	1
569.502	1	-3
570.692	1	8
571.881	1	6
573.070	1	4
574.260	1	-3
575.449	1	4
576.638	1	-2
577.827	1	7
579.016	1	11
580.205	1	-1
581.394	1	-3
582.583	1	1
583.772	1	5
584.961	1	9
586.150	1	6
587.339	1	12
588.528	1	5
589.717	1	7
590.905	1	13
592.094	1	3
593.283	1	2
594.471	1	2
595.660	1	8
596.848	1	9
598.037	1	4
599.225	1	3
600.413	1	8
601.602	1	4
602.790	1	-4
603.978	1	6
605.166	1	-1
606.355	1	3
607.543	1	-6
608.731	1	-6
609.919	1	-2
611.107	1	8
612.295	1	6
613.483	1	4
614.671	1	1
615.858	1	4
617.046	1	12
618.234	1	7
619.422	1	6
620.609	1	-7
621.797	1	8
622.985	1	11
624.172	1	14
625.360	1	-10
626.547	1	-5
627.735	1	10
628.922	1	2
630.109	1	-7
631.297	1	-7
632.484	1	-8
633.671	1	11
634.858	1	10
636.045	1	1
637.232	1	-5
638.419	1	10
639.606	1	11
640.793	1	5
641.980	1	-2
643.167	1	9
644.354	1	6
645.541	1	-1
646.728	1	9
647.914	1	1
649.101	1	10
650.288	1	2
651.474	1	3
652.661	1	1
653.847	1	1
655.034	1	7
656.220	1	1
657.406	1	10
658.593	1	-10
659.779	1	2
660.965	1	3
662.152	1	5
663.338	1	0
664.524	1	-5
665.710	1	-2
666.896	1	3
668.082	1	3
669.268	1	3
670.454	1	3
671.640	1	-19
672.826	1	-6
674.011	1	1
675.197	1	-4
676.383	1	-1
677.569	1	1
678.754	1	3
679.940	1	-8
681.125	1	5
682.311	1	0
683.496	1	-5
684.682	1	2
685.867	1	-1
687.053	1	1
688.238	1	6
688.746	1	14

File: GaN_sample E_spot4_UVVIS_68 K_200um_200 ms 2x2mm1_324.txt
340.368	1	3
341.565	1	-6
342.763	1	2
343.960	1	-6
345.157	1	8
346.354	1	-4
347.552	1	-3
348.749	1	1
349.946	1	19
351.143	1	-10
352.340	1	5
353.537	1	3
354.734	1	0
355.931	1	2
357.127	1	8
358.324	1	0
359.521	1	9
360.718	1	-2
361.914	1	-1
363.111	1	13
364.308	1	9
365.504	1	2
366.701	1	3
367.897	1	11
369.093	1	2
370.290	1	-1
371.486	1	11
372.682	1	4
373.879	1	14
375.075	1	6
376.271	1	-3
377.467	1	6
378.663	1	-4
379.859	1	6
381.055	1	-2
382.251	1	12
383.447	1	17
384.643	1	13
385.839	1	1
387.035	1	8
388.230	1	9
389.426	1	23
390.622	1	1
391.817	1	17
393.013	1	9
394.208	1	11
395.404	1	5
396.599	1	9
397.795	1	13
398.990	1	7
400.186	1	23
401.381	1	8
402.576	1	16
403.771	1	8
404.967	1	12
406.162	1	-2
407.357	1	6
408.552	1	6
409.747	1	9
410.942	1	10
412.137	1	-1
413.332	1	-1
414.526	1	14
415.721	1	10
416.916	1	14
418.111	1	2
419.305	1	0
420.500	1	2
421.695	1	3
422.889	1	2
424.084	1	4
425.278	1	-8
426.472	1	-11
427.667	1	11
428.861	1	4
430.055	1	-1
431.250	1	-8
432.444	1	8
433.638	1	6
434.832	1	3
436.026	1	6
437.220	1	13
438.414	1	6
439.608	1	9
440.802	1	7
441.996	1	-1
443.190	1	-4
444.384	1	1
445.578	1	7
446.771	1	2
447.965	1	-5
449.159	1	3
450.352	1	0
451.546	1	-2
452.739	1	9
453.933	1	8
455.126	1	3
456.320	1	-2
457.513	1	7
458.706	1	3
459.899	1	9
461.093	1	8
462.286	1	11
463.479	1	22
464.672	1	2
465.865	1	1
467.058	1	17
468.251	1	6
469.444	1	-1
470.637	1	18
471.830	1	14
473.023	1	-6
474.215	1	-2
475.408	1	0
476.601	1	1
477.793	1	5
478.986	1	-3
480.179	1	10
481.371	1	2
482.564	1	-16
483.756	1	8
484.948	1	-7
486.141	1	-2
487.333	1	2
488.525	1	8
489.718	1	2
490.910	1	3
492.102	1	4
493.294	1	7
494.486	1	4
495.678	1	10
496.870	1	7
498.062	1	3
499.254	1	-9
500.446	1	11
501.638	1	4
502.829	1	2
504.021	1	22
505.213	1	6
506.404	1	3
507.596	1	19
508.788	1	1
509.979	1	5
511.171	1	22
512.362	1	3
513.553	1	-2
514.745	1	3
515.936	1	1
517.127	1	11
518.319	1	4
519.510	1	17
520.701	1	4
521.892	1	3
523.083	1	3
524.274	1	1
525.465	1	-1
526.656	1	16
527.847	1	6
529.038	1	10
530.229	1	4
531.419	1	20
532.610	1	2
533.801	1	5
534.991	1	2
536.182	1	8
537.373	1	4
538.563	1	6
539.754	1	-2
540.944	1	3
542.134	1	18
543.325	1	4
544.515	1	9
545.705	1	9
546.896	1	6
548.086	1	4
549.276	1	5
550.466	1	-3
551.656	1	-1
552.846	1	5
554.036	1	8
555.226	1	-4
556.416	1	3
557.606	1	-4
558.796	1	-1
559.986	1	-4
561.175	1	2
562.365	1	1
563.555	1	13
564.744	1	7
565.934	1	11
567.123	1	12
568.313	1	-3
569.502	1	4
570.692	1	6
571.881	1	2
573.070	1	12
574.260	1	1
575.449	1	14
576.638	1	3
577.827	1	13
579.016	1	12
580.205	1	-2
581.394	1	-1
582.583	1	-4
583.772	1	7
584.961	1	0
586.150	1	5
587.339	1	5
588.528	1	8
589.717	1	4
590.905	1	7
592.094	1	1
593.283	1	9
594.471	1	2
595.660	1	-3
596.848	1	11
598.037	1	-4
599.225	1	0
600.413	1	-2
601.602	1	5
602.790	1	4
603.978	1	-4
605.166	1	0
606.355	1	9
607.543	1	-6
608.731	1	-3
609.919	1	-6
611.107	1	7
612.295	1	9
613.483	1	13
614.671	1	0
615.858	1	2
617.046	1	2
618.234	1	8
619.422	1	5
620.609	1	4
621.797	1	-2
622.985	1	0
624.172	1	12
625.360	1	-10
626.547	1	7
627.735	1	11
628.922	1	3
630.109	1	-1
631.297	1	-1
632.484	1	8
633.671	1	1
634.858	1	7
636.045	1	1
637.232	1	-2
638.419	1	2
639.606	1	9
640.793	1	1
641.980	1	-2
643.167	1	13
644.354	1	-2
645.541	1	-12
646.728	1	7
647.914	1	3
649.101	1	-1
650.288	1	-5
651.474	1	0
652.661	1	6
653.847	1	4
655.034	1	6
656.220	1	5
657.406	1	4
658.593	1	-16
659.779	1	-1
660.965	1	1
662.152	1	-2
663.338	1	-5
664.524	1	-6
665.710	1	-1
666.896	1	-1
668.082	1	5
669.268	1	3
670.454	1	0
671.640	1	-17
672.826	1	-7
674.011	1	8
675.197	1	4
676.383	1	5
677.569	1	-1
678.754	1	-6
679.940	1	-3
681.125	1	8
682.311	1	-7
683.496	1	-3
684.682	1	4
685.867	1	5
687.053	1	4
688.238	1	0
688.746	1	-2