Folder: cryo-il_analysis/Analysis/GaN_68K_200ms (part 35)

File: GaN_sample E_spot4_UVVIS_68 K_200um_200 ms 2x2mm1_816.txt
340.368	1	3
341.565	1	-6
342.763	1	-2
343.960	1	-3
345.157	1	2
346.354	1	4
347.552	1	-3
348.749	1	10
349.946	1	7
351.143	1	-13
352.340	1	4
353.537	1	-5
354.734	1	-14
355.931	1	-7
357.127	1	2
358.324	1	-7
359.521	1	-4
360.718	1	-10
361.914	1	-6
363.111	1	10
364.308	1	-3
365.504	1	-5
366.701	1	-9
367.897	1	-5
369.093	1	-6
370.290	1	3
371.486	1	8
372.682	1	-3
373.879	1	5
375.075	1	7
376.271	1	-5
377.467	1	-3
378.663	1	-4
379.859	1	-2
381.055	1	-1
382.251	1	3
383.447	1	8
384.643	1	-8
385.839	1	11
387.035	1	-2
388.230	1	-2
389.426	1	11
390.622	1	-4
391.817	1	-10
393.013	1	-5
394.208	1	8
395.404	1	0
396.599	1	2
397.795	1	5
398.990	1	7
400.186	1	8
401.381	1	3
402.576	1	6
403.771	1	5
404.967	1	0
406.162	1	-6
407.357	1	1
408.552	1	4
409.747	1	-3
410.942	1	-5
412.137	1	11
413.332	1	2
414.526	1	-2
415.721	1	2
416.916	1	-1
418.111	1	2
419.305	1	-5
420.500	1	-4
421.695	1	-2
422.889	1	6
424.084	1	10
425.278	1	-9
426.472	1	-7
427.667	1	5
428.861	1	-5
430.055	1	0
431.250	1	-18
432.444	1	2
433.638	1	4
434.832	1	-3
436.026	1	1
437.220	1	8
438.414	1	0
439.608	1	1
440.802	1	2
441.996	1	2
443.190	1	-18
444.384	1	-4
445.578	1	2
446.771	1	-13
447.965	1	-3
449.159	1	3
450.352	1	9
451.546	1	-4
452.739	1	1
453.933	1	-2
455.126	1	7
456.320	1	-10
457.513	1	3
458.706	1	5
459.899	1	-1
461.093	1	11
462.286	1	3
463.479	1	8
464.672	1	0
465.865	1	-2
467.058	1	16
468.251	1	1
469.444	1	0
470.637	1	6
471.830	1	8
473.023	1	-7
474.215	1	2
475.408	1	5
476.601	1	3
477.793	1	11
478.986	1	-3
480.179	1	-1
481.371	1	6
482.564	1	-14
483.756	1	6
484.948	1	1
486.141	1	-14
487.333	1	6
488.525	1	-8
489.718	1	-7
490.910	1	-13
492.102	1	-11
493.294	1	7
494.486	1	1
495.678	1	6
496.870	1	6
498.062	1	-7
499.254	1	-5
500.446	1	5
501.638	1	-4
502.829	1	-4
504.021	1	20
505.213	1	-3
506.404	1	-5
507.596	1	6
508.788	1	-3
509.979	1	-2
511.171	1	4
512.362	1	-3
513.553	1	-2
514.745	1	4
515.936	1	1
517.127	1	1
518.319	1	-6
519.510	1	-3
520.701	1	2
521.892	1	-10
523.083	1	-2
524.274	1	-7
525.465	1	2
526.656	1	13
527.847	1	-5
529.038	1	-2
530.229	1	3
531.419	1	13
532.610	1	6
533.801	1	-3
534.991	1	-4
536.182	1	1
537.373	1	-9
538.563	1	3
539.754	1	-4
540.944	1	4
542.134	1	0
543.325	1	-4
544.515	1	2
545.705	1	8
546.896	1	-1
548.086	1	5
549.276	1	8
550.466	1	-11
551.656	1	-8
552.846	1	-2
554.036	1	7
555.226	1	-1
556.416	1	-1
557.606	1	-5
558.796	1	-5
559.986	1	-6
561.175	1	3
562.365	1	-2
563.555	1	8
564.744	1	8
565.934	1	0
567.123	1	13
568.313	1	-2
569.502	1	-2
570.692	1	10
571.881	1	0
573.070	1	4
574.260	1	-8
575.449	1	1
576.638	1	-4
577.827	1	2
579.016	1	16
580.205	1	-3
581.394	1	-8
582.583	1	-9
583.772	1	-14
584.961	1	6
586.150	1	0
587.339	1	3
588.528	1	1
589.717	1	1
590.905	1	10
592.094	1	-5
593.283	1	9
594.471	1	3
595.660	1	-10
596.848	1	1
598.037	1	-1
599.225	1	-4
600.413	1	0
601.602	1	2
602.790	1	-1
603.978	1	-1
605.166	1	-6
606.355	1	10
607.543	1	-6
608.731	1	-8
609.919	1	-3
611.107	1	5
612.295	1	10
613.483	1	0
614.671	1	2
615.858	1	2
617.046	1	4
618.234	1	1
619.422	1	2
620.609	1	-5
621.797	1	3
622.985	1	4
624.172	1	4
625.360	1	-1
626.547	1	6
627.735	1	9
628.922	1	-3
630.109	1	5
631.297	1	-8
632.484	1	-7
633.671	1	-2
634.858	1	16
636.045	1	-3
637.232	1	0
638.419	1	4
639.606	1	9
640.793	1	5
641.980	1	0
643.167	1	5
644.354	1	3
645.541	1	-2
646.728	1	-4
647.914	1	-10
649.101	1	-4
650.288	1	-5
651.474	1	7
652.661	1	2
653.847	1	1
655.034	1	3
656.220	1	-6
657.406	1	4
658.593	1	-9
659.779	1	-1
660.965	1	-4
662.152	1	9
663.338	1	-2
664.524	1	-3
665.710	1	-2
666.896	1	-6
668.082	1	-4
669.268	1	-6
670.454	1	-8
671.640	1	-16
672.826	1	-18
674.011	1	9
675.197	1	-5
676.383	1	1
677.569	1	-1
678.754	1	-3
679.940	1	-1
681.125	1	9
682.311	1	3
683.496	1	-4
684.682	1	11
685.867	1	-11
687.053	1	1
688.238	1	3
688.746	1	8

File: GaN_sample E_spot4_UVVIS_68 K_200um_200 ms 2x2mm1_828.txt
340.368	1	6
341.565	1	-3
342.763	1	-6
343.960	1	-8
345.157	1	3
346.354	1	1
347.552	1	0
348.749	1	-1
349.946	1	3
351.143	1	-4
352.340	1	6
353.537	1	4
354.734	1	-5
355.931	1	6
357.127	1	-3
358.324	1	-2
359.521	1	-4
360.718	1	-7
361.914	1	-7
363.111	1	15
364.308	1	-4
365.504	1	-7
366.701	1	-6
367.897	1	-3
369.093	1	-4
370.290	1	-4
371.486	1	12
372.682	1	-6
373.879	1	13
375.075	1	13
376.271	1	-4
377.467	1	-6
378.663	1	-11
379.859	1	-3
381.055	1	-2
382.251	1	1
383.447	1	5
384.643	1	7
385.839	1	10
387.035	1	-6
388.230	1	-3
389.426	1	1
390.622	1	0
391.817	1	-2
393.013	1	16
394.208	1	-4
395.404	1	2
396.599	1	-1
397.795	1	1
398.990	1	3
400.186	1	8
401.381	1	2
402.576	1	8
403.771	1	0
404.967	1	-2
406.162	1	0
407.357	1	-2
408.552	1	6
409.747	1	-1
410.942	1	1
412.137	1	2
413.332	1	-2
414.526	1	-6
415.721	1	2
416.916	1	-5
418.111	1	-4
419.305	1	-4
420.500	1	4
421.695	1	3
422.889	1	0
424.084	1	8
425.278	1	-13
426.472	1	1
427.667	1	3
428.861	1	2
430.055	1	1
431.250	1	-8
432.444	1	2
433.638	1	0
434.832	1	2
436.026	1	0
437.220	1	5
438.414	1	-1
439.608	1	-4
440.802	1	17
441.996	1	-1
443.190	1	-9
444.384	1	2
445.578	1	10
446.771	1	-8
447.965	1	-9
449.159	1	-4
450.352	1	10
451.546	1	2
452.739	1	1
453.933	1	4
455.126	1	8
456.320	1	2
457.513	1	1
458.706	1	6
459.899	1	6
461.093	1	3
462.286	1	2
463.479	1	12
464.672	1	1
465.865	1	-14
467.058	1	8
468.251	1	-2
469.444	1	4
470.637	1	7
471.830	1	9
473.023	1	-7
474.215	1	0
475.408	1	-1
476.601	1	0
477.793	1	1
478.986	1	-4
480.179	1	-4
481.371	1	-1
482.564	1	-15
483.756	1	15
484.948	1	-3
486.141	1	-10
487.333	1	3
488.525	1	1
489.718	1	-13
490.910	1	0
492.102	1	-6
493.294	1	8
494.486	1	3
495.678	1	5
496.870	1	-2
498.062	1	-8
499.254	1	0
500.446	1	10
501.638	1	8
502.829	1	-5
504.021	1	11
505.213	1	1
506.404	1	-2
507.596	1	2
508.788	1	2
509.979	1	3
511.171	1	11
512.362	1	8
513.553	1	-6
514.745	1	4
515.936	1	4
517.127	1	5
518.319	1	0
519.510	1	-4
520.701	1	6
521.892	1	-8
523.083	1	2
524.274	1	-12
525.465	1	2
526.656	1	16
527.847	1	0
529.038	1	6
530.229	1	3
531.419	1	12
532.610	1	3
533.801	1	1
534.991	1	3
536.182	1	-3
537.373	1	3
538.563	1	8
539.754	1	-10
540.944	1	2
542.134	1	7
543.325	1	-5
544.515	1	-3
545.705	1	6
546.896	1	4
548.086	1	4
549.276	1	6
550.466	1	-6
551.656	1	-12
552.846	1	0
554.036	1	9
555.226	1	-8
556.416	1	2
557.606	1	-12
558.796	1	-6
559.986	1	-12
561.175	1	-1
562.365	1	-9
563.555	1	5
564.744	1	-1
565.934	1	9
567.123	1	11
568.313	1	-12
569.502	1	7
570.692	1	2
571.881	1	8
573.070	1	-1
574.260	1	-8
575.449	1	6
576.638	1	-3
577.827	1	15
579.016	1	7
580.205	1	-1
581.394	1	-13
582.583	1	-11
583.772	1	-5
584.961	1	2
586.150	1	2
587.339	1	0
588.528	1	1
589.717	1	9
590.905	1	-3
592.094	1	0
593.283	1	8
594.471	1	2
595.660	1	9
596.848	1	6
598.037	1	2
599.225	1	3
600.413	1	2
601.602	1	7
602.790	1	-4
603.978	1	-4
605.166	1	-4
606.355	1	3
607.543	1	-3
608.731	1	-9
609.919	1	-10
611.107	1	3
612.295	1	-4
613.483	1	4
614.671	1	9
615.858	1	6
617.046	1	-2
618.234	1	1
619.422	1	3
620.609	1	-2
621.797	1	-2
622.985	1	0
624.172	1	3
625.360	1	-2
626.547	1	5
627.735	1	3
628.922	1	-9
630.109	1	4
631.297	1	-1
632.484	1	-2
633.671	1	1
634.858	1	5
636.045	1	6
637.232	1	-3
638.419	1	2
639.606	1	14
640.793	1	7
641.980	1	-12
643.167	1	9
644.354	1	-11
645.541	1	-3
646.728	1	-5
647.914	1	1
649.101	1	5
650.288	1	-6
651.474	1	-3
652.661	1	7
653.847	1	4
655.034	1	8
656.220	1	0
657.406	1	-3
658.593	1	-3
659.779	1	-7
660.965	1	1
662.152	1	-3
663.338	1	-1
664.524	1	-14
665.710	1	2
666.896	1	-4
668.082	1	1
669.268	1	0
670.454	1	1
671.640	1	-19
672.826	1	-15
674.011	1	1
675.197	1	3
676.383	1	-2
677.569	1	-18
678.754	1	-4
679.940	1	-1
681.125	1	0
682.311	1	-2
683.496	1	-4
684.682	1	-2
685.867	1	2
687.053	1	2
688.238	1	-4
688.746	1	-1

File: GaN_sample E_spot4_UVVIS_68 K_200um_200 ms 2x2mm1_830.txt
340.368	1	4
341.565	1	-10
342.763	1	-3
343.960	1	0
345.157	1	7
346.354	1	-3
347.552	1	-3
348.749	1	2
349.946	1	6
351.143	1	-6
352.340	1	0
353.537	1	2
354.734	1	-8
355.931	1	3
357.127	1	-4
358.324	1	-7
359.521	1	3
360.718	1	0
361.914	1	-7
363.111	1	9
364.308	1	-2
365.504	1	-7
366.701	1	-4
367.897	1	8
369.093	1	-2
370.290	1	-2
371.486	1	7
372.682	1	-4
373.879	1	10
375.075	1	6
376.271	1	-2
377.467	1	-7
378.663	1	-5
379.859	1	-6
381.055	1	-9
382.251	1	3
383.447	1	2
384.643	1	5
385.839	1	6
387.035	1	-1
388.230	1	-9
389.426	1	2
390.622	1	-5
391.817	1	-5
393.013	1	12
394.208	1	6
395.404	1	9
396.599	1	-1
397.795	1	4
398.990	1	9
400.186	1	14
401.381	1	3
402.576	1	4
403.771	1	1
404.967	1	4
406.162	1	-2
407.357	1	-3
408.552	1	3
409.747	1	-5
410.942	1	-3
412.137	1	6
413.332	1	-3
414.526	1	3
415.721	1	7
416.916	1	-3
418.111	1	0
419.305	1	4
420.500	1	2
421.695	1	-2
422.889	1	6
424.084	1	4
425.278	1	-6
426.472	1	-4
427.667	1	4
428.861	1	-9
430.055	1	10
431.250	1	-10
432.444	1	4
433.638	1	-5
434.832	1	-7
436.026	1	-4
437.220	1	4
438.414	1	0
439.608	1	2
440.802	1	-2
441.996	1	0
443.190	1	-4
444.384	1	0
445.578	1	4
446.771	1	-4
447.965	1	-8
449.159	1	-9
450.352	1	6
451.546	1	8
452.739	1	4
453.933	1	6
455.126	1	2
456.320	1	1
457.513	1	12
458.706	1	-7
459.899	1	5
461.093	1	3
462.286	1	5
463.479	1	7
464.672	1	-2
465.865	1	-14
467.058	1	3
468.251	1	-3
469.444	1	-4
470.637	1	6
471.830	1	9
473.023	1	-5
474.215	1	-8
475.408	1	4
476.601	1	2
477.793	1	0
478.986	1	-5
480.179	1	2
481.371	1	-1
482.564	1	-14
483.756	1	10
484.948	1	-8
486.141	1	-19
487.333	1	-3
488.525	1	-5
489.718	1	-9
490.910	1	3
492.102	1	-2
493.294	1	2
494.486	1	5
495.678	1	5
496.870	1	-3
498.062	1	-8
499.254	1	5
500.446	1	-1
501.638	1	-9
502.829	1	0
504.021	1	12
505.213	1	-4
506.404	1	-7
507.596	1	7
508.788	1	-7
509.979	1	-6
511.171	1	3
512.362	1	-3
513.553	1	-11
514.745	1	-1
515.936	1	1
517.127	1	-4
518.319	1	-4
519.510	1	4
520.701	1	6
521.892	1	-12
523.083	1	-9
524.274	1	-5
525.465	1	-1
526.656	1	17
527.847	1	-9
529.038	1	5
530.229	1	1
531.419	1	2
532.610	1	-2
533.801	1	3
534.991	1	-8
536.182	1	-1
537.373	1	-4
538.563	1	4
539.754	1	-5
540.944	1	-6
542.134	1	3
543.325	1	-2
544.515	1	-1
545.705	1	-2
546.896	1	1
548.086	1	1
549.276	1	8
550.466	1	-4
551.656	1	-5
552.846	1	4
554.036	1	-2
555.226	1	-10
556.416	1	1
557.606	1	-10
558.796	1	-2
559.986	1	-1
561.175	1	-3
562.365	1	9
563.555	1	12
564.744	1	6
565.934	1	-2
567.123	1	18
568.313	1	-4
569.502	1	-3
570.692	1	4
571.881	1	2
573.070	1	8
574.260	1	-6
575.449	1	5
576.638	1	-2
577.827	1	4
579.016	1	13
580.205	1	2
581.394	1	-3
582.583	1	-10
583.772	1	-10
584.961	1	-5
586.150	1	3
587.339	1	-3
588.528	1	3
589.717	1	2
590.905	1	1
592.094	1	-1
593.283	1	7
594.471	1	-4
595.660	1	-8
596.848	1	4
598.037	1	-6
599.225	1	-5
600.413	1	0
601.602	1	2
602.790	1	0
603.978	1	-1
605.166	1	1
606.355	1	5
607.543	1	-12
608.731	1	-12
609.919	1	-6
611.107	1	2
612.295	1	-5
613.483	1	5
614.671	1	-5
615.858	1	10
617.046	1	-2
618.234	1	0
619.422	1	1
620.609	1	2
621.797	1	-2
622.985	1	-2
624.172	1	9
625.360	1	-8
626.547	1	-1
627.735	1	3
628.922	1	-4
630.109	1	-3
631.297	1	-9
632.484	1	-9
633.671	1	7
634.858	1	9
636.045	1	0
637.232	1	2
638.419	1	3
639.606	1	5
640.793	1	7
641.980	1	-10
643.167	1	3
644.354	1	-3
645.541	1	-7
646.728	1	1
647.914	1	-7
649.101	1	4
650.288	1	-8
651.474	1	5
652.661	1	-5
653.847	1	5
655.034	1	1
656.220	1	6
657.406	1	-6
658.593	1	-4
659.779	1	-5
660.965	1	-2
662.152	1	-1
663.338	1	-7
664.524	1	1
665.710	1	-9
666.896	1	-7
668.082	1	6
669.268	1	-4
670.454	1	-3
671.640	1	-3
672.826	1	-10
674.011	1	7
675.197	1	2
676.383	1	-5
677.569	1	-13
678.754	1	2
679.940	1	-6
681.125	1	-1
682.311	1	-8
683.496	1	-13
684.682	1	3
685.867	1	-3
687.053	1	2
688.238	1	4
688.746	1	2

File: GaN_sample E_spot4_UVVIS_68 K_200um_200 ms 2x2mm1_832.txt
340.368	1	-6
341.565	1	-1
342.763	1	-2
343.960	1	-3
345.157	1	5
346.354	1	5
347.552	1	-10
348.749	1	0
349.946	1	6
351.143	1	-8
352.340	1	3
353.537	1	-4
354.734	1	-7
355.931	1	-2
357.127	1	6
358.324	1	0
359.521	1	-2
360.718	1	-3
361.914	1	5
363.111	1	6
364.308	1	1
365.504	1	-12
366.701	1	-11
367.897	1	4
369.093	1	-4
370.290	1	-8
371.486	1	1
372.682	1	-10
373.879	1	5
375.075	1	-6
376.271	1	-4
377.467	1	-9
378.663	1	-6
379.859	1	0
381.055	1	-1
382.251	1	9
383.447	1	5
384.643	1	5
385.839	1	-1
387.035	1	2
388.230	1	0
389.426	1	4
390.622	1	-3
391.817	1	-9
393.013	1	5
394.208	1	8
395.404	1	3
396.599	1	-3
397.795	1	2
398.990	1	1
400.186	1	6
401.381	1	-1
402.576	1	2
403.771	1	-2
404.967	1	-9
406.162	1	-10
407.357	1	4
408.552	1	-1
409.747	1	-10
410.942	1	2
412.137	1	12
413.332	1	-7
414.526	1	4
415.721	1	-1
416.916	1	-3
418.111	1	2
419.305	1	0
420.500	1	-10
421.695	1	-2
422.889	1	6
424.084	1	1
425.278	1	-3
426.472	1	-12
427.667	1	8
428.861	1	-6
430.055	1	1
431.250	1	-8
432.444	1	6
433.638	1	2
434.832	1	1
436.026	1	4
437.220	1	11
438.414	1	1
439.608	1	7
440.802	1	1
441.996	1	3
443.190	1	-18
444.384	1	-5
445.578	1	9
446.771	1	2
447.965	1	-3
449.159	1	6
450.352	1	1
451.546	1	7
452.739	1	3
453.933	1	1
455.126	1	-5
456.320	1	2
457.513	1	12
458.706	1	-1
459.899	1	6
461.093	1	1
462.286	1	1
463.479	1	12
464.672	1	0
465.865	1	-10
467.058	1	9
468.251	1	8
469.444	1	-9
470.637	1	8
471.830	1	12
473.023	1	-8
474.215	1	-7
475.408	1	-4
476.601	1	-1
477.793	1	3
478.986	1	-10
480.179	1	1
481.371	1	5
482.564	1	0
483.756	1	-1
484.948	1	-4
486.141	1	-4
487.333	1	-4
488.525	1	-4
489.718	1	-5
490.910	1	0
492.102	1	-3
493.294	1	4
494.486	1	-2
495.678	1	2
496.870	1	7
498.062	1	-10
499.254	1	-2
500.446	1	4
501.638	1	-5
502.829	1	0
504.021	1	16
505.213	1	2
506.404	1	-8
507.596	1	7
508.788	1	4
509.979	1	1
511.171	1	6
512.362	1	-2
513.553	1	-10
514.745	1	-9
515.936	1	2
517.127	1	-4
518.319	1	7
519.510	1	-2
520.701	1	6
521.892	1	-10
523.083	1	5
524.274	1	-5
525.465	1	-3
526.656	1	13
527.847	1	1
529.038	1	1
530.229	1	-1
531.419	1	14
532.610	1	4
533.801	1	1
534.991	1	0
536.182	1	-1
537.373	1	-1
538.563	1	0
539.754	1	-3
540.944	1	-4
542.134	1	4
543.325	1	-6
544.515	1	-5
545.705	1	4
546.896	1	-1
548.086	1	-4
549.276	1	1
550.466	1	-8
551.656	1	-14
552.846	1	1
554.036	1	1
555.226	1	9
556.416	1	0
557.606	1	-1
558.796	1	-4
559.986	1	-5
561.175	1	-6
562.365	1	3
563.555	1	8
564.744	1	9
565.934	1	0
567.123	1	13
568.313	1	-6
569.502	1	0
570.692	1	2
571.881	1	7
573.070	1	-5
574.260	1	-7
575.449	1	4
576.638	1	-2
577.827	1	2
579.016	1	11
580.205	1	-3
581.394	1	-9
582.583	1	-9
583.772	1	-1
584.961	1	0
586.150	1	-3
587.339	1	9
588.528	1	-1
589.717	1	-6
590.905	1	3
592.094	1	9
593.283	1	-1
594.471	1	-6
595.660	1	-6
596.848	1	7
598.037	1	1
599.225	1	-5
600.413	1	0
601.602	1	5
602.790	1	-6
603.978	1	7
605.166	1	-6
606.355	1	5
607.543	1	-6
608.731	1	-15
609.919	1	0
611.107	1	4
612.295	1	0
613.483	1	-4
614.671	1	4
615.858	1	-5
617.046	1	9
618.234	1	-2
619.422	1	2
620.609	1	8
621.797	1	-14
622.985	1	1
624.172	1	12
625.360	1	-7
626.547	1	6
627.735	1	11
628.922	1	-4
630.109	1	-6
631.297	1	-1
632.484	1	-5
633.671	1	5
634.858	1	3
636.045	1	-10
637.232	1	0
638.419	1	3
639.606	1	4
640.793	1	-3
641.980	1	-6
643.167	1	8
644.354	1	-1
645.541	1	-10
646.728	1	2
647.914	1	-4
649.101	1	-1
650.288	1	-5
651.474	1	-6
652.661	1	1
653.847	1	1
655.034	1	4
656.220	1	11
657.406	1	2
658.593	1	-17
659.779	1	-6
660.965	1	-6
662.152	1	-5
663.338	1	-2
664.524	1	-9
665.710	1	-7
666.896	1	2
668.082	1	2
669.268	1	1
670.454	1	-3
671.640	1	-15
672.826	1	-13
674.011	1	-2
675.197	1	-5
676.383	1	-4
677.569	1	1
678.754	1	-3
679.940	1	-5
681.125	1	5
682.311	1	4
683.496	1	-4
684.682	1	3
685.867	1	3
687.053	1	4
688.238	1	-6
688.746	1	4

File: GaN_sample E_spot4_UVVIS_68 K_200um_200 ms 2x2mm1_840.txt
340.368	1	2
341.565	1	-8
342.763	1	-1
343.960	1	-1
345.157	1	3
346.354	1	-1
347.552	1	7
348.749	1	-4
349.946	1	-2
351.143	1	-13
352.340	1	-6
353.537	1	-2
354.734	1	-7
355.931	1	9
357.127	1	-1
358.324	1	-1
359.521	1	-2
360.718	1	3
361.914	1	-3
363.111	1	9
364.308	1	-8
365.504	1	-4
366.701	1	-12
367.897	1	6
369.093	1	1
370.290	1	4
371.486	1	7
372.682	1	-2
373.879	1	9
375.075	1	8
376.271	1	5
377.467	1	-4
378.663	1	-8
379.859	1	-6
381.055	1	0
382.251	1	-6
383.447	1	1
384.643	1	1
385.839	1	6
387.035	1	0
388.230	1	-8
389.426	1	11
390.622	1	-5
391.817	1	-4
393.013	1	9
394.208	1	2
395.404	1	6
396.599	1	6
397.795	1	4
398.990	1	1
400.186	1	11
401.381	1	0
402.576	1	15
403.771	1	-5
404.967	1	10
406.162	1	-5
407.357	1	-3
408.552	1	9
409.747	1	-1
410.942	1	0
412.137	1	7
413.332	1	-7
414.526	1	11
415.721	1	-1
416.916	1	-5
418.111	1	-2
419.305	1	-4
420.500	1	-5
421.695	1	1
422.889	1	3
424.084	1	-2
425.278	1	-9
426.472	1	-3
427.667	1	-1
428.861	1	1
430.055	1	2
431.250	1	-9
432.444	1	8
433.638	1	-4
434.832	1	-5
436.026	1	1
437.220	1	2
438.414	1	1
439.608	1	-3
440.802	1	3
441.996	1	6
443.190	1	-20
444.384	1	-2
445.578	1	6
446.771	1	-4
447.965	1	-5
449.159	1	-2
450.352	1	9
451.546	1	1
452.739	1	9
453.933	1	5
455.126	1	-1
456.320	1	2
457.513	1	5
458.706	1	0
459.899	1	12
461.093	1	-1
462.286	1	13
463.479	1	9
464.672	1	-1
465.865	1	-4
467.058	1	16
468.251	1	0
469.444	1	-2
470.637	1	9
471.830	1	16
473.023	1	-10
474.215	1	-6
475.408	1	-1
476.601	1	-4
477.793	1	7
478.986	1	-2
480.179	1	10
481.371	1	5
482.564	1	-8
483.756	1	3
484.948	1	-1
486.141	1	-3
487.333	1	8
488.525	1	2
489.718	1	-14
490.910	1	-5
492.102	1	-8
493.294	1	7
494.486	1	8
495.678	1	5
496.870	1	3
498.062	1	3
499.254	1	5
500.446	1	3
501.638	1	4
502.829	1	7
504.021	1	14
505.213	1	1
506.404	1	-15
507.596	1	14
508.788	1	-1
509.979	1	1
511.171	1	14
512.362	1	2
513.553	1	-10
514.745	1	1
515.936	1	1
517.127	1	7
518.319	1	7
519.510	1	6
520.701	1	5
521.892	1	-17
523.083	1	-4
524.274	1	-18
525.465	1	1
526.656	1	9
527.847	1	-8
529.038	1	6
530.229	1	2
531.419	1	-2
532.610	1	5
533.801	1	-3
534.991	1	-3
536.182	1	5
537.373	1	-10
538.563	1	0
539.754	1	-5
540.944	1	-3
542.134	1	8
543.325	1	-3
544.515	1	0
545.705	1	8
546.896	1	-2
548.086	1	7
549.276	1	7
550.466	1	-8
551.656	1	-4
552.846	1	8
554.036	1	-2
555.226	1	1
556.416	1	1
557.606	1	-8
558.796	1	-4
559.986	1	-9
561.175	1	1
562.365	1	-1
563.555	1	-1
564.744	1	-1
565.934	1	10
567.123	1	7
568.313	1	-4
569.502	1	0
570.692	1	1
571.881	1	-3
573.070	1	4
574.260	1	1
575.449	1	0
576.638	1	2
577.827	1	3
579.016	1	10
580.205	1	-5
581.394	1	-1
582.583	1	-5
583.772	1	-10
584.961	1	2
586.150	1	-6
587.339	1	-1
588.528	1	-1
589.717	1	-1
590.905	1	1
592.094	1	-1
593.283	1	4
594.471	1	0
595.660	1	-8
596.848	1	-6
598.037	1	1
599.225	1	-7
600.413	1	-4
601.602	1	2
602.790	1	-4
603.978	1	1
605.166	1	-6
606.355	1	1
607.543	1	-3
608.731	1	-9
609.919	1	-4
611.107	1	4
612.295	1	0
613.483	1	2
614.671	1	-2
615.858	1	4
617.046	1	2
618.234	1	-1
619.422	1	-10
620.609	1	5
621.797	1	-1
622.985	1	2
624.172	1	14
625.360	1	-10
626.547	1	1
627.735	1	0
628.922	1	-6
630.109	1	-6
631.297	1	-1
632.484	1	-2
633.671	1	13
634.858	1	1
636.045	1	5
637.232	1	-3
638.419	1	9
639.606	1	7
640.793	1	0
641.980	1	-1
643.167	1	0
644.354	1	0
645.541	1	-8
646.728	1	12
647.914	1	-2
649.101	1	-2
650.288	1	-13
651.474	1	1
652.661	1	-6
653.847	1	1
655.034	1	3
656.220	1	6
657.406	1	3
658.593	1	-10
659.779	1	-13
660.965	1	-3
662.152	1	-5
663.338	1	-4
664.524	1	-6
665.710	1	0
666.896	1	-5
668.082	1	1
669.268	1	-3
670.454	1	0
671.640	1	-20
672.826	1	-20
674.011	1	4
675.197	1	-10
676.383	1	0
677.569	1	-6
678.754	1	2
679.940	1	-11
681.125	1	10
682.311	1	4
683.496	1	-3
684.682	1	6
685.867	1	0
687.053	1	1
688.238	1	7
688.746	1	-2

File: GaN_sample E_spot4_UVVIS_68 K_200um_200 ms 2x2mm1_843.txt
340.368	1	-1
341.565	1	-4
342.763	1	-6
343.960	1	-8
345.157	1	7
346.354	1	-9
347.552	1	-6
348.749	1	-1
349.946	1	7
351.143	1	-10
352.340	1	-9
353.537	1	-5
354.734	1	-2
355.931	1	0
357.127	1	-1
358.324	1	-6
359.521	1	-2
360.718	1	-5
361.914	1	-4
363.111	1	9
364.308	1	-2
365.504	1	-9
366.701	1	-6
367.897	1	3
369.093	1	-4
370.290	1	-6
371.486	1	3
372.682	1	-10
373.879	1	3
375.075	1	8
376.271	1	0
377.467	1	-6
378.663	1	-9
379.859	1	-7
381.055	1	-1
382.251	1	0
383.447	1	11
384.643	1	7
385.839	1	3
387.035	1	-5
388.230	1	-2
389.426	1	4
390.622	1	1
391.817	1	-1
393.013	1	10
394.208	1	-4
395.404	1	5
396.599	1	0
397.795	1	1
398.990	1	3
400.186	1	6
401.381	1	5
402.576	1	3
403.771	1	2
404.967	1	4
406.162	1	-6
407.357	1	-4
408.552	1	-2
409.747	1	-9
410.942	1	1
412.137	1	3
413.332	1	-8
414.526	1	4
415.721	1	1
416.916	1	-12
418.111	1	-9
419.305	1	-1
420.500	1	6
421.695	1	8
422.889	1	3
424.084	1	-2
425.278	1	-6
426.472	1	-10
427.667	1	5
428.861	1	-5
430.055	1	4
431.250	1	-8
432.444	1	2
433.638	1	-6
434.832	1	2
436.026	1	2
437.220	1	9
438.414	1	5
439.608	1	-5
440.802	1	2
441.996	1	-1
443.190	1	-9
444.384	1	4
445.578	1	7
446.771	1	-4
447.965	1	-9
449.159	1	-12
450.352	1	7
451.546	1	3
452.739	1	-6
453.933	1	-2
455.126	1	0
456.320	1	-11
457.513	1	5
458.706	1	0
459.899	1	7
461.093	1	-3
462.286	1	12
463.479	1	8
464.672	1	-9
465.865	1	0
467.058	1	17
468.251	1	-10
469.444	1	-10
470.637	1	12
471.830	1	3
473.023	1	-4
474.215	1	-9
475.408	1	-2
476.601	1	6
477.793	1	0
478.986	1	-5
480.179	1	-1
481.371	1	0
482.564	1	-14
483.756	1	1
484.948	1	1
486.141	1	-16
487.333	1	5
488.525	1	-6
489.718	1	1
490.910	1	-6
492.102	1	-11
493.294	1	5
494.486	1	4
495.678	1	8
496.870	1	6
498.062	1	-10
499.254	1	-2
500.446	1	12
501.638	1	-1
502.829	1	-1
504.021	1	14
505.213	1	2
506.404	1	-6
507.596	1	-3
508.788	1	3
509.979	1	3
511.171	1	11
512.362	1	-5
513.553	1	-11
514.745	1	-2
515.936	1	-1
517.127	1	5
518.319	1	-4
519.510	1	2
520.701	1	4
521.892	1	-11
523.083	1	1
524.274	1	-9
525.465	1	3
526.656	1	8
527.847	1	-5
529.038	1	4
530.229	1	8
531.419	1	4
532.610	1	-8
533.801	1	9
534.991	1	3
536.182	1	-5
537.373	1	-1
538.563	1	-4
539.754	1	-10
540.944	1	1
542.134	1	4
543.325	1	2
544.515	1	8
545.705	1	4
546.896	1	-9
548.086	1	-2
549.276	1	7
550.466	1	-8
551.656	1	-10
552.846	1	2
554.036	1	2
555.226	1	-9
556.416	1	3
557.606	1	-7
558.796	1	4
559.986	1	-13
561.175	1	-8
562.365	1	2
563.555	1	9
564.744	1	3
565.934	1	-1
567.123	1	12
568.313	1	1
569.502	1	-8
570.692	1	2
571.881	1	2
573.070	1	3
574.260	1	-1
575.449	1	11
576.638	1	0
577.827	1	3
579.016	1	13
580.205	1	-5
581.394	1	-4
582.583	1	-10
583.772	1	0
584.961	1	8
586.150	1	-1
587.339	1	1
588.528	1	9
589.717	1	-2
590.905	1	2
592.094	1	2
593.283	1	9
594.471	1	0
595.660	1	-2
596.848	1	-3
598.037	1	8
599.225	1	-3
600.413	1	-1
601.602	1	2
602.790	1	-3
603.978	1	-2
605.166	1	-6
606.355	1	14
607.543	1	-2
608.731	1	0
609.919	1	0
611.107	1	-2
612.295	1	-4
613.483	1	5
614.671	1	1
615.858	1	-2
617.046	1	-4
618.234	1	-1
619.422	1	-3
620.609	1	8
621.797	1	3
622.985	1	7
624.172	1	17
625.360	1	-10
626.547	1	0
627.735	1	6
628.922	1	0
630.109	1	-5
631.297	1	-4
632.484	1	-3
633.671	1	3
634.858	1	9
636.045	1	-1
637.232	1	-5
638.419	1	4
639.606	1	3
640.793	1	7
641.980	1	-1
643.167	1	5
644.354	1	-1
645.541	1	-7
646.728	1	2
647.914	1	-9
649.101	1	6
650.288	1	-2
651.474	1	8
652.661	1	1
653.847	1	6
655.034	1	2
656.220	1	7
657.406	1	14
658.593	1	-10
659.779	1	-5
660.965	1	5
662.152	1	-3
663.338	1	-4
664.524	1	-9
665.710	1	-3
666.896	1	-6
668.082	1	0
669.268	1	-2
670.454	1	6
671.640	1	-17
672.826	1	-20
674.011	1	3
675.197	1	-7
676.383	1	-6
677.569	1	2
678.754	1	1
679.940	1	-3
681.125	1	-5
682.311	1	2
683.496	1	-2
684.682	1	8
685.867	1	-4
687.053	1	6
688.238	1	-1
688.746	1	2