Folder: cryo-il_analysis/Analysis/GaN_68K_200ms (part 19)

File: GaN_sample E_spot4_UVVIS_68 K_200um_200 ms 2x2mm1_382.txt
340.368	1	2
341.565	1	-4
342.763	1	-6
343.960	1	-2
345.157	1	1
346.354	1	0
347.552	1	1
348.749	1	-1
349.946	1	5
351.143	1	-5
352.340	1	7
353.537	1	-4
354.734	1	3
355.931	1	-2
357.127	1	-2
358.324	1	0
359.521	1	0
360.718	1	-1
361.914	1	3
363.111	1	11
364.308	1	1
365.504	1	-6
366.701	1	3
367.897	1	-1
369.093	1	5
370.290	1	3
371.486	1	8
372.682	1	2
373.879	1	-1
375.075	1	-1
376.271	1	8
377.467	1	-4
378.663	1	2
379.859	1	7
381.055	1	6
382.251	1	8
383.447	1	6
384.643	1	9
385.839	1	12
387.035	1	5
388.230	1	-3
389.426	1	12
390.622	1	10
391.817	1	-6
393.013	1	13
394.208	1	6
395.404	1	9
396.599	1	2
397.795	1	12
398.990	1	13
400.186	1	14
401.381	1	2
402.576	1	12
403.771	1	8
404.967	1	11
406.162	1	-5
407.357	1	3
408.552	1	3
409.747	1	2
410.942	1	-1
412.137	1	10
413.332	1	-4
414.526	1	7
415.721	1	4
416.916	1	-5
418.111	1	4
419.305	1	1
420.500	1	-4
421.695	1	1
422.889	1	15
424.084	1	0
425.278	1	-2
426.472	1	0
427.667	1	6
428.861	1	1
430.055	1	1
431.250	1	-13
432.444	1	3
433.638	1	5
434.832	1	1
436.026	1	4
437.220	1	15
438.414	1	2
439.608	1	2
440.802	1	11
441.996	1	7
443.190	1	-4
444.384	1	5
445.578	1	14
446.771	1	8
447.965	1	-1
449.159	1	-1
450.352	1	8
451.546	1	2
452.739	1	0
453.933	1	9
455.126	1	-3
456.320	1	-6
457.513	1	3
458.706	1	0
459.899	1	4
461.093	1	12
462.286	1	8
463.479	1	13
464.672	1	4
465.865	1	-4
467.058	1	5
468.251	1	1
469.444	1	11
470.637	1	7
471.830	1	11
473.023	1	-9
474.215	1	-2
475.408	1	4
476.601	1	1
477.793	1	15
478.986	1	8
480.179	1	-1
481.371	1	1
482.564	1	-9
483.756	1	12
484.948	1	1
486.141	1	-3
487.333	1	17
488.525	1	-2
489.718	1	-4
490.910	1	-9
492.102	1	1
493.294	1	8
494.486	1	8
495.678	1	11
496.870	1	-1
498.062	1	4
499.254	1	1
500.446	1	8
501.638	1	3
502.829	1	4
504.021	1	22
505.213	1	7
506.404	1	1
507.596	1	5
508.788	1	0
509.979	1	1
511.171	1	11
512.362	1	6
513.553	1	-1
514.745	1	-4
515.936	1	12
517.127	1	14
518.319	1	-5
519.510	1	-7
520.701	1	11
521.892	1	3
523.083	1	-3
524.274	1	0
525.465	1	7
526.656	1	14
527.847	1	0
529.038	1	5
530.229	1	3
531.419	1	13
532.610	1	7
533.801	1	1
534.991	1	4
536.182	1	8
537.373	1	0
538.563	1	4
539.754	1	1
540.944	1	6
542.134	1	5
543.325	1	-4
544.515	1	6
545.705	1	8
546.896	1	5
548.086	1	10
549.276	1	9
550.466	1	1
551.656	1	-2
552.846	1	0
554.036	1	-4
555.226	1	-15
556.416	1	1
557.606	1	-5
558.796	1	-6
559.986	1	0
561.175	1	3
562.365	1	10
563.555	1	2
564.744	1	13
565.934	1	12
567.123	1	10
568.313	1	-6
569.502	1	4
570.692	1	7
571.881	1	11
573.070	1	1
574.260	1	3
575.449	1	1
576.638	1	12
577.827	1	19
579.016	1	17
580.205	1	5
581.394	1	-7
582.583	1	2
583.772	1	9
584.961	1	-2
586.150	1	6
587.339	1	-6
588.528	1	5
589.717	1	-4
590.905	1	-1
592.094	1	8
593.283	1	4
594.471	1	7
595.660	1	6
596.848	1	6
598.037	1	4
599.225	1	6
600.413	1	-4
601.602	1	6
602.790	1	4
603.978	1	-2
605.166	1	-6
606.355	1	7
607.543	1	-2
608.731	1	-2
609.919	1	-6
611.107	1	5
612.295	1	-1
613.483	1	3
614.671	1	4
615.858	1	11
617.046	1	2
618.234	1	4
619.422	1	10
620.609	1	1
621.797	1	1
622.985	1	2
624.172	1	17
625.360	1	-5
626.547	1	-2
627.735	1	12
628.922	1	5
630.109	1	0
631.297	1	0
632.484	1	-3
633.671	1	0
634.858	1	8
636.045	1	3
637.232	1	3
638.419	1	1
639.606	1	3
640.793	1	8
641.980	1	-2
643.167	1	19
644.354	1	0
645.541	1	-6
646.728	1	5
647.914	1	-4
649.101	1	0
650.288	1	-8
651.474	1	8
652.661	1	-1
653.847	1	4
655.034	1	6
656.220	1	7
657.406	1	5
658.593	1	-7
659.779	1	-4
660.965	1	2
662.152	1	-2
663.338	1	0
664.524	1	-5
665.710	1	-6
666.896	1	2
668.082	1	-5
669.268	1	5
670.454	1	10
671.640	1	-7
672.826	1	-14
674.011	1	2
675.197	1	-4
676.383	1	-5
677.569	1	-6
678.754	1	5
679.940	1	-1
681.125	1	7
682.311	1	4
683.496	1	-3
684.682	1	9
685.867	1	1
687.053	1	11
688.238	1	-1
688.746	1	9

File: GaN_sample E_spot4_UVVIS_68 K_200um_200 ms 2x2mm1_384.txt
340.368	1	4
341.565	1	-5
342.763	1	0
343.960	1	-2
345.157	1	-1
346.354	1	-7
347.552	1	0
348.749	1	10
349.946	1	2
351.143	1	-1
352.340	1	4
353.537	1	2
354.734	1	5
355.931	1	8
357.127	1	5
358.324	1	2
359.521	1	6
360.718	1	-4
361.914	1	3
363.111	1	11
364.308	1	2
365.504	1	-1
366.701	1	6
367.897	1	2
369.093	1	13
370.290	1	-2
371.486	1	15
372.682	1	-7
373.879	1	6
375.075	1	12
376.271	1	3
377.467	1	1
378.663	1	-1
379.859	1	-5
381.055	1	1
382.251	1	8
383.447	1	8
384.643	1	7
385.839	1	18
387.035	1	9
388.230	1	-5
389.426	1	14
390.622	1	2
391.817	1	0
393.013	1	15
394.208	1	11
395.404	1	9
396.599	1	10
397.795	1	3
398.990	1	10
400.186	1	14
401.381	1	8
402.576	1	10
403.771	1	5
404.967	1	10
406.162	1	-1
407.357	1	0
408.552	1	5
409.747	1	3
410.942	1	7
412.137	1	25
413.332	1	8
414.526	1	8
415.721	1	9
416.916	1	3
418.111	1	-2
419.305	1	4
420.500	1	-1
421.695	1	0
422.889	1	0
424.084	1	9
425.278	1	-8
426.472	1	4
427.667	1	14
428.861	1	0
430.055	1	3
431.250	1	-5
432.444	1	7
433.638	1	-4
434.832	1	-6
436.026	1	7
437.220	1	5
438.414	1	-3
439.608	1	3
440.802	1	7
441.996	1	-4
443.190	1	-5
444.384	1	4
445.578	1	13
446.771	1	7
447.965	1	-1
449.159	1	2
450.352	1	5
451.546	1	6
452.739	1	8
453.933	1	13
455.126	1	0
456.320	1	1
457.513	1	7
458.706	1	9
459.899	1	10
461.093	1	9
462.286	1	8
463.479	1	9
464.672	1	6
465.865	1	0
467.058	1	14
468.251	1	-2
469.444	1	1
470.637	1	10
471.830	1	13
473.023	1	-9
474.215	1	-3
475.408	1	0
476.601	1	1
477.793	1	3
478.986	1	1
480.179	1	6
481.371	1	0
482.564	1	-10
483.756	1	-1
484.948	1	5
486.141	1	-11
487.333	1	2
488.525	1	2
489.718	1	-13
490.910	1	1
492.102	1	-1
493.294	1	2
494.486	1	6
495.678	1	8
496.870	1	-5
498.062	1	3
499.254	1	5
500.446	1	8
501.638	1	3
502.829	1	4
504.021	1	14
505.213	1	-2
506.404	1	-4
507.596	1	4
508.788	1	0
509.979	1	-3
511.171	1	10
512.362	1	4
513.553	1	-4
514.745	1	4
515.936	1	2
517.127	1	6
518.319	1	9
519.510	1	1
520.701	1	2
521.892	1	-4
523.083	1	0
524.274	1	-2
525.465	1	3
526.656	1	20
527.847	1	1
529.038	1	11
530.229	1	17
531.419	1	14
532.610	1	6
533.801	1	5
534.991	1	9
536.182	1	5
537.373	1	11
538.563	1	4
539.754	1	6
540.944	1	0
542.134	1	6
543.325	1	10
544.515	1	3
545.705	1	8
546.896	1	-2
548.086	1	2
549.276	1	9
550.466	1	-3
551.656	1	-1
552.846	1	-2
554.036	1	-4
555.226	1	-7
556.416	1	16
557.606	1	-9
558.796	1	-2
559.986	1	-5
561.175	1	5
562.365	1	10
563.555	1	6
564.744	1	2
565.934	1	6
567.123	1	17
568.313	1	-3
569.502	1	9
570.692	1	7
571.881	1	9
573.070	1	11
574.260	1	7
575.449	1	6
576.638	1	3
577.827	1	8
579.016	1	9
580.205	1	-1
581.394	1	3
582.583	1	-9
583.772	1	1
584.961	1	10
586.150	1	5
587.339	1	10
588.528	1	6
589.717	1	-1
590.905	1	6
592.094	1	7
593.283	1	12
594.471	1	4
595.660	1	-4
596.848	1	16
598.037	1	6
599.225	1	-4
600.413	1	8
601.602	1	9
602.790	1	-2
603.978	1	-3
605.166	1	-4
606.355	1	12
607.543	1	-7
608.731	1	-9
609.919	1	4
611.107	1	6
612.295	1	-5
613.483	1	7
614.671	1	17
615.858	1	4
617.046	1	9
618.234	1	3
619.422	1	14
620.609	1	0
621.797	1	0
622.985	1	6
624.172	1	11
625.360	1	-3
626.547	1	7
627.735	1	3
628.922	1	-10
630.109	1	8
631.297	1	3
632.484	1	11
633.671	1	7
634.858	1	9
636.045	1	2
637.232	1	3
638.419	1	8
639.606	1	7
640.793	1	7
641.980	1	2
643.167	1	11
644.354	1	2
645.541	1	-2
646.728	1	7
647.914	1	-2
649.101	1	5
650.288	1	-5
651.474	1	2
652.661	1	1
653.847	1	-6
655.034	1	3
656.220	1	12
657.406	1	7
658.593	1	-2
659.779	1	3
660.965	1	-9
662.152	1	-8
663.338	1	-1
664.524	1	-1
665.710	1	-4
666.896	1	1
668.082	1	7
669.268	1	10
670.454	1	3
671.640	1	-13
672.826	1	-18
674.011	1	3
675.197	1	-7
676.383	1	-2
677.569	1	4
678.754	1	0
679.940	1	-1
681.125	1	9
682.311	1	4
683.496	1	-10
684.682	1	8
685.867	1	1
687.053	1	7
688.238	1	3
688.746	1	8

File: GaN_sample E_spot4_UVVIS_68 K_200um_200 ms 2x2mm1_387.txt
340.368	1	-4
341.565	1	-4
342.763	1	2
343.960	1	-1
345.157	1	7
346.354	1	3
347.552	1	2
348.749	1	6
349.946	1	11
351.143	1	-6
352.340	1	2
353.537	1	-2
354.734	1	4
355.931	1	3
357.127	1	6
358.324	1	-2
359.521	1	1
360.718	1	-3
361.914	1	-2
363.111	1	9
364.308	1	1
365.504	1	2
366.701	1	6
367.897	1	-1
369.093	1	3
370.290	1	8
371.486	1	10
372.682	1	5
373.879	1	6
375.075	1	7
376.271	1	-2
377.467	1	-2
378.663	1	-9
379.859	1	0
381.055	1	3
382.251	1	1
383.447	1	6
384.643	1	8
385.839	1	12
387.035	1	9
388.230	1	6
389.426	1	15
390.622	1	0
391.817	1	-4
393.013	1	15
394.208	1	3
395.404	1	7
396.599	1	11
397.795	1	13
398.990	1	-1
400.186	1	15
401.381	1	6
402.576	1	19
403.771	1	11
404.967	1	5
406.162	1	1
407.357	1	4
408.552	1	-2
409.747	1	-1
410.942	1	0
412.137	1	7
413.332	1	-5
414.526	1	5
415.721	1	7
416.916	1	-3
418.111	1	5
419.305	1	-2
420.500	1	2
421.695	1	0
422.889	1	-3
424.084	1	-4
425.278	1	-4
426.472	1	2
427.667	1	10
428.861	1	6
430.055	1	2
431.250	1	-6
432.444	1	11
433.638	1	4
434.832	1	-2
436.026	1	5
437.220	1	10
438.414	1	3
439.608	1	8
440.802	1	-2
441.996	1	-6
443.190	1	-3
444.384	1	13
445.578	1	6
446.771	1	-5
447.965	1	-7
449.159	1	4
450.352	1	13
451.546	1	-1
452.739	1	0
453.933	1	5
455.126	1	-5
456.320	1	-12
457.513	1	8
458.706	1	1
459.899	1	15
461.093	1	4
462.286	1	7
463.479	1	14
464.672	1	-4
465.865	1	2
467.058	1	8
468.251	1	5
469.444	1	-1
470.637	1	9
471.830	1	18
473.023	1	-3
474.215	1	-1
475.408	1	0
476.601	1	-6
477.793	1	3
478.986	1	0
480.179	1	3
481.371	1	7
482.564	1	-13
483.756	1	10
484.948	1	-6
486.141	1	-7
487.333	1	2
488.525	1	1
489.718	1	1
490.910	1	3
492.102	1	0
493.294	1	-1
494.486	1	9
495.678	1	7
496.870	1	4
498.062	1	-5
499.254	1	4
500.446	1	-2
501.638	1	3
502.829	1	8
504.021	1	20
505.213	1	7
506.404	1	-5
507.596	1	-1
508.788	1	9
509.979	1	-4
511.171	1	11
512.362	1	4
513.553	1	2
514.745	1	8
515.936	1	10
517.127	1	9
518.319	1	-2
519.510	1	1
520.701	1	6
521.892	1	-8
523.083	1	3
524.274	1	-6
525.465	1	-2
526.656	1	17
527.847	1	-4
529.038	1	13
530.229	1	6
531.419	1	7
532.610	1	1
533.801	1	3
534.991	1	8
536.182	1	-2
537.373	1	-1
538.563	1	5
539.754	1	0
540.944	1	-1
542.134	1	7
543.325	1	-1
544.515	1	12
545.705	1	9
546.896	1	-3
548.086	1	-4
549.276	1	11
550.466	1	-2
551.656	1	-5
552.846	1	11
554.036	1	7
555.226	1	-6
556.416	1	-1
557.606	1	-2
558.796	1	3
559.986	1	-6
561.175	1	1
562.365	1	2
563.555	1	12
564.744	1	0
565.934	1	12
567.123	1	14
568.313	1	2
569.502	1	7
570.692	1	5
571.881	1	13
573.070	1	2
574.260	1	-6
575.449	1	3
576.638	1	-3
577.827	1	1
579.016	1	14
580.205	1	8
581.394	1	-1
582.583	1	-10
583.772	1	1
584.961	1	6
586.150	1	7
587.339	1	1
588.528	1	13
589.717	1	-1
590.905	1	9
592.094	1	2
593.283	1	15
594.471	1	2
595.660	1	2
596.848	1	12
598.037	1	1
599.225	1	-1
600.413	1	-1
601.602	1	11
602.790	1	-1
603.978	1	-6
605.166	1	4
606.355	1	3
607.543	1	-6
608.731	1	-5
609.919	1	-2
611.107	1	6
612.295	1	9
613.483	1	9
614.671	1	2
615.858	1	0
617.046	1	4
618.234	1	-3
619.422	1	-2
620.609	1	1
621.797	1	-2
622.985	1	4
624.172	1	6
625.360	1	-2
626.547	1	3
627.735	1	8
628.922	1	2
630.109	1	2
631.297	1	-2
632.484	1	-7
633.671	1	1
634.858	1	6
636.045	1	-4
637.232	1	-2
638.419	1	4
639.606	1	11
640.793	1	11
641.980	1	1
643.167	1	9
644.354	1	-2
645.541	1	-4
646.728	1	6
647.914	1	2
649.101	1	6
650.288	1	-3
651.474	1	1
652.661	1	3
653.847	1	8
655.034	1	4
656.220	1	5
657.406	1	5
658.593	1	-5
659.779	1	-4
660.965	1	-1
662.152	1	7
663.338	1	4
664.524	1	-9
665.710	1	-3
666.896	1	4
668.082	1	2
669.268	1	7
670.454	1	2
671.640	1	-15
672.826	1	-15
674.011	1	1
675.197	1	-6
676.383	1	-1
677.569	1	5
678.754	1	-2
679.940	1	1
681.125	1	7
682.311	1	0
683.496	1	-4
684.682	1	4
685.867	1	-2
687.053	1	6
688.238	1	-3
688.746	1	4

File: GaN_sample E_spot4_UVVIS_68 K_200um_200 ms 2x2mm1_389.txt
340.368	1	4
341.565	1	-2
342.763	1	-2
343.960	1	-14
345.157	1	2
346.354	1	-5
347.552	1	-4
348.749	1	3
349.946	1	4
351.143	1	-9
352.340	1	-2
353.537	1	-8
354.734	1	-8
355.931	1	-4
357.127	1	5
358.324	1	0
359.521	1	-7
360.718	1	-4
361.914	1	4
363.111	1	8
364.308	1	3
365.504	1	-12
366.701	1	1
367.897	1	-2
369.093	1	-3
370.290	1	3
371.486	1	9
372.682	1	-2
373.879	1	14
375.075	1	11
376.271	1	-2
377.467	1	-4
378.663	1	-7
379.859	1	10
381.055	1	-1
382.251	1	2
383.447	1	13
384.643	1	8
385.839	1	3
387.035	1	5
388.230	1	9
389.426	1	9
390.622	1	-3
391.817	1	9
393.013	1	14
394.208	1	17
395.404	1	19
396.599	1	9
397.795	1	8
398.990	1	3
400.186	1	6
401.381	1	12
402.576	1	14
403.771	1	2
404.967	1	5
406.162	1	-4
407.357	1	5
408.552	1	4
409.747	1	-2
410.942	1	6
412.137	1	7
413.332	1	0
414.526	1	7
415.721	1	6
416.916	1	-3
418.111	1	1
419.305	1	4
420.500	1	4
421.695	1	-1
422.889	1	0
424.084	1	5
425.278	1	-1
426.472	1	3
427.667	1	12
428.861	1	-1
430.055	1	3
431.250	1	-7
432.444	1	6
433.638	1	-5
434.832	1	-3
436.026	1	-2
437.220	1	15
438.414	1	6
439.608	1	7
440.802	1	5
441.996	1	7
443.190	1	-2
444.384	1	4
445.578	1	3
446.771	1	3
447.965	1	5
449.159	1	-4
450.352	1	4
451.546	1	5
452.739	1	1
453.933	1	11
455.126	1	-3
456.320	1	1
457.513	1	7
458.706	1	7
459.899	1	10
461.093	1	3
462.286	1	16
463.479	1	15
464.672	1	3
465.865	1	-7
467.058	1	5
468.251	1	0
469.444	1	5
470.637	1	9
471.830	1	11
473.023	1	-6
474.215	1	2
475.408	1	4
476.601	1	-2
477.793	1	2
478.986	1	2
480.179	1	4
481.371	1	-3
482.564	1	-11
483.756	1	3
484.948	1	-1
486.141	1	-1
487.333	1	5
488.525	1	2
489.718	1	-2
490.910	1	-2
492.102	1	-4
493.294	1	11
494.486	1	3
495.678	1	18
496.870	1	-5
498.062	1	-4
499.254	1	0
500.446	1	11
501.638	1	3
502.829	1	6
504.021	1	15
505.213	1	3
506.404	1	-2
507.596	1	8
508.788	1	-1
509.979	1	3
511.171	1	19
512.362	1	4
513.553	1	1
514.745	1	-3
515.936	1	16
517.127	1	4
518.319	1	11
519.510	1	-4
520.701	1	11
521.892	1	-2
523.083	1	-4
524.274	1	-1
525.465	1	6
526.656	1	17
527.847	1	-3
529.038	1	9
530.229	1	4
531.419	1	10
532.610	1	8
533.801	1	6
534.991	1	11
536.182	1	-4
537.373	1	-2
538.563	1	7
539.754	1	1
540.944	1	2
542.134	1	10
543.325	1	-6
544.515	1	0
545.705	1	14
546.896	1	-4
548.086	1	8
549.276	1	9
550.466	1	2
551.656	1	-5
552.846	1	6
554.036	1	3
555.226	1	-6
556.416	1	0
557.606	1	-9
558.796	1	-3
559.986	1	5
561.175	1	5
562.365	1	5
563.555	1	1
564.744	1	5
565.934	1	13
567.123	1	15
568.313	1	-5
569.502	1	5
570.692	1	3
571.881	1	0
573.070	1	1
574.260	1	-2
575.449	1	0
576.638	1	-6
577.827	1	13
579.016	1	11
580.205	1	-2
581.394	1	-9
582.583	1	-4
583.772	1	10
584.961	1	0
586.150	1	1
587.339	1	11
588.528	1	3
589.717	1	4
590.905	1	13
592.094	1	-6
593.283	1	2
594.471	1	11
595.660	1	-6
596.848	1	7
598.037	1	-2
599.225	1	-1
600.413	1	12
601.602	1	-2
602.790	1	-3
603.978	1	-1
605.166	1	4
606.355	1	21
607.543	1	-8
608.731	1	-11
609.919	1	0
611.107	1	15
612.295	1	4
613.483	1	8
614.671	1	-2
615.858	1	-5
617.046	1	-1
618.234	1	2
619.422	1	6
620.609	1	8
621.797	1	8
622.985	1	-1
624.172	1	11
625.360	1	-3
626.547	1	7
627.735	1	-2
628.922	1	0
630.109	1	1
631.297	1	3
632.484	1	-7
633.671	1	4
634.858	1	15
636.045	1	0
637.232	1	4
638.419	1	2
639.606	1	16
640.793	1	6
641.980	1	1
643.167	1	-2
644.354	1	-3
645.541	1	-7
646.728	1	9
647.914	1	2
649.101	1	3
650.288	1	0
651.474	1	4
652.661	1	4
653.847	1	-2
655.034	1	-4
656.220	1	2
657.406	1	12
658.593	1	-12
659.779	1	-10
660.965	1	-2
662.152	1	-8
663.338	1	4
664.524	1	-10
665.710	1	1
666.896	1	-1
668.082	1	-4
669.268	1	7
670.454	1	2
671.640	1	-15
672.826	1	-9
674.011	1	16
675.197	1	-1
676.383	1	4
677.569	1	2
678.754	1	-3
679.940	1	0
681.125	1	6
682.311	1	6
683.496	1	3
684.682	1	2
685.867	1	-2
687.053	1	0
688.238	1	-3
688.746	1	3

File: GaN_sample E_spot4_UVVIS_68 K_200um_200 ms 2x2mm1_390.txt
340.368	1	-1
341.565	1	-5
342.763	1	0
343.960	1	-4
345.157	1	13
346.354	1	4
347.552	1	-1
348.749	1	7
349.946	1	5
351.143	1	-8
352.340	1	-4
353.537	1	-11
354.734	1	2
355.931	1	-7
357.127	1	9
358.324	1	-2
359.521	1	-1
360.718	1	-4
361.914	1	-3
363.111	1	8
364.308	1	-5
365.504	1	-2
366.701	1	-3
367.897	1	4
369.093	1	5
370.290	1	10
371.486	1	14
372.682	1	2
373.879	1	10
375.075	1	5
376.271	1	4
377.467	1	3
378.663	1	-6
379.859	1	3
381.055	1	1
382.251	1	13
383.447	1	14
384.643	1	12
385.839	1	8
387.035	1	1
388.230	1	10
389.426	1	17
390.622	1	-7
391.817	1	9
393.013	1	16
394.208	1	7
395.404	1	11
396.599	1	9
397.795	1	10
398.990	1	9
400.186	1	10
401.381	1	14
402.576	1	14
403.771	1	2
404.967	1	11
406.162	1	-5
407.357	1	3
408.552	1	8
409.747	1	12
410.942	1	2
412.137	1	8
413.332	1	5
414.526	1	5
415.721	1	-4
416.916	1	7
418.111	1	-1
419.305	1	-6
420.500	1	12
421.695	1	4
422.889	1	5
424.084	1	3
425.278	1	4
426.472	1	-1
427.667	1	22
428.861	1	3
430.055	1	-4
431.250	1	-5
432.444	1	5
433.638	1	-1
434.832	1	1
436.026	1	5
437.220	1	8
438.414	1	11
439.608	1	8
440.802	1	2
441.996	1	5
443.190	1	-10
444.384	1	8
445.578	1	8
446.771	1	-4
447.965	1	-7
449.159	1	2
450.352	1	9
451.546	1	1
452.739	1	-3
453.933	1	13
455.126	1	7
456.320	1	8
457.513	1	14
458.706	1	-2
459.899	1	15
461.093	1	-3
462.286	1	6
463.479	1	8
464.672	1	7
465.865	1	-2
467.058	1	10
468.251	1	-10
469.444	1	-2
470.637	1	13
471.830	1	8
473.023	1	-1
474.215	1	-3
475.408	1	3
476.601	1	-3
477.793	1	9
478.986	1	7
480.179	1	10
481.371	1	-1
482.564	1	-5
483.756	1	4
484.948	1	-1
486.141	1	-5
487.333	1	8
488.525	1	2
489.718	1	-5
490.910	1	-3
492.102	1	-4
493.294	1	11
494.486	1	9
495.678	1	16
496.870	1	2
498.062	1	-4
499.254	1	8
500.446	1	8
501.638	1	6
502.829	1	1
504.021	1	25
505.213	1	0
506.404	1	-2
507.596	1	13
508.788	1	10
509.979	1	6
511.171	1	9
512.362	1	5
513.553	1	-4
514.745	1	6
515.936	1	8
517.127	1	0
518.319	1	2
519.510	1	4
520.701	1	7
521.892	1	1
523.083	1	5
524.274	1	-2
525.465	1	9
526.656	1	5
527.847	1	0
529.038	1	8
530.229	1	2
531.419	1	13
532.610	1	11
533.801	1	4
534.991	1	-1
536.182	1	3
537.373	1	-1
538.563	1	4
539.754	1	0
540.944	1	-10
542.134	1	10
543.325	1	3
544.515	1	0
545.705	1	0
546.896	1	5
548.086	1	6
549.276	1	4
550.466	1	0
551.656	1	-2
552.846	1	6
554.036	1	0
555.226	1	-2
556.416	1	11
557.606	1	-7
558.796	1	-1
559.986	1	-3
561.175	1	2
562.365	1	16
563.555	1	16
564.744	1	5
565.934	1	12
567.123	1	18
568.313	1	-4
569.502	1	6
570.692	1	5
571.881	1	12
573.070	1	9
574.260	1	6
575.449	1	4
576.638	1	9
577.827	1	13
579.016	1	9
580.205	1	4
581.394	1	-2
582.583	1	3
583.772	1	6
584.961	1	0
586.150	1	-2
587.339	1	-2
588.528	1	3
589.717	1	11
590.905	1	8
592.094	1	-6
593.283	1	5
594.471	1	-2
595.660	1	0
596.848	1	4
598.037	1	7
599.225	1	0
600.413	1	0
601.602	1	6
602.790	1	-4
603.978	1	-5
605.166	1	-10
606.355	1	6
607.543	1	-4
608.731	1	-3
609.919	1	5
611.107	1	9
612.295	1	6
613.483	1	4
614.671	1	12
615.858	1	2
617.046	1	5
618.234	1	0
619.422	1	6
620.609	1	-1
621.797	1	4
622.985	1	1
624.172	1	4
625.360	1	-14
626.547	1	0
627.735	1	7
628.922	1	-3
630.109	1	7
631.297	1	0
632.484	1	-7
633.671	1	-6
634.858	1	10
636.045	1	2
637.232	1	2
638.419	1	7
639.606	1	14
640.793	1	8
641.980	1	-3
643.167	1	4
644.354	1	-1
645.541	1	-3
646.728	1	4
647.914	1	0
649.101	1	4
650.288	1	-4
651.474	1	-5
652.661	1	2
653.847	1	8
655.034	1	-1
656.220	1	8
657.406	1	4
658.593	1	-7
659.779	1	-4
660.965	1	-1
662.152	1	5
663.338	1	-4
664.524	1	5
665.710	1	2
666.896	1	-3
668.082	1	0
669.268	1	4
670.454	1	1
671.640	1	-11
672.826	1	-7
674.011	1	9
675.197	1	-1
676.383	1	6
677.569	1	4
678.754	1	-3
679.940	1	-2
681.125	1	15
682.311	1	1
683.496	1	0
684.682	1	17
685.867	1	1
687.053	1	5
688.238	1	-1
688.746	1	2

File: GaN_sample E_spot4_UVVIS_68 K_200um_200 ms 2x2mm1_398.txt
340.368	1	3
341.565	1	-2
342.763	1	1
343.960	1	-1
345.157	1	5
346.354	1	-2
347.552	1	4
348.749	1	5
349.946	1	13
351.143	1	-4
352.340	1	2
353.537	1	-1
354.734	1	7
355.931	1	-4
357.127	1	7
358.324	1	4
359.521	1	0
360.718	1	1
361.914	1	2
363.111	1	9
364.308	1	-4
365.504	1	-3
366.701	1	-7
367.897	1	6
369.093	1	9
370.290	1	7
371.486	1	11
372.682	1	4
373.879	1	11
375.075	1	10
376.271	1	-2
377.467	1	5
378.663	1	5
379.859	1	1
381.055	1	9
382.251	1	11
383.447	1	14
384.643	1	2
385.839	1	5
387.035	1	13
388.230	1	12
389.426	1	10
390.622	1	1
391.817	1	5
393.013	1	19
394.208	1	9
395.404	1	14
396.599	1	6
397.795	1	13
398.990	1	17
400.186	1	3
401.381	1	6
402.576	1	17
403.771	1	18
404.967	1	7
406.162	1	-2
407.357	1	-2
408.552	1	9
409.747	1	-6
410.942	1	4
412.137	1	9
413.332	1	3
414.526	1	4
415.721	1	-4
416.916	1	5
418.111	1	7
419.305	1	-1
420.500	1	7
421.695	1	4
422.889	1	9
424.084	1	-1
425.278	1	2
426.472	1	1
427.667	1	1
428.861	1	2
430.055	1	4
431.250	1	-16
432.444	1	-4
433.638	1	4
434.832	1	-2
436.026	1	8
437.220	1	9
438.414	1	1
439.608	1	0
440.802	1	4
441.996	1	6
443.190	1	-4
444.384	1	13
445.578	1	17
446.771	1	0
447.965	1	-8
449.159	1	0
450.352	1	7
451.546	1	8
452.739	1	5
453.933	1	11
455.126	1	-1
456.320	1	-11
457.513	1	4
458.706	1	-2
459.899	1	9
461.093	1	1
462.286	1	5
463.479	1	17
464.672	1	0
465.865	1	-2
467.058	1	7
468.251	1	7
469.444	1	-2
470.637	1	10
471.830	1	7
473.023	1	-3
474.215	1	-2
475.408	1	0
476.601	1	4
477.793	1	8
478.986	1	6
480.179	1	2
481.371	1	1
482.564	1	-3
483.756	1	9
484.948	1	-8
486.141	1	4
487.333	1	4
488.525	1	-4
489.718	1	1
490.910	1	-1
492.102	1	-1
493.294	1	5
494.486	1	11
495.678	1	9
496.870	1	4
498.062	1	6
499.254	1	13
500.446	1	1
501.638	1	-4
502.829	1	-1
504.021	1	21
505.213	1	7
506.404	1	-8
507.596	1	2
508.788	1	-2
509.979	1	2
511.171	1	6
512.362	1	3
513.553	1	-9
514.745	1	-6
515.936	1	1
517.127	1	8
518.319	1	-1
519.510	1	0
520.701	1	2
521.892	1	-7
523.083	1	0
524.274	1	-6
525.465	1	-2
526.656	1	20
527.847	1	5
529.038	1	12
530.229	1	2
531.419	1	16
532.610	1	5
533.801	1	1
534.991	1	2
536.182	1	-10
537.373	1	-6
538.563	1	5
539.754	1	5
540.944	1	-3
542.134	1	10
543.325	1	6
544.515	1	16
545.705	1	12
546.896	1	1
548.086	1	8
549.276	1	3
550.466	1	-6
551.656	1	-7
552.846	1	21
554.036	1	-4
555.226	1	-6
556.416	1	10
557.606	1	-11
558.796	1	-6
559.986	1	2
561.175	1	4
562.365	1	-3
563.555	1	15
564.744	1	6
565.934	1	8
567.123	1	20
568.313	1	-6
569.502	1	3
570.692	1	12
571.881	1	9
573.070	1	13
574.260	1	-3
575.449	1	10
576.638	1	1
577.827	1	7
579.016	1	20
580.205	1	-1
581.394	1	-6
582.583	1	2
583.772	1	-3
584.961	1	1
586.150	1	1
587.339	1	6
588.528	1	10
589.717	1	-14
590.905	1	-2
592.094	1	9
593.283	1	6
594.471	1	-7
595.660	1	-8
596.848	1	-3
598.037	1	8
599.225	1	6
600.413	1	8
601.602	1	4
602.790	1	5
603.978	1	-2
605.166	1	-3
606.355	1	3
607.543	1	1
608.731	1	-6
609.919	1	-8
611.107	1	5
612.295	1	-4
613.483	1	5
614.671	1	8
615.858	1	0
617.046	1	-1
618.234	1	-6
619.422	1	-2
620.609	1	10
621.797	1	-1
622.985	1	1
624.172	1	10
625.360	1	-6
626.547	1	3
627.735	1	6
628.922	1	0
630.109	1	1
631.297	1	-3
632.484	1	2
633.671	1	-1
634.858	1	13
636.045	1	-1
637.232	1	2
638.419	1	13
639.606	1	12
640.793	1	-2
641.980	1	3
643.167	1	-1
644.354	1	2
645.541	1	-1
646.728	1	0
647.914	1	-4
649.101	1	-3
650.288	1	-6
651.474	1	2
652.661	1	3
653.847	1	6
655.034	1	12
656.220	1	3
657.406	1	4
658.593	1	-6
659.779	1	-6
660.965	1	6
662.152	1	-9
663.338	1	-3
664.524	1	-3
665.710	1	-4
666.896	1	-9
668.082	1	5
669.268	1	0
670.454	1	-2
671.640	1	-15
672.826	1	-6
674.011	1	-1
675.197	1	2
676.383	1	-1
677.569	1	5
678.754	1	-2
679.940	1	-5
681.125	1	6
682.311	1	4
683.496	1	0
684.682	1	7
685.867	1	-2
687.053	1	14
688.238	1	-7
688.746	1	8