Folder: cryo-il_analysis/Analysis/GaN_68K_200ms (part 26)

File: GaN_sample E_spot4_UVVIS_68 K_200um_200 ms 2x2mm1_546.txt
340.368	1	-2
341.565	1	-7
342.763	1	-2
343.960	1	-4
345.157	1	3
346.354	1	-5
347.552	1	-2
348.749	1	3
349.946	1	1
351.143	1	-5
352.340	1	4
353.537	1	1
354.734	1	-12
355.931	1	7
357.127	1	-1
358.324	1	-3
359.521	1	-5
360.718	1	-4
361.914	1	2
363.111	1	8
364.308	1	2
365.504	1	-16
366.701	1	-4
367.897	1	-1
369.093	1	3
370.290	1	1
371.486	1	7
372.682	1	-5
373.879	1	0
375.075	1	4
376.271	1	-5
377.467	1	-2
378.663	1	0
379.859	1	-7
381.055	1	2
382.251	1	5
383.447	1	17
384.643	1	11
385.839	1	9
387.035	1	5
388.230	1	-9
389.426	1	6
390.622	1	2
391.817	1	-1
393.013	1	6
394.208	1	14
395.404	1	5
396.599	1	8
397.795	1	8
398.990	1	4
400.186	1	10
401.381	1	8
402.576	1	20
403.771	1	5
404.967	1	4
406.162	1	-7
407.357	1	11
408.552	1	-1
409.747	1	-2
410.942	1	-2
412.137	1	12
413.332	1	-5
414.526	1	6
415.721	1	-5
416.916	1	-3
418.111	1	-10
419.305	1	0
420.500	1	1
421.695	1	7
422.889	1	5
424.084	1	6
425.278	1	-11
426.472	1	-3
427.667	1	12
428.861	1	-3
430.055	1	2
431.250	1	-14
432.444	1	6
433.638	1	5
434.832	1	-10
436.026	1	8
437.220	1	12
438.414	1	2
439.608	1	0
440.802	1	15
441.996	1	-4
443.190	1	-12
444.384	1	5
445.578	1	4
446.771	1	-1
447.965	1	0
449.159	1	-10
450.352	1	5
451.546	1	0
452.739	1	6
453.933	1	2
455.126	1	4
456.320	1	-2
457.513	1	5
458.706	1	0
459.899	1	7
461.093	1	2
462.286	1	2
463.479	1	4
464.672	1	1
465.865	1	-2
467.058	1	9
468.251	1	-5
469.444	1	-1
470.637	1	10
471.830	1	8
473.023	1	1
474.215	1	-2
475.408	1	-5
476.601	1	3
477.793	1	6
478.986	1	-1
480.179	1	4
481.371	1	7
482.564	1	-8
483.756	1	6
484.948	1	2
486.141	1	-8
487.333	1	3
488.525	1	-11
489.718	1	-2
490.910	1	-7
492.102	1	-5
493.294	1	4
494.486	1	9
495.678	1	16
496.870	1	0
498.062	1	-9
499.254	1	4
500.446	1	4
501.638	1	3
502.829	1	-3
504.021	1	13
505.213	1	3
506.404	1	-2
507.596	1	6
508.788	1	3
509.979	1	14
511.171	1	8
512.362	1	6
513.553	1	6
514.745	1	0
515.936	1	-1
517.127	1	-2
518.319	1	6
519.510	1	0
520.701	1	8
521.892	1	-16
523.083	1	-11
524.274	1	-4
525.465	1	7
526.656	1	11
527.847	1	-4
529.038	1	8
530.229	1	-1
531.419	1	8
532.610	1	8
533.801	1	1
534.991	1	6
536.182	1	7
537.373	1	-11
538.563	1	2
539.754	1	-5
540.944	1	2
542.134	1	2
543.325	1	4
544.515	1	-5
545.705	1	2
546.896	1	2
548.086	1	7
549.276	1	-2
550.466	1	-9
551.656	1	-5
552.846	1	-5
554.036	1	7
555.226	1	-10
556.416	1	8
557.606	1	-2
558.796	1	-1
559.986	1	-3
561.175	1	4
562.365	1	6
563.555	1	4
564.744	1	15
565.934	1	3
567.123	1	13
568.313	1	-12
569.502	1	2
570.692	1	8
571.881	1	1
573.070	1	12
574.260	1	6
575.449	1	1
576.638	1	8
577.827	1	4
579.016	1	13
580.205	1	4
581.394	1	-7
582.583	1	-8
583.772	1	-4
584.961	1	1
586.150	1	4
587.339	1	2
588.528	1	7
589.717	1	2
590.905	1	5
592.094	1	8
593.283	1	-1
594.471	1	0
595.660	1	1
596.848	1	4
598.037	1	0
599.225	1	4
600.413	1	4
601.602	1	2
602.790	1	-7
603.978	1	5
605.166	1	-10
606.355	1	-1
607.543	1	-11
608.731	1	-6
609.919	1	-14
611.107	1	9
612.295	1	-16
613.483	1	3
614.671	1	-7
615.858	1	0
617.046	1	7
618.234	1	-3
619.422	1	-7
620.609	1	4
621.797	1	2
622.985	1	10
624.172	1	8
625.360	1	-4
626.547	1	-1
627.735	1	2
628.922	1	-4
630.109	1	-1
631.297	1	-3
632.484	1	-2
633.671	1	3
634.858	1	3
636.045	1	-3
637.232	1	-2
638.419	1	2
639.606	1	8
640.793	1	-3
641.980	1	-12
643.167	1	15
644.354	1	-1
645.541	1	-6
646.728	1	7
647.914	1	-6
649.101	1	-10
650.288	1	-7
651.474	1	4
652.661	1	2
653.847	1	8
655.034	1	-4
656.220	1	-1
657.406	1	0
658.593	1	-6
659.779	1	-10
660.965	1	-7
662.152	1	5
663.338	1	-2
664.524	1	-5
665.710	1	-8
666.896	1	1
668.082	1	-9
669.268	1	4
670.454	1	3
671.640	1	-22
672.826	1	-10
674.011	1	4
675.197	1	-7
676.383	1	-3
677.569	1	5
678.754	1	-3
679.940	1	-1
681.125	1	3
682.311	1	5
683.496	1	-10
684.682	1	4
685.867	1	-3
687.053	1	5
688.238	1	0
688.746	1	7

File: GaN_sample E_spot4_UVVIS_68 K_200um_200 ms 2x2mm1_550.txt
340.368	1	-3
341.565	1	-6
342.763	1	-13
343.960	1	-11
345.157	1	10
346.354	1	11
347.552	1	-1
348.749	1	5
349.946	1	11
351.143	1	-13
352.340	1	-3
353.537	1	-5
354.734	1	-2
355.931	1	9
357.127	1	-2
358.324	1	3
359.521	1	0
360.718	1	-6
361.914	1	-10
363.111	1	10
364.308	1	1
365.504	1	3
366.701	1	-6
367.897	1	-3
369.093	1	4
370.290	1	0
371.486	1	-1
372.682	1	2
373.879	1	5
375.075	1	12
376.271	1	-7
377.467	1	-7
378.663	1	-7
379.859	1	-2
381.055	1	-4
382.251	1	2
383.447	1	5
384.643	1	2
385.839	1	6
387.035	1	2
388.230	1	-11
389.426	1	4
390.622	1	-3
391.817	1	3
393.013	1	11
394.208	1	7
395.404	1	8
396.599	1	6
397.795	1	6
398.990	1	2
400.186	1	13
401.381	1	-1
402.576	1	4
403.771	1	-6
404.967	1	4
406.162	1	0
407.357	1	8
408.552	1	9
409.747	1	-8
410.942	1	4
412.137	1	9
413.332	1	4
414.526	1	2
415.721	1	-2
416.916	1	-1
418.111	1	4
419.305	1	-4
420.500	1	4
421.695	1	0
422.889	1	4
424.084	1	-2
425.278	1	-4
426.472	1	1
427.667	1	4
428.861	1	3
430.055	1	5
431.250	1	-11
432.444	1	5
433.638	1	-5
434.832	1	-1
436.026	1	5
437.220	1	-3
438.414	1	-1
439.608	1	7
440.802	1	10
441.996	1	1
443.190	1	-9
444.384	1	2
445.578	1	3
446.771	1	-14
447.965	1	-9
449.159	1	-9
450.352	1	16
451.546	1	0
452.739	1	1
453.933	1	2
455.126	1	5
456.320	1	-5
457.513	1	14
458.706	1	4
459.899	1	0
461.093	1	3
462.286	1	16
463.479	1	5
464.672	1	-2
465.865	1	-10
467.058	1	5
468.251	1	-5
469.444	1	-3
470.637	1	9
471.830	1	11
473.023	1	-6
474.215	1	-5
475.408	1	-12
476.601	1	0
477.793	1	15
478.986	1	-4
480.179	1	3
481.371	1	3
482.564	1	2
483.756	1	11
484.948	1	0
486.141	1	-14
487.333	1	1
488.525	1	4
489.718	1	2
490.910	1	2
492.102	1	-5
493.294	1	1
494.486	1	12
495.678	1	7
496.870	1	-7
498.062	1	-1
499.254	1	-2
500.446	1	8
501.638	1	7
502.829	1	3
504.021	1	19
505.213	1	-4
506.404	1	-4
507.596	1	6
508.788	1	6
509.979	1	-2
511.171	1	10
512.362	1	5
513.553	1	-8
514.745	1	2
515.936	1	4
517.127	1	-2
518.319	1	2
519.510	1	1
520.701	1	2
521.892	1	-13
523.083	1	-2
524.274	1	-5
525.465	1	-2
526.656	1	26
527.847	1	-8
529.038	1	5
530.229	1	3
531.419	1	5
532.610	1	4
533.801	1	11
534.991	1	1
536.182	1	4
537.373	1	0
538.563	1	7
539.754	1	-9
540.944	1	-5
542.134	1	6
543.325	1	2
544.515	1	-6
545.705	1	9
546.896	1	-2
548.086	1	-1
549.276	1	0
550.466	1	-5
551.656	1	-1
552.846	1	8
554.036	1	4
555.226	1	-2
556.416	1	5
557.606	1	-9
558.796	1	-5
559.986	1	-15
561.175	1	-7
562.365	1	-2
563.555	1	5
564.744	1	6
565.934	1	7
567.123	1	14
568.313	1	2
569.502	1	-1
570.692	1	6
571.881	1	-2
573.070	1	3
574.260	1	-9
575.449	1	0
576.638	1	3
577.827	1	4
579.016	1	13
580.205	1	2
581.394	1	0
582.583	1	-7
583.772	1	-1
584.961	1	4
586.150	1	-3
587.339	1	0
588.528	1	-1
589.717	1	5
590.905	1	1
592.094	1	9
593.283	1	5
594.471	1	-1
595.660	1	-2
596.848	1	12
598.037	1	6
599.225	1	8
600.413	1	2
601.602	1	5
602.790	1	-5
603.978	1	1
605.166	1	-3
606.355	1	8
607.543	1	-5
608.731	1	-3
609.919	1	-9
611.107	1	9
612.295	1	-3
613.483	1	4
614.671	1	7
615.858	1	7
617.046	1	1
618.234	1	7
619.422	1	4
620.609	1	1
621.797	1	0
622.985	1	2
624.172	1	5
625.360	1	-6
626.547	1	3
627.735	1	8
628.922	1	5
630.109	1	-4
631.297	1	-3
632.484	1	-5
633.671	1	-5
634.858	1	3
636.045	1	4
637.232	1	-5
638.419	1	3
639.606	1	8
640.793	1	6
641.980	1	-4
643.167	1	15
644.354	1	2
645.541	1	-5
646.728	1	7
647.914	1	-3
649.101	1	-3
650.288	1	2
651.474	1	0
652.661	1	12
653.847	1	2
655.034	1	-1
656.220	1	6
657.406	1	10
658.593	1	0
659.779	1	-8
660.965	1	-4
662.152	1	5
663.338	1	-7
664.524	1	7
665.710	1	-10
666.896	1	3
668.082	1	5
669.268	1	-3
670.454	1	2
671.640	1	-12
672.826	1	-10
674.011	1	-4
675.197	1	-1
676.383	1	-5
677.569	1	-1
678.754	1	-6
679.940	1	-6
681.125	1	-7
682.311	1	-4
683.496	1	5
684.682	1	-2
685.867	1	4
687.053	1	-4
688.238	1	4
688.746	1	8

File: GaN_sample E_spot4_UVVIS_68 K_200um_200 ms 2x2mm1_560.txt
340.368	1	3
341.565	1	-7
342.763	1	-1
343.960	1	-2
345.157	1	-1
346.354	1	3
347.552	1	3
348.749	1	8
349.946	1	2
351.143	1	-6
352.340	1	1
353.537	1	4
354.734	1	-3
355.931	1	-8
357.127	1	1
358.324	1	7
359.521	1	-1
360.718	1	-4
361.914	1	-3
363.111	1	14
364.308	1	-7
365.504	1	-11
366.701	1	-12
367.897	1	1
369.093	1	12
370.290	1	-1
371.486	1	10
372.682	1	2
373.879	1	7
375.075	1	2
376.271	1	-1
377.467	1	-5
378.663	1	0
379.859	1	-6
381.055	1	10
382.251	1	-3
383.447	1	14
384.643	1	5
385.839	1	0
387.035	1	-6
388.230	1	8
389.426	1	8
390.622	1	1
391.817	1	-1
393.013	1	7
394.208	1	-5
395.404	1	8
396.599	1	0
397.795	1	0
398.990	1	5
400.186	1	11
401.381	1	5
402.576	1	9
403.771	1	6
404.967	1	7
406.162	1	-3
407.357	1	-3
408.552	1	-2
409.747	1	1
410.942	1	-2
412.137	1	18
413.332	1	-2
414.526	1	13
415.721	1	2
416.916	1	-2
418.111	1	5
419.305	1	1
420.500	1	-2
421.695	1	1
422.889	1	8
424.084	1	3
425.278	1	-10
426.472	1	-8
427.667	1	13
428.861	1	2
430.055	1	-1
431.250	1	-6
432.444	1	4
433.638	1	-9
434.832	1	-5
436.026	1	6
437.220	1	5
438.414	1	1
439.608	1	-5
440.802	1	5
441.996	1	-3
443.190	1	-20
444.384	1	-1
445.578	1	1
446.771	1	7
447.965	1	-11
449.159	1	-6
450.352	1	10
451.546	1	5
452.739	1	1
453.933	1	8
455.126	1	-3
456.320	1	0
457.513	1	8
458.706	1	-2
459.899	1	13
461.093	1	1
462.286	1	1
463.479	1	8
464.672	1	7
465.865	1	-2
467.058	1	10
468.251	1	-4
469.444	1	7
470.637	1	16
471.830	1	17
473.023	1	-3
474.215	1	-2
475.408	1	2
476.601	1	2
477.793	1	4
478.986	1	-8
480.179	1	2
481.371	1	7
482.564	1	-13
483.756	1	10
484.948	1	0
486.141	1	-4
487.333	1	10
488.525	1	-1
489.718	1	-5
490.910	1	-1
492.102	1	-1
493.294	1	14
494.486	1	0
495.678	1	-2
496.870	1	2
498.062	1	5
499.254	1	2
500.446	1	3
501.638	1	4
502.829	1	-1
504.021	1	13
505.213	1	-1
506.404	1	-1
507.596	1	1
508.788	1	6
509.979	1	9
511.171	1	10
512.362	1	1
513.553	1	-10
514.745	1	-5
515.936	1	-2
517.127	1	-3
518.319	1	-4
519.510	1	-5
520.701	1	-1
521.892	1	-8
523.083	1	-2
524.274	1	-3
525.465	1	-3
526.656	1	20
527.847	1	-6
529.038	1	2
530.229	1	0
531.419	1	16
532.610	1	8
533.801	1	0
534.991	1	4
536.182	1	-2
537.373	1	0
538.563	1	2
539.754	1	-3
540.944	1	-4
542.134	1	5
543.325	1	-4
544.515	1	-7
545.705	1	5
546.896	1	-2
548.086	1	5
549.276	1	7
550.466	1	-3
551.656	1	-1
552.846	1	10
554.036	1	6
555.226	1	-4
556.416	1	7
557.606	1	-3
558.796	1	-4
559.986	1	-3
561.175	1	-3
562.365	1	-2
563.555	1	9
564.744	1	11
565.934	1	6
567.123	1	17
568.313	1	1
569.502	1	3
570.692	1	-3
571.881	1	4
573.070	1	13
574.260	1	-4
575.449	1	-6
576.638	1	5
577.827	1	1
579.016	1	14
580.205	1	4
581.394	1	-6
582.583	1	-9
583.772	1	5
584.961	1	0
586.150	1	-6
587.339	1	-1
588.528	1	6
589.717	1	5
590.905	1	3
592.094	1	-2
593.283	1	7
594.471	1	3
595.660	1	0
596.848	1	1
598.037	1	5
599.225	1	-4
600.413	1	-6
601.602	1	1
602.790	1	2
603.978	1	3
605.166	1	-12
606.355	1	11
607.543	1	-7
608.731	1	-6
609.919	1	-4
611.107	1	9
612.295	1	0
613.483	1	14
614.671	1	8
615.858	1	3
617.046	1	7
618.234	1	-5
619.422	1	-5
620.609	1	-12
621.797	1	-2
622.985	1	6
624.172	1	6
625.360	1	-7
626.547	1	0
627.735	1	-7
628.922	1	-5
630.109	1	-1
631.297	1	-3
632.484	1	-1
633.671	1	6
634.858	1	9
636.045	1	-7
637.232	1	1
638.419	1	2
639.606	1	16
640.793	1	5
641.980	1	-9
643.167	1	8
644.354	1	-6
645.541	1	-2
646.728	1	-6
647.914	1	-4
649.101	1	-3
650.288	1	-6
651.474	1	-1
652.661	1	5
653.847	1	-3
655.034	1	-1
656.220	1	11
657.406	1	1
658.593	1	-4
659.779	1	-1
660.965	1	-7
662.152	1	1
663.338	1	-3
664.524	1	-3
665.710	1	-3
666.896	1	-3
668.082	1	2
669.268	1	-3
670.454	1	3
671.640	1	-20
672.826	1	-9
674.011	1	3
675.197	1	-4
676.383	1	-5
677.569	1	-2
678.754	1	-8
679.940	1	-5
681.125	1	1
682.311	1	5
683.496	1	-10
684.682	1	7
685.867	1	1
687.053	1	0
688.238	1	0
688.746	1	2

File: GaN_sample E_spot4_UVVIS_68 K_200um_200 ms 2x2mm1_571.txt
340.368	1	7
341.565	1	-7
342.763	1	-3
343.960	1	-4
345.157	1	4
346.354	1	3
347.552	1	3
348.749	1	-6
349.946	1	7
351.143	1	-15
352.340	1	-2
353.537	1	2
354.734	1	-8
355.931	1	-1
357.127	1	-1
358.324	1	-2
359.521	1	-6
360.718	1	0
361.914	1	5
363.111	1	5
364.308	1	6
365.504	1	-6
366.701	1	-2
367.897	1	4
369.093	1	3
370.290	1	-6
371.486	1	17
372.682	1	-3
373.879	1	8
375.075	1	11
376.271	1	2
377.467	1	-6
378.663	1	-1
379.859	1	-3
381.055	1	4
382.251	1	-2
383.447	1	5
384.643	1	14
385.839	1	-1
387.035	1	0
388.230	1	4
389.426	1	3
390.622	1	-1
391.817	1	3
393.013	1	2
394.208	1	12
395.404	1	4
396.599	1	5
397.795	1	-1
398.990	1	7
400.186	1	7
401.381	1	0
402.576	1	7
403.771	1	4
404.967	1	0
406.162	1	6
407.357	1	1
408.552	1	10
409.747	1	-4
410.942	1	8
412.137	1	10
413.332	1	4
414.526	1	12
415.721	1	5
416.916	1	-6
418.111	1	-4
419.305	1	-1
420.500	1	12
421.695	1	1
422.889	1	2
424.084	1	1
425.278	1	-7
426.472	1	4
427.667	1	4
428.861	1	0
430.055	1	-7
431.250	1	-5
432.444	1	0
433.638	1	1
434.832	1	-7
436.026	1	3
437.220	1	5
438.414	1	6
439.608	1	-7
440.802	1	-2
441.996	1	2
443.190	1	-9
444.384	1	6
445.578	1	5
446.771	1	1
447.965	1	-3
449.159	1	-4
450.352	1	2
451.546	1	13
452.739	1	4
453.933	1	6
455.126	1	-8
456.320	1	4
457.513	1	2
458.706	1	1
459.899	1	7
461.093	1	0
462.286	1	5
463.479	1	6
464.672	1	-2
465.865	1	4
467.058	1	6
468.251	1	0
469.444	1	-7
470.637	1	7
471.830	1	14
473.023	1	-15
474.215	1	-3
475.408	1	1
476.601	1	3
477.793	1	15
478.986	1	-2
480.179	1	3
481.371	1	1
482.564	1	-21
483.756	1	10
484.948	1	-2
486.141	1	-11
487.333	1	-1
488.525	1	-5
489.718	1	-9
490.910	1	6
492.102	1	-9
493.294	1	1
494.486	1	5
495.678	1	0
496.870	1	0
498.062	1	1
499.254	1	3
500.446	1	6
501.638	1	4
502.829	1	0
504.021	1	9
505.213	1	0
506.404	1	-6
507.596	1	6
508.788	1	0
509.979	1	-1
511.171	1	14
512.362	1	-5
513.553	1	0
514.745	1	-4
515.936	1	5
517.127	1	0
518.319	1	1
519.510	1	9
520.701	1	2
521.892	1	-9
523.083	1	0
524.274	1	-5
525.465	1	-1
526.656	1	19
527.847	1	-6
529.038	1	5
530.229	1	2
531.419	1	3
532.610	1	-1
533.801	1	2
534.991	1	3
536.182	1	5
537.373	1	1
538.563	1	2
539.754	1	-1
540.944	1	8
542.134	1	4
543.325	1	-3
544.515	1	1
545.705	1	-2
546.896	1	-1
548.086	1	2
549.276	1	6
550.466	1	-4
551.656	1	-17
552.846	1	11
554.036	1	-6
555.226	1	-13
556.416	1	-1
557.606	1	-19
558.796	1	2
559.986	1	-17
561.175	1	-6
562.365	1	4
563.555	1	7
564.744	1	8
565.934	1	4
567.123	1	15
568.313	1	-4
569.502	1	4
570.692	1	4
571.881	1	10
573.070	1	6
574.260	1	-7
575.449	1	11
576.638	1	-3
577.827	1	1
579.016	1	3
580.205	1	3
581.394	1	1
582.583	1	-6
583.772	1	-2
584.961	1	11
586.150	1	-1
587.339	1	-5
588.528	1	3
589.717	1	-5
590.905	1	-1
592.094	1	6
593.283	1	12
594.471	1	-2
595.660	1	0
596.848	1	7
598.037	1	-7
599.225	1	5
600.413	1	3
601.602	1	11
602.790	1	-1
603.978	1	0
605.166	1	2
606.355	1	1
607.543	1	-12
608.731	1	-9
609.919	1	-10
611.107	1	11
612.295	1	-2
613.483	1	3
614.671	1	-2
615.858	1	10
617.046	1	3
618.234	1	5
619.422	1	6
620.609	1	-3
621.797	1	1
622.985	1	5
624.172	1	5
625.360	1	5
626.547	1	3
627.735	1	2
628.922	1	4
630.109	1	-5
631.297	1	-4
632.484	1	-2
633.671	1	-3
634.858	1	-1
636.045	1	-5
637.232	1	-1
638.419	1	2
639.606	1	11
640.793	1	9
641.980	1	-6
643.167	1	14
644.354	1	-2
645.541	1	-7
646.728	1	7
647.914	1	-8
649.101	1	6
650.288	1	1
651.474	1	4
652.661	1	3
653.847	1	7
655.034	1	-4
656.220	1	4
657.406	1	9
658.593	1	-10
659.779	1	2
660.965	1	6
662.152	1	0
663.338	1	-4
664.524	1	-11
665.710	1	-7
666.896	1	-5
668.082	1	5
669.268	1	3
670.454	1	-6
671.640	1	-12
672.826	1	-16
674.011	1	4
675.197	1	-2
676.383	1	3
677.569	1	-4
678.754	1	-7
679.940	1	3
681.125	1	1
682.311	1	3
683.496	1	1
684.682	1	3
685.867	1	5
687.053	1	1
688.238	1	-5
688.746	1	2

File: GaN_sample E_spot4_UVVIS_68 K_200um_200 ms 2x2mm1_572.txt
340.368	1	3
341.565	1	-5
342.763	1	-1
343.960	1	-7
345.157	1	5
346.354	1	0
347.552	1	-8
348.749	1	5
349.946	1	5
351.143	1	-5
352.340	1	3
353.537	1	-5
354.734	1	-1
355.931	1	0
357.127	1	10
358.324	1	-6
359.521	1	1
360.718	1	-5
361.914	1	-7
363.111	1	16
364.308	1	-7
365.504	1	0
366.701	1	-3
367.897	1	-2
369.093	1	4
370.290	1	-6
371.486	1	7
372.682	1	6
373.879	1	13
375.075	1	8
376.271	1	5
377.467	1	-3
378.663	1	2
379.859	1	4
381.055	1	-4
382.251	1	8
383.447	1	4
384.643	1	3
385.839	1	4
387.035	1	6
388.230	1	-4
389.426	1	10
390.622	1	2
391.817	1	-2
393.013	1	12
394.208	1	6
395.404	1	1
396.599	1	2
397.795	1	7
398.990	1	6
400.186	1	7
401.381	1	6
402.576	1	13
403.771	1	4
404.967	1	6
406.162	1	-3
407.357	1	6
408.552	1	3
409.747	1	0
410.942	1	7
412.137	1	8
413.332	1	-4
414.526	1	1
415.721	1	1
416.916	1	-1
418.111	1	-1
419.305	1	0
420.500	1	1
421.695	1	4
422.889	1	9
424.084	1	0
425.278	1	-7
426.472	1	-5
427.667	1	14
428.861	1	5
430.055	1	-3
431.250	1	-4
432.444	1	0
433.638	1	-1
434.832	1	-3
436.026	1	2
437.220	1	8
438.414	1	-3
439.608	1	-1
440.802	1	-2
441.996	1	-4
443.190	1	-7
444.384	1	7
445.578	1	7
446.771	1	0
447.965	1	-14
449.159	1	-6
450.352	1	10
451.546	1	5
452.739	1	-9
453.933	1	9
455.126	1	-5
456.320	1	-5
457.513	1	6
458.706	1	0
459.899	1	9
461.093	1	1
462.286	1	9
463.479	1	5
464.672	1	5
465.865	1	-3
467.058	1	11
468.251	1	5
469.444	1	-6
470.637	1	11
471.830	1	13
473.023	1	-7
474.215	1	-9
475.408	1	7
476.601	1	2
477.793	1	3
478.986	1	5
480.179	1	-8
481.371	1	5
482.564	1	-6
483.756	1	8
484.948	1	-1
486.141	1	-17
487.333	1	0
488.525	1	-4
489.718	1	6
490.910	1	4
492.102	1	-9
493.294	1	3
494.486	1	2
495.678	1	7
496.870	1	8
498.062	1	0
499.254	1	-4
500.446	1	8
501.638	1	0
502.829	1	-1
504.021	1	20
505.213	1	-1
506.404	1	-2
507.596	1	3
508.788	1	-8
509.979	1	1
511.171	1	5
512.362	1	10
513.553	1	-10
514.745	1	-6
515.936	1	-4
517.127	1	5
518.319	1	-2
519.510	1	2
520.701	1	2
521.892	1	-9
523.083	1	0
524.274	1	1
525.465	1	-5
526.656	1	9
527.847	1	1
529.038	1	-1
530.229	1	1
531.419	1	3
532.610	1	6
533.801	1	14
534.991	1	-3
536.182	1	-2
537.373	1	2
538.563	1	5
539.754	1	-6
540.944	1	-8
542.134	1	9
543.325	1	0
544.515	1	-4
545.705	1	1
546.896	1	4
548.086	1	6
549.276	1	-1
550.466	1	3
551.656	1	-9
552.846	1	3
554.036	1	8
555.226	1	-11
556.416	1	5
557.606	1	-2
558.796	1	2
559.986	1	-8
561.175	1	-4
562.365	1	5
563.555	1	16
564.744	1	4
565.934	1	3
567.123	1	17
568.313	1	-7
569.502	1	0
570.692	1	2
571.881	1	8
573.070	1	2
574.260	1	5
575.449	1	3
576.638	1	-6
577.827	1	-1
579.016	1	11
580.205	1	7
581.394	1	-2
582.583	1	-4
583.772	1	2
584.961	1	4
586.150	1	1
587.339	1	6
588.528	1	7
589.717	1	3
590.905	1	3
592.094	1	3
593.283	1	15
594.471	1	-2
595.660	1	-5
596.848	1	8
598.037	1	6
599.225	1	4
600.413	1	-6
601.602	1	3
602.790	1	9
603.978	1	0
605.166	1	0
606.355	1	4
607.543	1	-1
608.731	1	-12
609.919	1	-4
611.107	1	13
612.295	1	-3
613.483	1	9
614.671	1	-2
615.858	1	7
617.046	1	6
618.234	1	-2
619.422	1	-9
620.609	1	16
621.797	1	6
622.985	1	10
624.172	1	15
625.360	1	-6
626.547	1	6
627.735	1	11
628.922	1	2
630.109	1	-6
631.297	1	-1
632.484	1	0
633.671	1	2
634.858	1	4
636.045	1	5
637.232	1	-9
638.419	1	3
639.606	1	2
640.793	1	1
641.980	1	-4
643.167	1	6
644.354	1	-16
645.541	1	-5
646.728	1	3
647.914	1	-1
649.101	1	-2
650.288	1	2
651.474	1	4
652.661	1	9
653.847	1	6
655.034	1	3
656.220	1	-1
657.406	1	10
658.593	1	-2
659.779	1	5
660.965	1	6
662.152	1	-2
663.338	1	-6
664.524	1	-14
665.710	1	-8
666.896	1	-3
668.082	1	-10
669.268	1	0
670.454	1	1
671.640	1	-9
672.826	1	-9
674.011	1	14
675.197	1	-4
676.383	1	1
677.569	1	-5
678.754	1	-1
679.940	1	-9
681.125	1	5
682.311	1	1
683.496	1	0
684.682	1	0
685.867	1	3
687.053	1	5
688.238	1	6
688.746	1	1

File: GaN_sample E_spot4_UVVIS_68 K_200um_200 ms 2x2mm1_576.txt
340.368	1	-3
341.565	1	-6
342.763	1	-3
343.960	1	-2
345.157	1	6
346.354	1	-9
347.552	1	11
348.749	1	-2
349.946	1	6
351.143	1	-5
352.340	1	0
353.537	1	1
354.734	1	-5
355.931	1	-9
357.127	1	1
358.324	1	-6
359.521	1	2
360.718	1	-5
361.914	1	1
363.111	1	15
364.308	1	3
365.504	1	-6
366.701	1	-5
367.897	1	6
369.093	1	2
370.290	1	-11
371.486	1	10
372.682	1	0
373.879	1	2
375.075	1	12
376.271	1	2
377.467	1	-4
378.663	1	1
379.859	1	6
381.055	1	10
382.251	1	6
383.447	1	8
384.643	1	6
385.839	1	2
387.035	1	-2
388.230	1	3
389.426	1	2
390.622	1	11
391.817	1	3
393.013	1	16
394.208	1	12
395.404	1	11
396.599	1	-1
397.795	1	6
398.990	1	11
400.186	1	12
401.381	1	6
402.576	1	22
403.771	1	6
404.967	1	9
406.162	1	4
407.357	1	0
408.552	1	-3
409.747	1	-2
410.942	1	4
412.137	1	1
413.332	1	-1
414.526	1	3
415.721	1	2
416.916	1	4
418.111	1	-2
419.305	1	3
420.500	1	12
421.695	1	-2
422.889	1	6
424.084	1	1
425.278	1	0
426.472	1	-9
427.667	1	2
428.861	1	0
430.055	1	3
431.250	1	-3
432.444	1	4
433.638	1	1
434.832	1	-5
436.026	1	1
437.220	1	4
438.414	1	3
439.608	1	2
440.802	1	-3
441.996	1	2
443.190	1	-12
444.384	1	-5
445.578	1	6
446.771	1	1
447.965	1	-6
449.159	1	-3
450.352	1	9
451.546	1	5
452.739	1	1
453.933	1	-4
455.126	1	1
456.320	1	4
457.513	1	14
458.706	1	5
459.899	1	6
461.093	1	4
462.286	1	9
463.479	1	8
464.672	1	0
465.865	1	-6
467.058	1	13
468.251	1	-2
469.444	1	-2
470.637	1	12
471.830	1	3
473.023	1	1
474.215	1	-11
475.408	1	6
476.601	1	5
477.793	1	13
478.986	1	4
480.179	1	-2
481.371	1	4
482.564	1	-9
483.756	1	9
484.948	1	-3
486.141	1	-3
487.333	1	-5
488.525	1	-1
489.718	1	-3
490.910	1	-4
492.102	1	-6
493.294	1	3
494.486	1	-4
495.678	1	11
496.870	1	1
498.062	1	-7
499.254	1	4
500.446	1	9
501.638	1	8
502.829	1	-7
504.021	1	17
505.213	1	1
506.404	1	-13
507.596	1	2
508.788	1	2
509.979	1	-11
511.171	1	12
512.362	1	4
513.553	1	-5
514.745	1	-1
515.936	1	13
517.127	1	1
518.319	1	-2
519.510	1	0
520.701	1	12
521.892	1	-12
523.083	1	0
524.274	1	-2
525.465	1	0
526.656	1	13
527.847	1	-8
529.038	1	5
530.229	1	11
531.419	1	4
532.610	1	4
533.801	1	6
534.991	1	7
536.182	1	-3
537.373	1	3
538.563	1	3
539.754	1	-5
540.944	1	-5
542.134	1	10
543.325	1	2
544.515	1	6
545.705	1	1
546.896	1	0
548.086	1	8
549.276	1	5
550.466	1	2
551.656	1	-3
552.846	1	9
554.036	1	10
555.226	1	-1
556.416	1	-3
557.606	1	-11
558.796	1	-7
559.986	1	3
561.175	1	5
562.365	1	-4
563.555	1	15
564.744	1	4
565.934	1	1
567.123	1	20
568.313	1	1
569.502	1	-3
570.692	1	-1
571.881	1	8
573.070	1	-1
574.260	1	-2
575.449	1	7
576.638	1	-1
577.827	1	8
579.016	1	6
580.205	1	4
581.394	1	-7
582.583	1	-14
583.772	1	-2
584.961	1	-1
586.150	1	-9
587.339	1	10
588.528	1	12
589.717	1	6
590.905	1	8
592.094	1	0
593.283	1	2
594.471	1	3
595.660	1	-13
596.848	1	12
598.037	1	6
599.225	1	10
600.413	1	3
601.602	1	6
602.790	1	13
603.978	1	3
605.166	1	-7
606.355	1	8
607.543	1	-5
608.731	1	-11
609.919	1	-8
611.107	1	4
612.295	1	3
613.483	1	8
614.671	1	6
615.858	1	4
617.046	1	1
618.234	1	2
619.422	1	-4
620.609	1	7
621.797	1	4
622.985	1	4
624.172	1	14
625.360	1	-7
626.547	1	0
627.735	1	7
628.922	1	-7
630.109	1	-9
631.297	1	-8
632.484	1	-8
633.671	1	-5
634.858	1	6
636.045	1	-5
637.232	1	5
638.419	1	9
639.606	1	5
640.793	1	3
641.980	1	0
643.167	1	8
644.354	1	-6
645.541	1	-4
646.728	1	-6
647.914	1	0
649.101	1	3
650.288	1	-4
651.474	1	7
652.661	1	-1
653.847	1	8
655.034	1	5
656.220	1	6
657.406	1	9
658.593	1	-5
659.779	1	-3
660.965	1	0
662.152	1	-5
663.338	1	2
664.524	1	-8
665.710	1	-2
666.896	1	-11
668.082	1	1
669.268	1	-5
670.454	1	5
671.640	1	-15
672.826	1	-19
674.011	1	13
675.197	1	3
676.383	1	-12
677.569	1	-11
678.754	1	9
679.940	1	-13
681.125	1	4
682.311	1	-3
683.496	1	-6
684.682	1	12
685.867	1	0
687.053	1	-1
688.238	1	7
688.746	1	4