Folder: cryo-il_analysis/Analysis/GaN_68K_200ms (part 25)

File: GaN_sample E_spot4_UVVIS_68 K_200um_200 ms 2x2mm1_518.txt
340.368	1	-7
341.565	1	-9
342.763	1	-7
343.960	1	-11
345.157	1	3
346.354	1	5
347.552	1	6
348.749	1	1
349.946	1	11
351.143	1	-12
352.340	1	-6
353.537	1	0
354.734	1	0
355.931	1	5
357.127	1	13
358.324	1	-5
359.521	1	2
360.718	1	-2
361.914	1	-8
363.111	1	2
364.308	1	-4
365.504	1	-1
366.701	1	1
367.897	1	5
369.093	1	2
370.290	1	-3
371.486	1	12
372.682	1	-10
373.879	1	14
375.075	1	6
376.271	1	-2
377.467	1	2
378.663	1	-4
379.859	1	1
381.055	1	1
382.251	1	8
383.447	1	4
384.643	1	7
385.839	1	1
387.035	1	1
388.230	1	1
389.426	1	5
390.622	1	12
391.817	1	-4
393.013	1	5
394.208	1	12
395.404	1	9
396.599	1	6
397.795	1	10
398.990	1	11
400.186	1	12
401.381	1	0
402.576	1	10
403.771	1	14
404.967	1	1
406.162	1	-2
407.357	1	4
408.552	1	4
409.747	1	-5
410.942	1	3
412.137	1	5
413.332	1	1
414.526	1	-1
415.721	1	-2
416.916	1	-6
418.111	1	5
419.305	1	0
420.500	1	5
421.695	1	7
422.889	1	13
424.084	1	6
425.278	1	-3
426.472	1	0
427.667	1	6
428.861	1	-1
430.055	1	6
431.250	1	-6
432.444	1	13
433.638	1	5
434.832	1	-7
436.026	1	4
437.220	1	11
438.414	1	2
439.608	1	-4
440.802	1	8
441.996	1	2
443.190	1	-12
444.384	1	4
445.578	1	5
446.771	1	6
447.965	1	-15
449.159	1	3
450.352	1	6
451.546	1	-1
452.739	1	3
453.933	1	3
455.126	1	4
456.320	1	-5
457.513	1	11
458.706	1	5
459.899	1	4
461.093	1	-1
462.286	1	5
463.479	1	10
464.672	1	-3
465.865	1	3
467.058	1	20
468.251	1	4
469.444	1	-4
470.637	1	11
471.830	1	13
473.023	1	5
474.215	1	-5
475.408	1	2
476.601	1	-5
477.793	1	12
478.986	1	-7
480.179	1	7
481.371	1	6
482.564	1	-5
483.756	1	10
484.948	1	0
486.141	1	-14
487.333	1	3
488.525	1	-2
489.718	1	-2
490.910	1	-11
492.102	1	-4
493.294	1	8
494.486	1	-1
495.678	1	8
496.870	1	-2
498.062	1	-2
499.254	1	9
500.446	1	8
501.638	1	-3
502.829	1	4
504.021	1	15
505.213	1	-8
506.404	1	-12
507.596	1	2
508.788	1	6
509.979	1	0
511.171	1	11
512.362	1	-4
513.553	1	-8
514.745	1	6
515.936	1	4
517.127	1	2
518.319	1	1
519.510	1	-1
520.701	1	9
521.892	1	-7
523.083	1	-2
524.274	1	-14
525.465	1	-3
526.656	1	23
527.847	1	-6
529.038	1	14
530.229	1	9
531.419	1	4
532.610	1	10
533.801	1	-1
534.991	1	4
536.182	1	4
537.373	1	-6
538.563	1	3
539.754	1	-1
540.944	1	-8
542.134	1	1
543.325	1	0
544.515	1	-7
545.705	1	11
546.896	1	7
548.086	1	-1
549.276	1	11
550.466	1	-2
551.656	1	-7
552.846	1	7
554.036	1	3
555.226	1	-3
556.416	1	12
557.606	1	-8
558.796	1	5
559.986	1	3
561.175	1	3
562.365	1	3
563.555	1	6
564.744	1	-8
565.934	1	-1
567.123	1	12
568.313	1	-6
569.502	1	-1
570.692	1	8
571.881	1	11
573.070	1	10
574.260	1	-7
575.449	1	3
576.638	1	8
577.827	1	3
579.016	1	17
580.205	1	1
581.394	1	0
582.583	1	-4
583.772	1	3
584.961	1	3
586.150	1	9
587.339	1	15
588.528	1	1
589.717	1	7
590.905	1	10
592.094	1	2
593.283	1	2
594.471	1	2
595.660	1	-1
596.848	1	6
598.037	1	3
599.225	1	2
600.413	1	0
601.602	1	9
602.790	1	-2
603.978	1	2
605.166	1	-7
606.355	1	7
607.543	1	-10
608.731	1	-6
609.919	1	-3
611.107	1	12
612.295	1	5
613.483	1	0
614.671	1	4
615.858	1	4
617.046	1	-1
618.234	1	0
619.422	1	0
620.609	1	3
621.797	1	2
622.985	1	14
624.172	1	6
625.360	1	-3
626.547	1	8
627.735	1	11
628.922	1	-8
630.109	1	0
631.297	1	1
632.484	1	-4
633.671	1	4
634.858	1	9
636.045	1	8
637.232	1	1
638.419	1	13
639.606	1	20
640.793	1	8
641.980	1	0
643.167	1	7
644.354	1	-3
645.541	1	-7
646.728	1	7
647.914	1	-7
649.101	1	6
650.288	1	-9
651.474	1	5
652.661	1	-2
653.847	1	15
655.034	1	2
656.220	1	7
657.406	1	12
658.593	1	-10
659.779	1	-3
660.965	1	-1
662.152	1	-1
663.338	1	7
664.524	1	-13
665.710	1	-2
666.896	1	3
668.082	1	-5
669.268	1	12
670.454	1	6
671.640	1	-12
672.826	1	-12
674.011	1	1
675.197	1	-1
676.383	1	4
677.569	1	6
678.754	1	-3
679.940	1	-2
681.125	1	4
682.311	1	-1
683.496	1	2
684.682	1	9
685.867	1	-1
687.053	1	8
688.238	1	1
688.746	1	-2

File: GaN_sample E_spot4_UVVIS_68 K_200um_200 ms 2x2mm1_528.txt
340.368	1	3
341.565	1	-11
342.763	1	5
343.960	1	3
345.157	1	3
346.354	1	-8
347.552	1	2
348.749	1	7
349.946	1	5
351.143	1	-9
352.340	1	-1
353.537	1	1
354.734	1	0
355.931	1	-2
357.127	1	-8
358.324	1	-2
359.521	1	0
360.718	1	-9
361.914	1	-9
363.111	1	6
364.308	1	-1
365.504	1	-2
366.701	1	-6
367.897	1	3
369.093	1	-1
370.290	1	-2
371.486	1	4
372.682	1	-6
373.879	1	7
375.075	1	14
376.271	1	-6
377.467	1	2
378.663	1	-8
379.859	1	-5
381.055	1	1
382.251	1	-3
383.447	1	11
384.643	1	2
385.839	1	9
387.035	1	9
388.230	1	8
389.426	1	4
390.622	1	-1
391.817	1	3
393.013	1	9
394.208	1	11
395.404	1	3
396.599	1	0
397.795	1	-3
398.990	1	7
400.186	1	9
401.381	1	9
402.576	1	9
403.771	1	6
404.967	1	-3
406.162	1	0
407.357	1	1
408.552	1	14
409.747	1	-1
410.942	1	-3
412.137	1	5
413.332	1	-5
414.526	1	2
415.721	1	4
416.916	1	-6
418.111	1	-5
419.305	1	-4
420.500	1	-3
421.695	1	2
422.889	1	-4
424.084	1	7
425.278	1	-7
426.472	1	-11
427.667	1	6
428.861	1	6
430.055	1	2
431.250	1	-6
432.444	1	2
433.638	1	-6
434.832	1	-4
436.026	1	-3
437.220	1	3
438.414	1	7
439.608	1	-7
440.802	1	3
441.996	1	-7
443.190	1	-6
444.384	1	2
445.578	1	7
446.771	1	-8
447.965	1	-6
449.159	1	-6
450.352	1	11
451.546	1	1
452.739	1	1
453.933	1	8
455.126	1	5
456.320	1	-4
457.513	1	6
458.706	1	1
459.899	1	12
461.093	1	11
462.286	1	3
463.479	1	9
464.672	1	5
465.865	1	-8
467.058	1	10
468.251	1	-5
469.444	1	1
470.637	1	11
471.830	1	10
473.023	1	0
474.215	1	-6
475.408	1	0
476.601	1	-1
477.793	1	4
478.986	1	5
480.179	1	9
481.371	1	1
482.564	1	-5
483.756	1	14
484.948	1	-8
486.141	1	-12
487.333	1	3
488.525	1	-1
489.718	1	-3
490.910	1	-5
492.102	1	-1
493.294	1	3
494.486	1	10
495.678	1	7
496.870	1	2
498.062	1	1
499.254	1	11
500.446	1	4
501.638	1	-4
502.829	1	-4
504.021	1	5
505.213	1	3
506.404	1	-5
507.596	1	5
508.788	1	-5
509.979	1	3
511.171	1	9
512.362	1	-2
513.553	1	-5
514.745	1	0
515.936	1	1
517.127	1	4
518.319	1	0
519.510	1	3
520.701	1	2
521.892	1	-1
523.083	1	-5
524.274	1	-6
525.465	1	-2
526.656	1	22
527.847	1	-5
529.038	1	7
530.229	1	5
531.419	1	3
532.610	1	6
533.801	1	-4
534.991	1	3
536.182	1	-2
537.373	1	-3
538.563	1	-5
539.754	1	-6
540.944	1	1
542.134	1	8
543.325	1	4
544.515	1	0
545.705	1	8
546.896	1	2
548.086	1	1
549.276	1	8
550.466	1	6
551.656	1	-6
552.846	1	14
554.036	1	5
555.226	1	-7
556.416	1	7
557.606	1	3
558.796	1	1
559.986	1	-5
561.175	1	-1
562.365	1	0
563.555	1	14
564.744	1	1
565.934	1	-2
567.123	1	15
568.313	1	-6
569.502	1	-1
570.692	1	-2
571.881	1	-1
573.070	1	6
574.260	1	1
575.449	1	9
576.638	1	8
577.827	1	12
579.016	1	15
580.205	1	0
581.394	1	-3
582.583	1	-3
583.772	1	-3
584.961	1	8
586.150	1	5
587.339	1	8
588.528	1	-1
589.717	1	3
590.905	1	6
592.094	1	4
593.283	1	6
594.471	1	8
595.660	1	-10
596.848	1	8
598.037	1	-1
599.225	1	-4
600.413	1	6
601.602	1	-3
602.790	1	4
603.978	1	4
605.166	1	-10
606.355	1	10
607.543	1	-5
608.731	1	-10
609.919	1	-4
611.107	1	5
612.295	1	2
613.483	1	7
614.671	1	6
615.858	1	4
617.046	1	5
618.234	1	-1
619.422	1	-5
620.609	1	-4
621.797	1	-1
622.985	1	-4
624.172	1	12
625.360	1	-11
626.547	1	9
627.735	1	3
628.922	1	-2
630.109	1	-5
631.297	1	-4
632.484	1	-5
633.671	1	2
634.858	1	9
636.045	1	0
637.232	1	-3
638.419	1	10
639.606	1	10
640.793	1	12
641.980	1	8
643.167	1	14
644.354	1	7
645.541	1	-5
646.728	1	3
647.914	1	-9
649.101	1	0
650.288	1	6
651.474	1	5
652.661	1	6
653.847	1	7
655.034	1	-3
656.220	1	3
657.406	1	6
658.593	1	-10
659.779	1	1
660.965	1	-6
662.152	1	4
663.338	1	0
664.524	1	-8
665.710	1	-2
666.896	1	-8
668.082	1	3
669.268	1	12
670.454	1	-2
671.640	1	-12
672.826	1	-13
674.011	1	10
675.197	1	-3
676.383	1	-3
677.569	1	-5
678.754	1	-12
679.940	1	-6
681.125	1	1
682.311	1	-4
683.496	1	1
684.682	1	10
685.867	1	1
687.053	1	2
688.238	1	5
688.746	1	10

File: GaN_sample E_spot4_UVVIS_68 K_200um_200 ms 2x2mm1_530.txt
340.368	1	8
341.565	1	-7
342.763	1	3
343.960	1	-2
345.157	1	10
346.354	1	-2
347.552	1	1
348.749	1	5
349.946	1	10
351.143	1	-4
352.340	1	-7
353.537	1	-2
354.734	1	-12
355.931	1	5
357.127	1	-2
358.324	1	-5
359.521	1	-1
360.718	1	0
361.914	1	2
363.111	1	19
364.308	1	0
365.504	1	-3
366.701	1	-8
367.897	1	3
369.093	1	0
370.290	1	-9
371.486	1	8
372.682	1	-2
373.879	1	13
375.075	1	2
376.271	1	-5
377.467	1	-1
378.663	1	-3
379.859	1	1
381.055	1	3
382.251	1	-5
383.447	1	11
384.643	1	10
385.839	1	2
387.035	1	3
388.230	1	-5
389.426	1	10
390.622	1	-4
391.817	1	-3
393.013	1	8
394.208	1	10
395.404	1	4
396.599	1	2
397.795	1	0
398.990	1	-2
400.186	1	9
401.381	1	5
402.576	1	6
403.771	1	1
404.967	1	5
406.162	1	11
407.357	1	5
408.552	1	-2
409.747	1	-7
410.942	1	7
412.137	1	18
413.332	1	2
414.526	1	-4
415.721	1	1
416.916	1	-2
418.111	1	-3
419.305	1	-3
420.500	1	-2
421.695	1	0
422.889	1	8
424.084	1	9
425.278	1	-1
426.472	1	-5
427.667	1	8
428.861	1	-8
430.055	1	3
431.250	1	-4
432.444	1	7
433.638	1	-1
434.832	1	2
436.026	1	1
437.220	1	5
438.414	1	-5
439.608	1	-2
440.802	1	13
441.996	1	-9
443.190	1	-8
444.384	1	5
445.578	1	6
446.771	1	-6
447.965	1	-3
449.159	1	5
450.352	1	5
451.546	1	1
452.739	1	-2
453.933	1	-2
455.126	1	6
456.320	1	1
457.513	1	3
458.706	1	5
459.899	1	13
461.093	1	-1
462.286	1	7
463.479	1	9
464.672	1	1
465.865	1	-3
467.058	1	5
468.251	1	1
469.444	1	-4
470.637	1	18
471.830	1	6
473.023	1	-6
474.215	1	1
475.408	1	11
476.601	1	-6
477.793	1	8
478.986	1	-5
480.179	1	-1
481.371	1	-1
482.564	1	-6
483.756	1	-2
484.948	1	0
486.141	1	-1
487.333	1	2
488.525	1	2
489.718	1	1
490.910	1	-4
492.102	1	9
493.294	1	6
494.486	1	3
495.678	1	6
496.870	1	8
498.062	1	-10
499.254	1	-2
500.446	1	9
501.638	1	2
502.829	1	4
504.021	1	14
505.213	1	1
506.404	1	-2
507.596	1	2
508.788	1	-4
509.979	1	1
511.171	1	13
512.362	1	2
513.553	1	-4
514.745	1	7
515.936	1	6
517.127	1	1
518.319	1	-1
519.510	1	-2
520.701	1	-8
521.892	1	-8
523.083	1	-2
524.274	1	-5
525.465	1	2
526.656	1	17
527.847	1	-5
529.038	1	3
530.229	1	9
531.419	1	10
532.610	1	0
533.801	1	2
534.991	1	-3
536.182	1	-6
537.373	1	-1
538.563	1	6
539.754	1	-2
540.944	1	-5
542.134	1	11
543.325	1	4
544.515	1	-4
545.705	1	10
546.896	1	-3
548.086	1	-3
549.276	1	11
550.466	1	-2
551.656	1	-12
552.846	1	2
554.036	1	15
555.226	1	-9
556.416	1	4
557.606	1	-3
558.796	1	-8
559.986	1	-1
561.175	1	-1
562.365	1	0
563.555	1	2
564.744	1	-2
565.934	1	13
567.123	1	17
568.313	1	0
569.502	1	6
570.692	1	10
571.881	1	3
573.070	1	3
574.260	1	2
575.449	1	6
576.638	1	-4
577.827	1	1
579.016	1	14
580.205	1	-1
581.394	1	1
582.583	1	-5
583.772	1	-7
584.961	1	9
586.150	1	1
587.339	1	-2
588.528	1	3
589.717	1	4
590.905	1	1
592.094	1	3
593.283	1	2
594.471	1	4
595.660	1	-1
596.848	1	9
598.037	1	-3
599.225	1	-2
600.413	1	2
601.602	1	4
602.790	1	2
603.978	1	3
605.166	1	-6
606.355	1	18
607.543	1	-5
608.731	1	-15
609.919	1	-5
611.107	1	12
612.295	1	4
613.483	1	8
614.671	1	6
615.858	1	1
617.046	1	4
618.234	1	-2
619.422	1	-6
620.609	1	-7
621.797	1	-1
622.985	1	8
624.172	1	10
625.360	1	-4
626.547	1	3
627.735	1	7
628.922	1	-3
630.109	1	1
631.297	1	-5
632.484	1	1
633.671	1	-5
634.858	1	12
636.045	1	7
637.232	1	-4
638.419	1	-1
639.606	1	9
640.793	1	1
641.980	1	-1
643.167	1	7
644.354	1	-11
645.541	1	-8
646.728	1	0
647.914	1	1
649.101	1	-1
650.288	1	3
651.474	1	1
652.661	1	-3
653.847	1	7
655.034	1	7
656.220	1	0
657.406	1	0
658.593	1	-5
659.779	1	-6
660.965	1	-2
662.152	1	5
663.338	1	3
664.524	1	-5
665.710	1	1
666.896	1	2
668.082	1	-3
669.268	1	4
670.454	1	0
671.640	1	-22
672.826	1	-14
674.011	1	12
675.197	1	-5
676.383	1	-6
677.569	1	-8
678.754	1	7
679.940	1	-9
681.125	1	4
682.311	1	13
683.496	1	-6
684.682	1	5
685.867	1	-4
687.053	1	5
688.238	1	6
688.746	1	7

File: GaN_sample E_spot4_UVVIS_68 K_200um_200 ms 2x2mm1_532.txt
340.368	1	-5
341.565	1	-14
342.763	1	-5
343.960	1	-1
345.157	1	-2
346.354	1	0
347.552	1	-2
348.749	1	4
349.946	1	6
351.143	1	-3
352.340	1	1
353.537	1	-1
354.734	1	-1
355.931	1	2
357.127	1	1
358.324	1	5
359.521	1	4
360.718	1	1
361.914	1	-3
363.111	1	4
364.308	1	-2
365.504	1	-8
366.701	1	-3
367.897	1	1
369.093	1	0
370.290	1	-3
371.486	1	14
372.682	1	-6
373.879	1	9
375.075	1	9
376.271	1	7
377.467	1	6
378.663	1	-4
379.859	1	-2
381.055	1	-4
382.251	1	4
383.447	1	7
384.643	1	13
385.839	1	-2
387.035	1	-3
388.230	1	3
389.426	1	6
390.622	1	5
391.817	1	-1
393.013	1	9
394.208	1	5
395.404	1	-4
396.599	1	-2
397.795	1	0
398.990	1	9
400.186	1	9
401.381	1	-8
402.576	1	3
403.771	1	1
404.967	1	-3
406.162	1	2
407.357	1	-7
408.552	1	11
409.747	1	-8
410.942	1	3
412.137	1	14
413.332	1	0
414.526	1	6
415.721	1	4
416.916	1	-8
418.111	1	0
419.305	1	4
420.500	1	9
421.695	1	11
422.889	1	-7
424.084	1	-2
425.278	1	-12
426.472	1	-14
427.667	1	6
428.861	1	2
430.055	1	-7
431.250	1	-7
432.444	1	12
433.638	1	-5
434.832	1	2
436.026	1	3
437.220	1	2
438.414	1	4
439.608	1	-13
440.802	1	6
441.996	1	7
443.190	1	-5
444.384	1	2
445.578	1	9
446.771	1	5
447.965	1	-14
449.159	1	-6
450.352	1	9
451.546	1	6
452.739	1	-2
453.933	1	3
455.126	1	3
456.320	1	4
457.513	1	4
458.706	1	3
459.899	1	11
461.093	1	4
462.286	1	2
463.479	1	12
464.672	1	1
465.865	1	-13
467.058	1	6
468.251	1	0
469.444	1	0
470.637	1	15
471.830	1	6
473.023	1	-3
474.215	1	1
475.408	1	10
476.601	1	-8
477.793	1	12
478.986	1	-4
480.179	1	12
481.371	1	0
482.564	1	-3
483.756	1	9
484.948	1	-4
486.141	1	-3
487.333	1	7
488.525	1	6
489.718	1	-2
490.910	1	-8
492.102	1	-3
493.294	1	6
494.486	1	10
495.678	1	6
496.870	1	0
498.062	1	1
499.254	1	7
500.446	1	6
501.638	1	8
502.829	1	0
504.021	1	10
505.213	1	-4
506.404	1	-11
507.596	1	-1
508.788	1	6
509.979	1	11
511.171	1	13
512.362	1	8
513.553	1	1
514.745	1	3
515.936	1	4
517.127	1	-1
518.319	1	3
519.510	1	6
520.701	1	1
521.892	1	-2
523.083	1	-7
524.274	1	-7
525.465	1	-2
526.656	1	17
527.847	1	9
529.038	1	3
530.229	1	-2
531.419	1	9
532.610	1	2
533.801	1	0
534.991	1	6
536.182	1	-3
537.373	1	-9
538.563	1	5
539.754	1	-2
540.944	1	-2
542.134	1	19
543.325	1	-4
544.515	1	-6
545.705	1	8
546.896	1	-2
548.086	1	7
549.276	1	6
550.466	1	-9
551.656	1	-1
552.846	1	4
554.036	1	5
555.226	1	-2
556.416	1	-6
557.606	1	3
558.796	1	-2
559.986	1	-4
561.175	1	4
562.365	1	5
563.555	1	7
564.744	1	3
565.934	1	2
567.123	1	11
568.313	1	0
569.502	1	2
570.692	1	-1
571.881	1	6
573.070	1	10
574.260	1	1
575.449	1	10
576.638	1	1
577.827	1	8
579.016	1	15
580.205	1	0
581.394	1	-7
582.583	1	3
583.772	1	1
584.961	1	-1
586.150	1	4
587.339	1	10
588.528	1	-6
589.717	1	4
590.905	1	1
592.094	1	7
593.283	1	-4
594.471	1	-8
595.660	1	0
596.848	1	7
598.037	1	0
599.225	1	6
600.413	1	1
601.602	1	3
602.790	1	-1
603.978	1	-5
605.166	1	-6
606.355	1	9
607.543	1	-7
608.731	1	-5
609.919	1	-2
611.107	1	7
612.295	1	-5
613.483	1	3
614.671	1	-7
615.858	1	4
617.046	1	-6
618.234	1	-3
619.422	1	-3
620.609	1	-1
621.797	1	4
622.985	1	8
624.172	1	17
625.360	1	-15
626.547	1	6
627.735	1	7
628.922	1	0
630.109	1	2
631.297	1	1
632.484	1	8
633.671	1	-9
634.858	1	9
636.045	1	-2
637.232	1	5
638.419	1	-2
639.606	1	8
640.793	1	7
641.980	1	-8
643.167	1	8
644.354	1	-7
645.541	1	-6
646.728	1	-3
647.914	1	-4
649.101	1	5
650.288	1	-7
651.474	1	4
652.661	1	1
653.847	1	2
655.034	1	-5
656.220	1	4
657.406	1	4
658.593	1	-3
659.779	1	-6
660.965	1	4
662.152	1	-4
663.338	1	3
664.524	1	-8
665.710	1	-1
666.896	1	-16
668.082	1	0
669.268	1	3
670.454	1	7
671.640	1	-11
672.826	1	-13
674.011	1	5
675.197	1	-10
676.383	1	-11
677.569	1	2
678.754	1	-4
679.940	1	-7
681.125	1	16
682.311	1	7
683.496	1	-8
684.682	1	-1
685.867	1	6
687.053	1	3
688.238	1	4
688.746	1	3

File: GaN_sample E_spot4_UVVIS_68 K_200um_200 ms 2x2mm1_538.txt
340.368	1	-6
341.565	1	-7
342.763	1	-14
343.960	1	-1
345.157	1	1
346.354	1	-1
347.552	1	4
348.749	1	6
349.946	1	3
351.143	1	-3
352.340	1	0
353.537	1	-5
354.734	1	0
355.931	1	-3
357.127	1	-3
358.324	1	-9
359.521	1	5
360.718	1	-4
361.914	1	3
363.111	1	4
364.308	1	0
365.504	1	-8
366.701	1	-7
367.897	1	2
369.093	1	14
370.290	1	-3
371.486	1	4
372.682	1	-4
373.879	1	1
375.075	1	6
376.271	1	-4
377.467	1	-3
378.663	1	-5
379.859	1	-5
381.055	1	0
382.251	1	5
383.447	1	11
384.643	1	9
385.839	1	7
387.035	1	5
388.230	1	-3
389.426	1	-1
390.622	1	0
391.817	1	3
393.013	1	7
394.208	1	4
395.404	1	1
396.599	1	8
397.795	1	9
398.990	1	17
400.186	1	17
401.381	1	6
402.576	1	12
403.771	1	-7
404.967	1	0
406.162	1	2
407.357	1	8
408.552	1	2
409.747	1	-1
410.942	1	5
412.137	1	8
413.332	1	-6
414.526	1	1
415.721	1	2
416.916	1	-2
418.111	1	-6
419.305	1	-5
420.500	1	3
421.695	1	7
422.889	1	9
424.084	1	-1
425.278	1	-3
426.472	1	3
427.667	1	-1
428.861	1	9
430.055	1	-8
431.250	1	-6
432.444	1	11
433.638	1	-2
434.832	1	-2
436.026	1	6
437.220	1	2
438.414	1	-1
439.608	1	4
440.802	1	6
441.996	1	-7
443.190	1	1
444.384	1	2
445.578	1	6
446.771	1	3
447.965	1	-4
449.159	1	-2
450.352	1	7
451.546	1	8
452.739	1	1
453.933	1	10
455.126	1	-1
456.320	1	-1
457.513	1	11
458.706	1	-4
459.899	1	11
461.093	1	7
462.286	1	14
463.479	1	10
464.672	1	1
465.865	1	-4
467.058	1	17
468.251	1	0
469.444	1	-1
470.637	1	11
471.830	1	7
473.023	1	-8
474.215	1	-6
475.408	1	2
476.601	1	-6
477.793	1	6
478.986	1	1
480.179	1	4
481.371	1	-9
482.564	1	-7
483.756	1	13
484.948	1	-4
486.141	1	-12
487.333	1	-2
488.525	1	5
489.718	1	-1
490.910	1	-6
492.102	1	-5
493.294	1	-1
494.486	1	2
495.678	1	14
496.870	1	-8
498.062	1	-2
499.254	1	-6
500.446	1	4
501.638	1	6
502.829	1	5
504.021	1	19
505.213	1	-7
506.404	1	-8
507.596	1	7
508.788	1	0
509.979	1	5
511.171	1	15
512.362	1	-4
513.553	1	-8
514.745	1	5
515.936	1	8
517.127	1	11
518.319	1	-1
519.510	1	7
520.701	1	2
521.892	1	-14
523.083	1	-1
524.274	1	-3
525.465	1	1
526.656	1	13
527.847	1	-6
529.038	1	5
530.229	1	12
531.419	1	9
532.610	1	-3
533.801	1	7
534.991	1	3
536.182	1	-2
537.373	1	5
538.563	1	-4
539.754	1	-5
540.944	1	5
542.134	1	10
543.325	1	-7
544.515	1	3
545.705	1	7
546.896	1	1
548.086	1	11
549.276	1	-3
550.466	1	2
551.656	1	-5
552.846	1	5
554.036	1	12
555.226	1	-7
556.416	1	-5
557.606	1	-6
558.796	1	-5
559.986	1	0
561.175	1	-4
562.365	1	3
563.555	1	4
564.744	1	2
565.934	1	8
567.123	1	9
568.313	1	-4
569.502	1	2
570.692	1	7
571.881	1	5
573.070	1	13
574.260	1	-2
575.449	1	7
576.638	1	0
577.827	1	10
579.016	1	11
580.205	1	5
581.394	1	2
582.583	1	-6
583.772	1	5
584.961	1	3
586.150	1	6
587.339	1	7
588.528	1	3
589.717	1	-3
590.905	1	1
592.094	1	4
593.283	1	-1
594.471	1	1
595.660	1	-3
596.848	1	5
598.037	1	8
599.225	1	7
600.413	1	-6
601.602	1	5
602.790	1	8
603.978	1	-3
605.166	1	-10
606.355	1	5
607.543	1	-10
608.731	1	-7
609.919	1	-6
611.107	1	9
612.295	1	-2
613.483	1	7
614.671	1	8
615.858	1	12
617.046	1	-7
618.234	1	2
619.422	1	-5
620.609	1	-2
621.797	1	0
622.985	1	0
624.172	1	14
625.360	1	-4
626.547	1	-2
627.735	1	1
628.922	1	-4
630.109	1	-8
631.297	1	-5
632.484	1	-7
633.671	1	1
634.858	1	6
636.045	1	8
637.232	1	6
638.419	1	2
639.606	1	15
640.793	1	13
641.980	1	7
643.167	1	8
644.354	1	-2
645.541	1	-14
646.728	1	7
647.914	1	-5
649.101	1	-3
650.288	1	-3
651.474	1	6
652.661	1	3
653.847	1	-2
655.034	1	-4
656.220	1	7
657.406	1	0
658.593	1	-7
659.779	1	4
660.965	1	2
662.152	1	6
663.338	1	-2
664.524	1	-8
665.710	1	-8
666.896	1	-2
668.082	1	-7
669.268	1	3
670.454	1	3
671.640	1	-15
672.826	1	-14
674.011	1	2
675.197	1	3
676.383	1	1
677.569	1	-6
678.754	1	6
679.940	1	-9
681.125	1	-1
682.311	1	0
683.496	1	-13
684.682	1	11
685.867	1	-1
687.053	1	6
688.238	1	7
688.746	1	5

File: GaN_sample E_spot4_UVVIS_68 K_200um_200 ms 2x2mm1_540.txt
340.368	1	6
341.565	1	-4
342.763	1	-3
343.960	1	-3
345.157	1	8
346.354	1	-6
347.552	1	-2
348.749	1	5
349.946	1	9
351.143	1	-4
352.340	1	-4
353.537	1	-1
354.734	1	-2
355.931	1	7
357.127	1	7
358.324	1	2
359.521	1	1
360.718	1	-1
361.914	1	-6
363.111	1	9
364.308	1	3
365.504	1	-8
366.701	1	-6
367.897	1	6
369.093	1	7
370.290	1	-13
371.486	1	7
372.682	1	0
373.879	1	3
375.075	1	11
376.271	1	-5
377.467	1	-11
378.663	1	-5
379.859	1	-4
381.055	1	5
382.251	1	4
383.447	1	6
384.643	1	11
385.839	1	-1
387.035	1	3
388.230	1	6
389.426	1	-1
390.622	1	-7
391.817	1	-1
393.013	1	9
394.208	1	8
395.404	1	11
396.599	1	12
397.795	1	7
398.990	1	-3
400.186	1	7
401.381	1	-2
402.576	1	16
403.771	1	-5
404.967	1	-3
406.162	1	-6
407.357	1	-8
408.552	1	9
409.747	1	-2
410.942	1	2
412.137	1	9
413.332	1	-7
414.526	1	-1
415.721	1	0
416.916	1	1
418.111	1	-1
419.305	1	4
420.500	1	10
421.695	1	-1
422.889	1	14
424.084	1	7
425.278	1	-2
426.472	1	-9
427.667	1	8
428.861	1	-2
430.055	1	5
431.250	1	-12
432.444	1	11
433.638	1	-7
434.832	1	-10
436.026	1	9
437.220	1	5
438.414	1	-5
439.608	1	13
440.802	1	4
441.996	1	6
443.190	1	-7
444.384	1	3
445.578	1	12
446.771	1	2
447.965	1	-5
449.159	1	-4
450.352	1	11
451.546	1	1
452.739	1	-3
453.933	1	-6
455.126	1	-8
456.320	1	-8
457.513	1	14
458.706	1	3
459.899	1	7
461.093	1	4
462.286	1	13
463.479	1	3
464.672	1	-3
465.865	1	-2
467.058	1	14
468.251	1	3
469.444	1	1
470.637	1	16
471.830	1	8
473.023	1	-5
474.215	1	-7
475.408	1	3
476.601	1	5
477.793	1	5
478.986	1	-2
480.179	1	-3
481.371	1	-2
482.564	1	-1
483.756	1	12
484.948	1	-2
486.141	1	-15
487.333	1	4
488.525	1	-5
489.718	1	-3
490.910	1	-3
492.102	1	2
493.294	1	-2
494.486	1	-1
495.678	1	4
496.870	1	-8
498.062	1	-5
499.254	1	-3
500.446	1	8
501.638	1	1
502.829	1	3
504.021	1	21
505.213	1	-12
506.404	1	-12
507.596	1	-9
508.788	1	-6
509.979	1	-4
511.171	1	11
512.362	1	13
513.553	1	0
514.745	1	-5
515.936	1	7
517.127	1	0
518.319	1	-3
519.510	1	-3
520.701	1	7
521.892	1	-10
523.083	1	-1
524.274	1	4
525.465	1	9
526.656	1	12
527.847	1	-7
529.038	1	6
530.229	1	1
531.419	1	7
532.610	1	9
533.801	1	6
534.991	1	2
536.182	1	2
537.373	1	-1
538.563	1	-5
539.754	1	-5
540.944	1	0
542.134	1	15
543.325	1	-8
544.515	1	0
545.705	1	4
546.896	1	3
548.086	1	-2
549.276	1	11
550.466	1	-5
551.656	1	2
552.846	1	6
554.036	1	4
555.226	1	-10
556.416	1	-2
557.606	1	-13
558.796	1	-3
559.986	1	-2
561.175	1	-7
562.365	1	-5
563.555	1	8
564.744	1	1
565.934	1	5
567.123	1	7
568.313	1	-2
569.502	1	-2
570.692	1	-2
571.881	1	11
573.070	1	-1
574.260	1	-6
575.449	1	9
576.638	1	7
577.827	1	-2
579.016	1	14
580.205	1	-4
581.394	1	-8
582.583	1	-7
583.772	1	0
584.961	1	7
586.150	1	-4
587.339	1	6
588.528	1	0
589.717	1	-1
590.905	1	12
592.094	1	2
593.283	1	5
594.471	1	2
595.660	1	-7
596.848	1	3
598.037	1	-1
599.225	1	10
600.413	1	7
601.602	1	3
602.790	1	7
603.978	1	-2
605.166	1	-6
606.355	1	0
607.543	1	-5
608.731	1	-12
609.919	1	-14
611.107	1	8
612.295	1	-4
613.483	1	3
614.671	1	7
615.858	1	3
617.046	1	-3
618.234	1	-3
619.422	1	6
620.609	1	10
621.797	1	-1
622.985	1	0
624.172	1	15
625.360	1	-11
626.547	1	-4
627.735	1	10
628.922	1	-10
630.109	1	-1
631.297	1	-7
632.484	1	-1
633.671	1	9
634.858	1	5
636.045	1	1
637.232	1	7
638.419	1	9
639.606	1	14
640.793	1	11
641.980	1	0
643.167	1	7
644.354	1	-2
645.541	1	-18
646.728	1	2
647.914	1	-4
649.101	1	8
650.288	1	-7
651.474	1	2
652.661	1	-5
653.847	1	3
655.034	1	0
656.220	1	2
657.406	1	2
658.593	1	-10
659.779	1	0
660.965	1	0
662.152	1	-5
663.338	1	-8
664.524	1	-3
665.710	1	-1
666.896	1	3
668.082	1	-4
669.268	1	2
670.454	1	5
671.640	1	-19
672.826	1	-7
674.011	1	6
675.197	1	-7
676.383	1	-4
677.569	1	-13
678.754	1	-5
679.940	1	0
681.125	1	8
682.311	1	-4
683.496	1	-4
684.682	1	15
685.867	1	3
687.053	1	6
688.238	1	-2
688.746	1	-3