Folder: cryo-il_analysis/Analysis/GaN_68K_200ms (part 36)

File: GaN_sample E_spot4_UVVIS_68 K_200um_200 ms 2x2mm1_844.txt
340.368	1	2
341.565	1	-3
342.763	1	1
343.960	1	-3
345.157	1	3
346.354	1	-7
347.552	1	-1
348.749	1	3
349.946	1	4
351.143	1	-15
352.340	1	2
353.537	1	1
354.734	1	-7
355.931	1	0
357.127	1	0
358.324	1	-8
359.521	1	-6
360.718	1	-11
361.914	1	-8
363.111	1	3
364.308	1	3
365.504	1	1
366.701	1	-4
367.897	1	2
369.093	1	-11
370.290	1	-4
371.486	1	8
372.682	1	14
373.879	1	6
375.075	1	2
376.271	1	0
377.467	1	-8
378.663	1	1
379.859	1	-2
381.055	1	4
382.251	1	0
383.447	1	7
384.643	1	2
385.839	1	3
387.035	1	-1
388.230	1	3
389.426	1	11
390.622	1	-3
391.817	1	-7
393.013	1	8
394.208	1	10
395.404	1	1
396.599	1	1
397.795	1	-2
398.990	1	-1
400.186	1	9
401.381	1	7
402.576	1	5
403.771	1	1
404.967	1	-3
406.162	1	0
407.357	1	2
408.552	1	0
409.747	1	-2
410.942	1	7
412.137	1	8
413.332	1	1
414.526	1	8
415.721	1	-3
416.916	1	-8
418.111	1	-2
419.305	1	0
420.500	1	4
421.695	1	-7
422.889	1	5
424.084	1	2
425.278	1	-4
426.472	1	-10
427.667	1	-2
428.861	1	-1
430.055	1	0
431.250	1	-13
432.444	1	4
433.638	1	-9
434.832	1	-14
436.026	1	0
437.220	1	4
438.414	1	1
439.608	1	0
440.802	1	6
441.996	1	-3
443.190	1	-9
444.384	1	9
445.578	1	4
446.771	1	-3
447.965	1	-3
449.159	1	-9
450.352	1	7
451.546	1	4
452.739	1	-7
453.933	1	-5
455.126	1	4
456.320	1	3
457.513	1	10
458.706	1	1
459.899	1	17
461.093	1	5
462.286	1	12
463.479	1	11
464.672	1	3
465.865	1	-5
467.058	1	11
468.251	1	-3
469.444	1	-4
470.637	1	14
471.830	1	8
473.023	1	-1
474.215	1	-4
475.408	1	1
476.601	1	-8
477.793	1	14
478.986	1	-1
480.179	1	8
481.371	1	3
482.564	1	-15
483.756	1	5
484.948	1	0
486.141	1	-7
487.333	1	-1
488.525	1	-2
489.718	1	-4
490.910	1	-1
492.102	1	4
493.294	1	3
494.486	1	3
495.678	1	6
496.870	1	-10
498.062	1	-3
499.254	1	-4
500.446	1	-3
501.638	1	-3
502.829	1	-3
504.021	1	10
505.213	1	5
506.404	1	-4
507.596	1	4
508.788	1	4
509.979	1	1
511.171	1	12
512.362	1	0
513.553	1	-4
514.745	1	-10
515.936	1	4
517.127	1	6
518.319	1	2
519.510	1	-6
520.701	1	9
521.892	1	-1
523.083	1	3
524.274	1	-2
525.465	1	7
526.656	1	19
527.847	1	-3
529.038	1	1
530.229	1	-7
531.419	1	13
532.610	1	-1
533.801	1	3
534.991	1	3
536.182	1	2
537.373	1	-8
538.563	1	2
539.754	1	-12
540.944	1	-4
542.134	1	2
543.325	1	-9
544.515	1	-2
545.705	1	14
546.896	1	3
548.086	1	3
549.276	1	5
550.466	1	-3
551.656	1	-7
552.846	1	5
554.036	1	-3
555.226	1	-17
556.416	1	0
557.606	1	-15
558.796	1	-6
559.986	1	-9
561.175	1	2
562.365	1	-4
563.555	1	6
564.744	1	6
565.934	1	3
567.123	1	12
568.313	1	5
569.502	1	1
570.692	1	7
571.881	1	-2
573.070	1	1
574.260	1	-5
575.449	1	-8
576.638	1	-6
577.827	1	2
579.016	1	8
580.205	1	8
581.394	1	-8
582.583	1	-7
583.772	1	1
584.961	1	1
586.150	1	4
587.339	1	7
588.528	1	4
589.717	1	2
590.905	1	9
592.094	1	3
593.283	1	1
594.471	1	2
595.660	1	-6
596.848	1	2
598.037	1	1
599.225	1	5
600.413	1	-4
601.602	1	8
602.790	1	0
603.978	1	-3
605.166	1	-3
606.355	1	5
607.543	1	-3
608.731	1	-1
609.919	1	-13
611.107	1	1
612.295	1	-3
613.483	1	5
614.671	1	3
615.858	1	-5
617.046	1	-2
618.234	1	0
619.422	1	-1
620.609	1	-3
621.797	1	5
622.985	1	1
624.172	1	6
625.360	1	-11
626.547	1	4
627.735	1	6
628.922	1	-7
630.109	1	-1
631.297	1	-11
632.484	1	-3
633.671	1	-1
634.858	1	9
636.045	1	0
637.232	1	1
638.419	1	-7
639.606	1	13
640.793	1	-2
641.980	1	-1
643.167	1	4
644.354	1	-1
645.541	1	-6
646.728	1	-2
647.914	1	-3
649.101	1	-7
650.288	1	-2
651.474	1	12
652.661	1	9
653.847	1	6
655.034	1	-1
656.220	1	4
657.406	1	8
658.593	1	-6
659.779	1	3
660.965	1	-4
662.152	1	-1
663.338	1	-1
664.524	1	-10
665.710	1	-11
666.896	1	-2
668.082	1	-1
669.268	1	-4
670.454	1	1
671.640	1	-13
672.826	1	-14
674.011	1	-1
675.197	1	-6
676.383	1	-4
677.569	1	-3
678.754	1	-3
679.940	1	-2
681.125	1	11
682.311	1	-1
683.496	1	-12
684.682	1	10
685.867	1	3
687.053	1	7
688.238	1	4
688.746	1	2

File: GaN_sample E_spot4_UVVIS_68 K_200um_200 ms 2x2mm1_858.txt
340.368	1	3
341.565	1	-6
342.763	1	-2
343.960	1	-3
345.157	1	1
346.354	1	-2
347.552	1	-9
348.749	1	-2
349.946	1	16
351.143	1	-8
352.340	1	1
353.537	1	-6
354.734	1	-6
355.931	1	-4
357.127	1	6
358.324	1	-8
359.521	1	-4
360.718	1	-7
361.914	1	-3
363.111	1	3
364.308	1	-16
365.504	1	-8
366.701	1	-7
367.897	1	-3
369.093	1	3
370.290	1	-2
371.486	1	8
372.682	1	-1
373.879	1	12
375.075	1	-5
376.271	1	-7
377.467	1	-2
378.663	1	-10
379.859	1	0
381.055	1	0
382.251	1	-1
383.447	1	10
384.643	1	11
385.839	1	5
387.035	1	-11
388.230	1	0
389.426	1	-2
390.622	1	-11
391.817	1	2
393.013	1	7
394.208	1	-4
395.404	1	8
396.599	1	-1
397.795	1	1
398.990	1	-1
400.186	1	7
401.381	1	1
402.576	1	10
403.771	1	-7
404.967	1	-7
406.162	1	-9
407.357	1	0
408.552	1	1
409.747	1	-10
410.942	1	1
412.137	1	0
413.332	1	-8
414.526	1	3
415.721	1	-6
416.916	1	-10
418.111	1	-9
419.305	1	-5
420.500	1	5
421.695	1	-2
422.889	1	3
424.084	1	-3
425.278	1	-17
426.472	1	-6
427.667	1	4
428.861	1	1
430.055	1	2
431.250	1	-6
432.444	1	-2
433.638	1	1
434.832	1	-2
436.026	1	-1
437.220	1	9
438.414	1	0
439.608	1	6
440.802	1	5
441.996	1	0
443.190	1	-9
444.384	1	3
445.578	1	9
446.771	1	2
447.965	1	-8
449.159	1	-4
450.352	1	5
451.546	1	-1
452.739	1	-2
453.933	1	3
455.126	1	-7
456.320	1	-3
457.513	1	10
458.706	1	4
459.899	1	3
461.093	1	-6
462.286	1	8
463.479	1	3
464.672	1	-3
465.865	1	-1
467.058	1	7
468.251	1	-8
469.444	1	-7
470.637	1	9
471.830	1	8
473.023	1	0
474.215	1	-12
475.408	1	11
476.601	1	-5
477.793	1	6
478.986	1	1
480.179	1	1
481.371	1	-5
482.564	1	-16
483.756	1	2
484.948	1	-8
486.141	1	-5
487.333	1	-6
488.525	1	-6
489.718	1	-11
490.910	1	-1
492.102	1	2
493.294	1	11
494.486	1	5
495.678	1	0
496.870	1	-3
498.062	1	2
499.254	1	-5
500.446	1	5
501.638	1	-1
502.829	1	-1
504.021	1	1
505.213	1	-11
506.404	1	-5
507.596	1	6
508.788	1	-3
509.979	1	-3
511.171	1	10
512.362	1	-5
513.553	1	-12
514.745	1	-10
515.936	1	4
517.127	1	5
518.319	1	-5
519.510	1	-6
520.701	1	7
521.892	1	-10
523.083	1	-8
524.274	1	-1
525.465	1	-5
526.656	1	12
527.847	1	2
529.038	1	0
530.229	1	1
531.419	1	10
532.610	1	4
533.801	1	-4
534.991	1	-1
536.182	1	-8
537.373	1	-4
538.563	1	-4
539.754	1	-11
540.944	1	-12
542.134	1	-2
543.325	1	-7
544.515	1	-6
545.705	1	-4
546.896	1	0
548.086	1	5
549.276	1	5
550.466	1	-6
551.656	1	-8
552.846	1	12
554.036	1	-6
555.226	1	-10
556.416	1	3
557.606	1	-19
558.796	1	-4
559.986	1	-5
561.175	1	-5
562.365	1	-6
563.555	1	0
564.744	1	-4
565.934	1	-1
567.123	1	12
568.313	1	-3
569.502	1	1
570.692	1	5
571.881	1	4
573.070	1	6
574.260	1	-7
575.449	1	2
576.638	1	9
577.827	1	5
579.016	1	10
580.205	1	-3
581.394	1	-11
582.583	1	-12
583.772	1	-4
584.961	1	0
586.150	1	-4
587.339	1	-2
588.528	1	-2
589.717	1	7
590.905	1	0
592.094	1	3
593.283	1	-5
594.471	1	5
595.660	1	-1
596.848	1	3
598.037	1	-7
599.225	1	-2
600.413	1	-3
601.602	1	9
602.790	1	8
603.978	1	-2
605.166	1	-13
606.355	1	2
607.543	1	-5
608.731	1	-8
609.919	1	-12
611.107	1	4
612.295	1	-7
613.483	1	5
614.671	1	2
615.858	1	-2
617.046	1	-1
618.234	1	-1
619.422	1	-4
620.609	1	-4
621.797	1	-1
622.985	1	-2
624.172	1	3
625.360	1	-6
626.547	1	1
627.735	1	4
628.922	1	2
630.109	1	4
631.297	1	-4
632.484	1	-9
633.671	1	-5
634.858	1	3
636.045	1	0
637.232	1	-8
638.419	1	4
639.606	1	8
640.793	1	10
641.980	1	-2
643.167	1	7
644.354	1	-8
645.541	1	-9
646.728	1	5
647.914	1	-6
649.101	1	3
650.288	1	-10
651.474	1	-4
652.661	1	0
653.847	1	4
655.034	1	-1
656.220	1	10
657.406	1	2
658.593	1	-10
659.779	1	-6
660.965	1	-3
662.152	1	-7
663.338	1	-11
664.524	1	-12
665.710	1	3
666.896	1	-9
668.082	1	-11
669.268	1	-2
670.454	1	-8
671.640	1	-8
672.826	1	-17
674.011	1	8
675.197	1	-13
676.383	1	-5
677.569	1	-10
678.754	1	3
679.940	1	0
681.125	1	-1
682.311	1	0
683.496	1	-2
684.682	1	0
685.867	1	-1
687.053	1	-5
688.238	1	-7
688.746	1	-5