Folder: cryo-il_analysis/Analysis/GaN_68K_200ms (part 27)

File: GaN_sample E_spot4_UVVIS_68 K_200um_200 ms 2x2mm1_584.txt
340.368	1	0
341.565	1	-6
342.763	1	-4
343.960	1	-5
345.157	1	8
346.354	1	-3
347.552	1	1
348.749	1	2
349.946	1	6
351.143	1	-8
352.340	1	3
353.537	1	2
354.734	1	4
355.931	1	2
357.127	1	-5
358.324	1	-2
359.521	1	11
360.718	1	0
361.914	1	-4
363.111	1	10
364.308	1	6
365.504	1	-7
366.701	1	3
367.897	1	2
369.093	1	-4
370.290	1	0
371.486	1	8
372.682	1	-7
373.879	1	9
375.075	1	8
376.271	1	0
377.467	1	-2
378.663	1	-3
379.859	1	-11
381.055	1	7
382.251	1	3
383.447	1	-2
384.643	1	12
385.839	1	3
387.035	1	4
388.230	1	-4
389.426	1	2
390.622	1	-7
391.817	1	-4
393.013	1	4
394.208	1	11
395.404	1	-2
396.599	1	-2
397.795	1	-1
398.990	1	2
400.186	1	6
401.381	1	6
402.576	1	12
403.771	1	7
404.967	1	3
406.162	1	-2
407.357	1	3
408.552	1	0
409.747	1	-2
410.942	1	8
412.137	1	7
413.332	1	-1
414.526	1	-4
415.721	1	-4
416.916	1	0
418.111	1	-3
419.305	1	-4
420.500	1	5
421.695	1	9
422.889	1	16
424.084	1	-3
425.278	1	-5
426.472	1	-7
427.667	1	9
428.861	1	5
430.055	1	-5
431.250	1	-10
432.444	1	2
433.638	1	0
434.832	1	0
436.026	1	5
437.220	1	12
438.414	1	5
439.608	1	-4
440.802	1	0
441.996	1	6
443.190	1	-4
444.384	1	11
445.578	1	11
446.771	1	-3
447.965	1	0
449.159	1	-8
450.352	1	4
451.546	1	-6
452.739	1	-4
453.933	1	0
455.126	1	3
456.320	1	3
457.513	1	-2
458.706	1	6
459.899	1	3
461.093	1	-2
462.286	1	3
463.479	1	5
464.672	1	-4
465.865	1	0
467.058	1	9
468.251	1	-1
469.444	1	2
470.637	1	10
471.830	1	7
473.023	1	1
474.215	1	-2
475.408	1	1
476.601	1	2
477.793	1	2
478.986	1	5
480.179	1	3
481.371	1	1
482.564	1	-1
483.756	1	11
484.948	1	-3
486.141	1	-16
487.333	1	8
488.525	1	-5
489.718	1	-7
490.910	1	-14
492.102	1	-4
493.294	1	4
494.486	1	1
495.678	1	8
496.870	1	-8
498.062	1	5
499.254	1	4
500.446	1	14
501.638	1	-1
502.829	1	-3
504.021	1	21
505.213	1	-5
506.404	1	-1
507.596	1	2
508.788	1	4
509.979	1	4
511.171	1	8
512.362	1	-3
513.553	1	-3
514.745	1	-4
515.936	1	1
517.127	1	0
518.319	1	-1
519.510	1	-6
520.701	1	11
521.892	1	-12
523.083	1	4
524.274	1	-8
525.465	1	-5
526.656	1	10
527.847	1	-4
529.038	1	2
530.229	1	3
531.419	1	10
532.610	1	4
533.801	1	5
534.991	1	3
536.182	1	-7
537.373	1	-8
538.563	1	3
539.754	1	-1
540.944	1	0
542.134	1	6
543.325	1	-4
544.515	1	0
545.705	1	10
546.896	1	-1
548.086	1	1
549.276	1	8
550.466	1	-13
551.656	1	3
552.846	1	5
554.036	1	-1
555.226	1	-8
556.416	1	0
557.606	1	-2
558.796	1	-3
559.986	1	-3
561.175	1	-7
562.365	1	14
563.555	1	3
564.744	1	5
565.934	1	14
567.123	1	17
568.313	1	3
569.502	1	11
570.692	1	-1
571.881	1	7
573.070	1	8
574.260	1	-5
575.449	1	6
576.638	1	-3
577.827	1	15
579.016	1	12
580.205	1	2
581.394	1	-4
582.583	1	-9
583.772	1	5
584.961	1	4
586.150	1	5
587.339	1	3
588.528	1	-4
589.717	1	-2
590.905	1	-2
592.094	1	0
593.283	1	10
594.471	1	2
595.660	1	-5
596.848	1	0
598.037	1	0
599.225	1	3
600.413	1	-6
601.602	1	-4
602.790	1	7
603.978	1	3
605.166	1	-11
606.355	1	12
607.543	1	-2
608.731	1	-4
609.919	1	-8
611.107	1	5
612.295	1	2
613.483	1	7
614.671	1	9
615.858	1	0
617.046	1	9
618.234	1	-3
619.422	1	2
620.609	1	3
621.797	1	-2
622.985	1	-5
624.172	1	6
625.360	1	-14
626.547	1	2
627.735	1	14
628.922	1	-2
630.109	1	0
631.297	1	-9
632.484	1	-1
633.671	1	-5
634.858	1	12
636.045	1	7
637.232	1	-8
638.419	1	7
639.606	1	12
640.793	1	9
641.980	1	-6
643.167	1	9
644.354	1	2
645.541	1	-16
646.728	1	12
647.914	1	-4
649.101	1	-1
650.288	1	-8
651.474	1	3
652.661	1	7
653.847	1	-1
655.034	1	-2
656.220	1	-1
657.406	1	6
658.593	1	-13
659.779	1	-7
660.965	1	2
662.152	1	-3
663.338	1	-7
664.524	1	-3
665.710	1	1
666.896	1	4
668.082	1	-2
669.268	1	-3
670.454	1	-1
671.640	1	-6
672.826	1	-14
674.011	1	9
675.197	1	2
676.383	1	4
677.569	1	-11
678.754	1	-7
679.940	1	4
681.125	1	11
682.311	1	5
683.496	1	-4
684.682	1	6
685.867	1	7
687.053	1	4
688.238	1	-2
688.746	1	1

File: GaN_sample E_spot4_UVVIS_68 K_200um_200 ms 2x2mm1_585.txt
340.368	1	-11
341.565	1	-4
342.763	1	2
343.960	1	-6
345.157	1	5
346.354	1	1
347.552	1	-6
348.749	1	0
349.946	1	12
351.143	1	4
352.340	1	0
353.537	1	-1
354.734	1	-1
355.931	1	5
357.127	1	-7
358.324	1	1
359.521	1	-3
360.718	1	4
361.914	1	-4
363.111	1	1
364.308	1	0
365.504	1	5
366.701	1	-10
367.897	1	-2
369.093	1	-1
370.290	1	-5
371.486	1	7
372.682	1	1
373.879	1	8
375.075	1	4
376.271	1	1
377.467	1	-5
378.663	1	-6
379.859	1	1
381.055	1	1
382.251	1	0
383.447	1	6
384.643	1	7
385.839	1	5
387.035	1	7
388.230	1	-1
389.426	1	4
390.622	1	-1
391.817	1	1
393.013	1	11
394.208	1	7
395.404	1	13
396.599	1	0
397.795	1	4
398.990	1	-4
400.186	1	6
401.381	1	11
402.576	1	9
403.771	1	2
404.967	1	12
406.162	1	5
407.357	1	2
408.552	1	12
409.747	1	-7
410.942	1	-1
412.137	1	3
413.332	1	5
414.526	1	14
415.721	1	-2
416.916	1	-2
418.111	1	0
419.305	1	-2
420.500	1	4
421.695	1	-4
422.889	1	4
424.084	1	6
425.278	1	-1
426.472	1	-7
427.667	1	11
428.861	1	1
430.055	1	-2
431.250	1	-10
432.444	1	5
433.638	1	1
434.832	1	-7
436.026	1	-1
437.220	1	10
438.414	1	1
439.608	1	9
440.802	1	-1
441.996	1	-1
443.190	1	-17
444.384	1	2
445.578	1	0
446.771	1	-10
447.965	1	-7
449.159	1	-3
450.352	1	1
451.546	1	3
452.739	1	9
453.933	1	13
455.126	1	4
456.320	1	1
457.513	1	3
458.706	1	-2
459.899	1	7
461.093	1	3
462.286	1	8
463.479	1	10
464.672	1	4
465.865	1	-2
467.058	1	6
468.251	1	-3
469.444	1	-9
470.637	1	7
471.830	1	17
473.023	1	-7
474.215	1	-3
475.408	1	2
476.601	1	1
477.793	1	8
478.986	1	2
480.179	1	7
481.371	1	5
482.564	1	-7
483.756	1	5
484.948	1	-7
486.141	1	-10
487.333	1	2
488.525	1	-2
489.718	1	-5
490.910	1	-1
492.102	1	-2
493.294	1	15
494.486	1	3
495.678	1	6
496.870	1	-4
498.062	1	-3
499.254	1	0
500.446	1	-3
501.638	1	0
502.829	1	10
504.021	1	9
505.213	1	-3
506.404	1	-2
507.596	1	6
508.788	1	-4
509.979	1	3
511.171	1	15
512.362	1	7
513.553	1	-3
514.745	1	-2
515.936	1	1
517.127	1	0
518.319	1	1
519.510	1	1
520.701	1	-1
521.892	1	-8
523.083	1	-2
524.274	1	-2
525.465	1	4
526.656	1	12
527.847	1	-7
529.038	1	5
530.229	1	4
531.419	1	-2
532.610	1	9
533.801	1	3
534.991	1	-4
536.182	1	8
537.373	1	-4
538.563	1	5
539.754	1	-2
540.944	1	-9
542.134	1	7
543.325	1	-4
544.515	1	7
545.705	1	13
546.896	1	2
548.086	1	2
549.276	1	5
550.466	1	-6
551.656	1	-7
552.846	1	-2
554.036	1	3
555.226	1	-8
556.416	1	-4
557.606	1	-7
558.796	1	5
559.986	1	-7
561.175	1	-4
562.365	1	4
563.555	1	2
564.744	1	4
565.934	1	1
567.123	1	15
568.313	1	-5
569.502	1	2
570.692	1	2
571.881	1	9
573.070	1	8
574.260	1	-6
575.449	1	2
576.638	1	9
577.827	1	3
579.016	1	10
580.205	1	1
581.394	1	-10
582.583	1	-6
583.772	1	2
584.961	1	4
586.150	1	-2
587.339	1	0
588.528	1	5
589.717	1	-6
590.905	1	0
592.094	1	1
593.283	1	6
594.471	1	6
595.660	1	1
596.848	1	3
598.037	1	-4
599.225	1	-5
600.413	1	-7
601.602	1	12
602.790	1	11
603.978	1	6
605.166	1	-7
606.355	1	13
607.543	1	-8
608.731	1	-17
609.919	1	-7
611.107	1	5
612.295	1	9
613.483	1	10
614.671	1	2
615.858	1	4
617.046	1	-4
618.234	1	4
619.422	1	1
620.609	1	7
621.797	1	4
622.985	1	4
624.172	1	17
625.360	1	-13
626.547	1	1
627.735	1	0
628.922	1	8
630.109	1	0
631.297	1	-4
632.484	1	1
633.671	1	5
634.858	1	14
636.045	1	-7
637.232	1	-5
638.419	1	4
639.606	1	18
640.793	1	0
641.980	1	-3
643.167	1	15
644.354	1	3
645.541	1	-5
646.728	1	6
647.914	1	-14
649.101	1	-3
650.288	1	-1
651.474	1	3
652.661	1	-1
653.847	1	8
655.034	1	7
656.220	1	11
657.406	1	0
658.593	1	-7
659.779	1	-7
660.965	1	-11
662.152	1	-8
663.338	1	-4
664.524	1	-2
665.710	1	-5
666.896	1	-9
668.082	1	1
669.268	1	4
670.454	1	1
671.640	1	-17
672.826	1	-20
674.011	1	8
675.197	1	-2
676.383	1	-5
677.569	1	-8
678.754	1	-4
679.940	1	2
681.125	1	7
682.311	1	-6
683.496	1	-5
684.682	1	8
685.867	1	-4
687.053	1	3
688.238	1	12
688.746	1	8

File: GaN_sample E_spot4_UVVIS_68 K_200um_200 ms 2x2mm1_587.txt
340.368	1	-1
341.565	1	-7
342.763	1	-5
343.960	1	-3
345.157	1	6
346.354	1	1
347.552	1	2
348.749	1	-1
349.946	1	6
351.143	1	-3
352.340	1	2
353.537	1	3
354.734	1	-8
355.931	1	-3
357.127	1	1
358.324	1	6
359.521	1	5
360.718	1	-1
361.914	1	3
363.111	1	10
364.308	1	-3
365.504	1	-6
366.701	1	-11
367.897	1	0
369.093	1	-2
370.290	1	-7
371.486	1	-2
372.682	1	1
373.879	1	7
375.075	1	-4
376.271	1	-5
377.467	1	-1
378.663	1	2
379.859	1	-1
381.055	1	3
382.251	1	3
383.447	1	11
384.643	1	5
385.839	1	4
387.035	1	4
388.230	1	0
389.426	1	9
390.622	1	-2
391.817	1	1
393.013	1	11
394.208	1	7
395.404	1	4
396.599	1	0
397.795	1	-2
398.990	1	3
400.186	1	-4
401.381	1	11
402.576	1	8
403.771	1	-1
404.967	1	-1
406.162	1	-7
407.357	1	6
408.552	1	2
409.747	1	-9
410.942	1	7
412.137	1	13
413.332	1	10
414.526	1	2
415.721	1	-1
416.916	1	0
418.111	1	-4
419.305	1	-5
420.500	1	5
421.695	1	1
422.889	1	1
424.084	1	-5
425.278	1	-11
426.472	1	5
427.667	1	-3
428.861	1	-2
430.055	1	6
431.250	1	-9
432.444	1	3
433.638	1	6
434.832	1	-4
436.026	1	1
437.220	1	8
438.414	1	3
439.608	1	2
440.802	1	6
441.996	1	0
443.190	1	-4
444.384	1	5
445.578	1	6
446.771	1	-6
447.965	1	-6
449.159	1	-5
450.352	1	8
451.546	1	-2
452.739	1	-1
453.933	1	0
455.126	1	5
456.320	1	-5
457.513	1	11
458.706	1	4
459.899	1	3
461.093	1	16
462.286	1	9
463.479	1	13
464.672	1	-6
465.865	1	-3
467.058	1	6
468.251	1	-3
469.444	1	3
470.637	1	16
471.830	1	17
473.023	1	-3
474.215	1	-10
475.408	1	7
476.601	1	1
477.793	1	15
478.986	1	-5
480.179	1	-5
481.371	1	2
482.564	1	-2
483.756	1	13
484.948	1	-5
486.141	1	-9
487.333	1	3
488.525	1	-4
489.718	1	0
490.910	1	-3
492.102	1	-5
493.294	1	-1
494.486	1	0
495.678	1	11
496.870	1	4
498.062	1	3
499.254	1	-4
500.446	1	8
501.638	1	7
502.829	1	-6
504.021	1	17
505.213	1	-4
506.404	1	-7
507.596	1	2
508.788	1	-1
509.979	1	-1
511.171	1	15
512.362	1	6
513.553	1	-14
514.745	1	-3
515.936	1	7
517.127	1	-1
518.319	1	-4
519.510	1	-2
520.701	1	3
521.892	1	-8
523.083	1	-7
524.274	1	-8
525.465	1	2
526.656	1	13
527.847	1	-5
529.038	1	3
530.229	1	8
531.419	1	8
532.610	1	3
533.801	1	-4
534.991	1	7
536.182	1	-3
537.373	1	1
538.563	1	5
539.754	1	0
540.944	1	-2
542.134	1	6
543.325	1	2
544.515	1	3
545.705	1	7
546.896	1	3
548.086	1	-3
549.276	1	7
550.466	1	0
551.656	1	-2
552.846	1	-7
554.036	1	3
555.226	1	-4
556.416	1	-2
557.606	1	0
558.796	1	1
559.986	1	-3
561.175	1	2
562.365	1	1
563.555	1	7
564.744	1	3
565.934	1	-1
567.123	1	4
568.313	1	0
569.502	1	2
570.692	1	9
571.881	1	-5
573.070	1	8
574.260	1	-1
575.449	1	6
576.638	1	2
577.827	1	11
579.016	1	17
580.205	1	6
581.394	1	-5
582.583	1	-6
583.772	1	2
584.961	1	6
586.150	1	-2
587.339	1	-1
588.528	1	5
589.717	1	1
590.905	1	10
592.094	1	2
593.283	1	7
594.471	1	8
595.660	1	-11
596.848	1	5
598.037	1	-6
599.225	1	-2
600.413	1	2
601.602	1	1
602.790	1	-2
603.978	1	-4
605.166	1	2
606.355	1	10
607.543	1	-7
608.731	1	-8
609.919	1	1
611.107	1	0
612.295	1	-3
613.483	1	6
614.671	1	2
615.858	1	7
617.046	1	1
618.234	1	9
619.422	1	9
620.609	1	4
621.797	1	-7
622.985	1	-5
624.172	1	12
625.360	1	-5
626.547	1	-5
627.735	1	5
628.922	1	-4
630.109	1	-6
631.297	1	-12
632.484	1	-9
633.671	1	7
634.858	1	3
636.045	1	5
637.232	1	1
638.419	1	7
639.606	1	12
640.793	1	8
641.980	1	-3
643.167	1	0
644.354	1	0
645.541	1	-12
646.728	1	6
647.914	1	-6
649.101	1	0
650.288	1	2
651.474	1	6
652.661	1	-7
653.847	1	-2
655.034	1	6
656.220	1	-4
657.406	1	0
658.593	1	-1
659.779	1	2
660.965	1	2
662.152	1	14
663.338	1	-9
664.524	1	-8
665.710	1	-2
666.896	1	-2
668.082	1	0
669.268	1	-5
670.454	1	-1
671.640	1	-10
672.826	1	-13
674.011	1	4
675.197	1	-3
676.383	1	-10
677.569	1	-6
678.754	1	-5
679.940	1	-6
681.125	1	4
682.311	1	4
683.496	1	-5
684.682	1	8
685.867	1	-2
687.053	1	-2
688.238	1	-4
688.746	1	0

File: GaN_sample E_spot4_UVVIS_68 K_200um_200 ms 2x2mm1_595.txt
340.368	1	4
341.565	1	-8
342.763	1	-1
343.960	1	4
345.157	1	4
346.354	1	-8
347.552	1	4
348.749	1	4
349.946	1	8
351.143	1	-12
352.340	1	-3
353.537	1	4
354.734	1	3
355.931	1	2
357.127	1	-1
358.324	1	-3
359.521	1	0
360.718	1	-7
361.914	1	-1
363.111	1	16
364.308	1	-11
365.504	1	-6
366.701	1	-11
367.897	1	4
369.093	1	12
370.290	1	-3
371.486	1	5
372.682	1	-2
373.879	1	11
375.075	1	4
376.271	1	-4
377.467	1	-10
378.663	1	-4
379.859	1	-4
381.055	1	7
382.251	1	1
383.447	1	18
384.643	1	2
385.839	1	6
387.035	1	-6
388.230	1	-2
389.426	1	8
390.622	1	-6
391.817	1	1
393.013	1	-3
394.208	1	6
395.404	1	7
396.599	1	4
397.795	1	7
398.990	1	-1
400.186	1	5
401.381	1	3
402.576	1	3
403.771	1	2
404.967	1	5
406.162	1	-1
407.357	1	6
408.552	1	8
409.747	1	2
410.942	1	4
412.137	1	9
413.332	1	-3
414.526	1	-1
415.721	1	-1
416.916	1	-1
418.111	1	1
419.305	1	-1
420.500	1	6
421.695	1	0
422.889	1	6
424.084	1	-12
425.278	1	-4
426.472	1	-8
427.667	1	5
428.861	1	-3
430.055	1	-2
431.250	1	0
432.444	1	2
433.638	1	6
434.832	1	-3
436.026	1	-3
437.220	1	9
438.414	1	4
439.608	1	-6
440.802	1	7
441.996	1	4
443.190	1	-3
444.384	1	3
445.578	1	4
446.771	1	2
447.965	1	-13
449.159	1	-4
450.352	1	11
451.546	1	-1
452.739	1	-1
453.933	1	-1
455.126	1	-4
456.320	1	0
457.513	1	10
458.706	1	3
459.899	1	10
461.093	1	10
462.286	1	5
463.479	1	9
464.672	1	2
465.865	1	-3
467.058	1	0
468.251	1	-2
469.444	1	1
470.637	1	5
471.830	1	15
473.023	1	-10
474.215	1	-11
475.408	1	-2
476.601	1	3
477.793	1	5
478.986	1	-7
480.179	1	1
481.371	1	8
482.564	1	-8
483.756	1	6
484.948	1	-8
486.141	1	-4
487.333	1	3
488.525	1	4
489.718	1	-1
490.910	1	-10
492.102	1	-13
493.294	1	1
494.486	1	5
495.678	1	7
496.870	1	-6
498.062	1	-2
499.254	1	5
500.446	1	4
501.638	1	5
502.829	1	1
504.021	1	16
505.213	1	-3
506.404	1	-14
507.596	1	6
508.788	1	2
509.979	1	-1
511.171	1	-1
512.362	1	-4
513.553	1	-7
514.745	1	0
515.936	1	-5
517.127	1	1
518.319	1	-1
519.510	1	-3
520.701	1	7
521.892	1	-3
523.083	1	-1
524.274	1	0
525.465	1	10
526.656	1	11
527.847	1	-3
529.038	1	10
530.229	1	-6
531.419	1	3
532.610	1	8
533.801	1	0
534.991	1	-3
536.182	1	2
537.373	1	-12
538.563	1	1
539.754	1	2
540.944	1	-2
542.134	1	3
543.325	1	2
544.515	1	1
545.705	1	8
546.896	1	0
548.086	1	9
549.276	1	1
550.466	1	-3
551.656	1	-7
552.846	1	5
554.036	1	-4
555.226	1	-12
556.416	1	-1
557.606	1	-5
558.796	1	-4
559.986	1	-5
561.175	1	-2
562.365	1	6
563.555	1	11
564.744	1	6
565.934	1	6
567.123	1	14
568.313	1	4
569.502	1	0
570.692	1	-2
571.881	1	11
573.070	1	-2
574.260	1	1
575.449	1	2
576.638	1	-7
577.827	1	6
579.016	1	7
580.205	1	3
581.394	1	-5
582.583	1	-7
583.772	1	-6
584.961	1	2
586.150	1	5
587.339	1	-4
588.528	1	7
589.717	1	6
590.905	1	7
592.094	1	-2
593.283	1	-3
594.471	1	0
595.660	1	-1
596.848	1	5
598.037	1	0
599.225	1	1
600.413	1	0
601.602	1	2
602.790	1	1
603.978	1	-8
605.166	1	-2
606.355	1	7
607.543	1	-8
608.731	1	-9
609.919	1	-5
611.107	1	4
612.295	1	3
613.483	1	1
614.671	1	2
615.858	1	6
617.046	1	2
618.234	1	-3
619.422	1	6
620.609	1	-8
621.797	1	5
622.985	1	-2
624.172	1	4
625.360	1	-2
626.547	1	-5
627.735	1	9
628.922	1	-10
630.109	1	0
631.297	1	-3
632.484	1	6
633.671	1	-2
634.858	1	-2
636.045	1	5
637.232	1	3
638.419	1	-1
639.606	1	12
640.793	1	10
641.980	1	0
643.167	1	5
644.354	1	-3
645.541	1	-3
646.728	1	1
647.914	1	-1
649.101	1	11
650.288	1	-6
651.474	1	10
652.661	1	6
653.847	1	-4
655.034	1	6
656.220	1	5
657.406	1	1
658.593	1	-15
659.779	1	-1
660.965	1	3
662.152	1	-1
663.338	1	-11
664.524	1	-9
665.710	1	-2
666.896	1	0
668.082	1	-4
669.268	1	0
670.454	1	-4
671.640	1	-12
672.826	1	-8
674.011	1	1
675.197	1	0
676.383	1	1
677.569	1	2
678.754	1	-7
679.940	1	-3
681.125	1	9
682.311	1	2
683.496	1	-9
684.682	1	5
685.867	1	5
687.053	1	6
688.238	1	-3
688.746	1	-2

File: GaN_sample E_spot4_UVVIS_68 K_200um_200 ms 2x2mm1_599.txt
340.368	1	3
341.565	1	-7
342.763	1	-7
343.960	1	-9
345.157	1	3
346.354	1	-8
347.552	1	6
348.749	1	1
349.946	1	6
351.143	1	-16
352.340	1	8
353.537	1	-10
354.734	1	0
355.931	1	2
357.127	1	-4
358.324	1	-8
359.521	1	-10
360.718	1	0
361.914	1	2
363.111	1	5
364.308	1	1
365.504	1	-14
366.701	1	-4
367.897	1	-2
369.093	1	-4
370.290	1	-2
371.486	1	2
372.682	1	9
373.879	1	15
375.075	1	10
376.271	1	-12
377.467	1	0
378.663	1	-7
379.859	1	-2
381.055	1	-1
382.251	1	7
383.447	1	3
384.643	1	4
385.839	1	13
387.035	1	2
388.230	1	5
389.426	1	3
390.622	1	-2
391.817	1	-5
393.013	1	7
394.208	1	14
395.404	1	6
396.599	1	7
397.795	1	10
398.990	1	8
400.186	1	5
401.381	1	15
402.576	1	10
403.771	1	7
404.967	1	9
406.162	1	0
407.357	1	1
408.552	1	5
409.747	1	-9
410.942	1	3
412.137	1	6
413.332	1	-5
414.526	1	8
415.721	1	1
416.916	1	-4
418.111	1	-2
419.305	1	-4
420.500	1	5
421.695	1	2
422.889	1	-4
424.084	1	7
425.278	1	-13
426.472	1	-3
427.667	1	4
428.861	1	0
430.055	1	1
431.250	1	-17
432.444	1	8
433.638	1	-1
434.832	1	0
436.026	1	5
437.220	1	5
438.414	1	8
439.608	1	5
440.802	1	5
441.996	1	2
443.190	1	-3
444.384	1	1
445.578	1	10
446.771	1	-8
447.965	1	-9
449.159	1	-7
450.352	1	8
451.546	1	-5
452.739	1	-4
453.933	1	2
455.126	1	5
456.320	1	-3
457.513	1	6
458.706	1	-1
459.899	1	6
461.093	1	7
462.286	1	5
463.479	1	10
464.672	1	2
465.865	1	-5
467.058	1	8
468.251	1	3
469.444	1	-9
470.637	1	14
471.830	1	4
473.023	1	1
474.215	1	-12
475.408	1	-3
476.601	1	0
477.793	1	6
478.986	1	-8
480.179	1	2
481.371	1	-6
482.564	1	-11
483.756	1	-1
484.948	1	-3
486.141	1	-11
487.333	1	3
488.525	1	12
489.718	1	-5
490.910	1	-3
492.102	1	-11
493.294	1	3
494.486	1	1
495.678	1	5
496.870	1	-3
498.062	1	-1
499.254	1	1
500.446	1	6
501.638	1	-3
502.829	1	0
504.021	1	13
505.213	1	10
506.404	1	-2
507.596	1	0
508.788	1	-12
509.979	1	-1
511.171	1	7
512.362	1	8
513.553	1	-2
514.745	1	-4
515.936	1	4
517.127	1	-3
518.319	1	0
519.510	1	0
520.701	1	13
521.892	1	-16
523.083	1	-3
524.274	1	-3
525.465	1	-4
526.656	1	20
527.847	1	-6
529.038	1	5
530.229	1	1
531.419	1	11
532.610	1	-1
533.801	1	1
534.991	1	0
536.182	1	0
537.373	1	-8
538.563	1	8
539.754	1	-1
540.944	1	-7
542.134	1	6
543.325	1	-2
544.515	1	-5
545.705	1	14
546.896	1	7
548.086	1	-8
549.276	1	0
550.466	1	-7
551.656	1	-9
552.846	1	4
554.036	1	5
555.226	1	3
556.416	1	3
557.606	1	-5
558.796	1	-4
559.986	1	-5
561.175	1	5
562.365	1	4
563.555	1	10
564.744	1	0
565.934	1	4
567.123	1	9
568.313	1	1
569.502	1	7
570.692	1	-3
571.881	1	5
573.070	1	5
574.260	1	-13
575.449	1	8
576.638	1	-1
577.827	1	2
579.016	1	4
580.205	1	-3
581.394	1	-8
582.583	1	-2
583.772	1	-3
584.961	1	4
586.150	1	-1
587.339	1	2
588.528	1	8
589.717	1	1
590.905	1	8
592.094	1	8
593.283	1	11
594.471	1	4
595.660	1	-11
596.848	1	2
598.037	1	-4
599.225	1	-2
600.413	1	3
601.602	1	3
602.790	1	5
603.978	1	-8
605.166	1	-3
606.355	1	-4
607.543	1	-5
608.731	1	-4
609.919	1	-7
611.107	1	12
612.295	1	-5
613.483	1	11
614.671	1	4
615.858	1	4
617.046	1	3
618.234	1	-6
619.422	1	2
620.609	1	-2
621.797	1	-5
622.985	1	1
624.172	1	11
625.360	1	-8
626.547	1	-1
627.735	1	5
628.922	1	-1
630.109	1	-5
631.297	1	-3
632.484	1	-8
633.671	1	-3
634.858	1	15
636.045	1	-4
637.232	1	2
638.419	1	8
639.606	1	13
640.793	1	7
641.980	1	-5
643.167	1	7
644.354	1	-1
645.541	1	-5
646.728	1	-4
647.914	1	-7
649.101	1	-4
650.288	1	-3
651.474	1	8
652.661	1	5
653.847	1	-3
655.034	1	9
656.220	1	4
657.406	1	7
658.593	1	-1
659.779	1	-11
660.965	1	0
662.152	1	7
663.338	1	-2
664.524	1	-21
665.710	1	-12
666.896	1	8
668.082	1	1
669.268	1	-3
670.454	1	-9
671.640	1	-15
672.826	1	-13
674.011	1	0
675.197	1	-7
676.383	1	5
677.569	1	-6
678.754	1	-4
679.940	1	-4
681.125	1	12
682.311	1	0
683.496	1	-9
684.682	1	3
685.867	1	-12
687.053	1	13
688.238	1	-1
688.746	1	3

File: GaN_sample E_spot4_UVVIS_68 K_200um_200 ms 2x2mm1_630.txt
340.368	1	1
341.565	1	-7
342.763	1	2
343.960	1	-1
345.157	1	4
346.354	1	1
347.552	1	2
348.749	1	0
349.946	1	2
351.143	1	-10
352.340	1	-5
353.537	1	-6
354.734	1	-3
355.931	1	4
357.127	1	2
358.324	1	-1
359.521	1	0
360.718	1	1
361.914	1	6
363.111	1	5
364.308	1	-5
365.504	1	-9
366.701	1	-5
367.897	1	3
369.093	1	1
370.290	1	-9
371.486	1	5
372.682	1	2
373.879	1	12
375.075	1	5
376.271	1	-6
377.467	1	-6
378.663	1	-19
379.859	1	4
381.055	1	-2
382.251	1	2
383.447	1	7
384.643	1	8
385.839	1	7
387.035	1	0
388.230	1	5
389.426	1	4
390.622	1	0
391.817	1	-1
393.013	1	10
394.208	1	6
395.404	1	7
396.599	1	0
397.795	1	10
398.990	1	12
400.186	1	2
401.381	1	2
402.576	1	12
403.771	1	-3
404.967	1	-1
406.162	1	-6
407.357	1	4
408.552	1	10
409.747	1	-2
410.942	1	0
412.137	1	9
413.332	1	3
414.526	1	-3
415.721	1	4
416.916	1	4
418.111	1	-7
419.305	1	-4
420.500	1	1
421.695	1	8
422.889	1	0
424.084	1	2
425.278	1	-8
426.472	1	-13
427.667	1	3
428.861	1	-4
430.055	1	3
431.250	1	-8
432.444	1	10
433.638	1	2
434.832	1	0
436.026	1	4
437.220	1	15
438.414	1	4
439.608	1	-3
440.802	1	2
441.996	1	0
443.190	1	-7
444.384	1	3
445.578	1	10
446.771	1	-9
447.965	1	-14
449.159	1	-8
450.352	1	0
451.546	1	-2
452.739	1	1
453.933	1	5
455.126	1	-2
456.320	1	1
457.513	1	10
458.706	1	-6
459.899	1	7
461.093	1	18
462.286	1	1
463.479	1	8
464.672	1	6
465.865	1	-8
467.058	1	14
468.251	1	-4
469.444	1	-1
470.637	1	11
471.830	1	10
473.023	1	-7
474.215	1	0
475.408	1	2
476.601	1	-6
477.793	1	6
478.986	1	1
480.179	1	8
481.371	1	-1
482.564	1	-6
483.756	1	10
484.948	1	0
486.141	1	-10
487.333	1	2
488.525	1	-5
489.718	1	0
490.910	1	-2
492.102	1	-7
493.294	1	4
494.486	1	1
495.678	1	8
496.870	1	4
498.062	1	2
499.254	1	-6
500.446	1	3
501.638	1	0
502.829	1	11
504.021	1	15
505.213	1	0
506.404	1	0
507.596	1	2
508.788	1	-4
509.979	1	3
511.171	1	6
512.362	1	7
513.553	1	-5
514.745	1	-6
515.936	1	4
517.127	1	2
518.319	1	-6
519.510	1	0
520.701	1	-1
521.892	1	-11
523.083	1	-2
524.274	1	-4
525.465	1	-1
526.656	1	21
527.847	1	-9
529.038	1	3
530.229	1	4
531.419	1	10
532.610	1	2
533.801	1	8
534.991	1	1
536.182	1	-7
537.373	1	-3
538.563	1	4
539.754	1	-1
540.944	1	1
542.134	1	8
543.325	1	-1
544.515	1	-9
545.705	1	8
546.896	1	5
548.086	1	3
549.276	1	9
550.466	1	2
551.656	1	-6
552.846	1	5
554.036	1	-2
555.226	1	-4
556.416	1	-1
557.606	1	-1
558.796	1	-1
559.986	1	-3
561.175	1	6
562.365	1	4
563.555	1	10
564.744	1	-2
565.934	1	1
567.123	1	12
568.313	1	-11
569.502	1	1
570.692	1	-9
571.881	1	4
573.070	1	6
574.260	1	-6
575.449	1	5
576.638	1	5
577.827	1	15
579.016	1	13
580.205	1	1
581.394	1	6
582.583	1	-10
583.772	1	1
584.961	1	10
586.150	1	1
587.339	1	3
588.528	1	0
589.717	1	-4
590.905	1	-2
592.094	1	-1
593.283	1	5
594.471	1	-4
595.660	1	-6
596.848	1	2
598.037	1	-5
599.225	1	-2
600.413	1	-3
601.602	1	3
602.790	1	1
603.978	1	-2
605.166	1	2
606.355	1	7
607.543	1	-9
608.731	1	-10
609.919	1	-10
611.107	1	5
612.295	1	3
613.483	1	1
614.671	1	1
615.858	1	-3
617.046	1	2
618.234	1	-4
619.422	1	-1
620.609	1	7
621.797	1	2
622.985	1	7
624.172	1	8
625.360	1	-2
626.547	1	9
627.735	1	5
628.922	1	-7
630.109	1	2
631.297	1	-3
632.484	1	-7
633.671	1	-3
634.858	1	5
636.045	1	-1
637.232	1	0
638.419	1	7
639.606	1	11
640.793	1	7
641.980	1	4
643.167	1	6
644.354	1	-3
645.541	1	-6
646.728	1	9
647.914	1	-10
649.101	1	0
650.288	1	-4
651.474	1	4
652.661	1	0
653.847	1	4
655.034	1	-5
656.220	1	9
657.406	1	7
658.593	1	-13
659.779	1	0
660.965	1	6
662.152	1	2
663.338	1	-7
664.524	1	-11
665.710	1	-11
666.896	1	-6
668.082	1	4
669.268	1	1
670.454	1	0
671.640	1	-16
672.826	1	-5
674.011	1	9
675.197	1	-5
676.383	1	0
677.569	1	4
678.754	1	-4
679.940	1	10
681.125	1	6
682.311	1	-1
683.496	1	-7
684.682	1	5
685.867	1	4
687.053	1	4
688.238	1	-2
688.746	1	1