Folder: cryo-il_analysis/Analysis/GaN_68K_200ms (part 21)

File: GaN_sample E_spot4_UVVIS_68 K_200um_200 ms 2x2mm1_427.txt
340.368	1	10
341.565	1	-2
342.763	1	-3
343.960	1	-6
345.157	1	15
346.354	1	-7
347.552	1	-1
348.749	1	-4
349.946	1	10
351.143	1	-10
352.340	1	-1
353.537	1	4
354.734	1	3
355.931	1	-2
357.127	1	7
358.324	1	1
359.521	1	-1
360.718	1	-7
361.914	1	-5
363.111	1	9
364.308	1	-4
365.504	1	-1
366.701	1	-4
367.897	1	3
369.093	1	-3
370.290	1	-11
371.486	1	3
372.682	1	-1
373.879	1	13
375.075	1	0
376.271	1	-1
377.467	1	-1
378.663	1	-1
379.859	1	0
381.055	1	0
382.251	1	6
383.447	1	17
384.643	1	11
385.839	1	2
387.035	1	-4
388.230	1	1
389.426	1	8
390.622	1	0
391.817	1	2
393.013	1	11
394.208	1	9
395.404	1	15
396.599	1	3
397.795	1	14
398.990	1	9
400.186	1	8
401.381	1	5
402.576	1	-1
403.771	1	6
404.967	1	-1
406.162	1	5
407.357	1	9
408.552	1	8
409.747	1	-3
410.942	1	17
412.137	1	7
413.332	1	2
414.526	1	6
415.721	1	13
416.916	1	2
418.111	1	2
419.305	1	7
420.500	1	16
421.695	1	10
422.889	1	3
424.084	1	2
425.278	1	2
426.472	1	-7
427.667	1	12
428.861	1	0
430.055	1	8
431.250	1	-8
432.444	1	6
433.638	1	-4
434.832	1	-8
436.026	1	6
437.220	1	-2
438.414	1	3
439.608	1	-6
440.802	1	10
441.996	1	4
443.190	1	-1
444.384	1	9
445.578	1	13
446.771	1	-9
447.965	1	-8
449.159	1	-6
450.352	1	10
451.546	1	2
452.739	1	8
453.933	1	-1
455.126	1	-4
456.320	1	1
457.513	1	10
458.706	1	-9
459.899	1	12
461.093	1	10
462.286	1	5
463.479	1	10
464.672	1	-1
465.865	1	-2
467.058	1	10
468.251	1	-11
469.444	1	1
470.637	1	3
471.830	1	12
473.023	1	3
474.215	1	-2
475.408	1	7
476.601	1	-5
477.793	1	11
478.986	1	4
480.179	1	4
481.371	1	-2
482.564	1	-2
483.756	1	9
484.948	1	-2
486.141	1	-4
487.333	1	7
488.525	1	2
489.718	1	-2
490.910	1	-2
492.102	1	-11
493.294	1	10
494.486	1	10
495.678	1	10
496.870	1	-1
498.062	1	0
499.254	1	6
500.446	1	11
501.638	1	-7
502.829	1	-1
504.021	1	17
505.213	1	-1
506.404	1	-3
507.596	1	7
508.788	1	-2
509.979	1	-5
511.171	1	10
512.362	1	8
513.553	1	1
514.745	1	4
515.936	1	5
517.127	1	0
518.319	1	0
519.510	1	3
520.701	1	6
521.892	1	-3
523.083	1	6
524.274	1	-4
525.465	1	0
526.656	1	23
527.847	1	-2
529.038	1	5
530.229	1	-4
531.419	1	14
532.610	1	5
533.801	1	9
534.991	1	5
536.182	1	6
537.373	1	-1
538.563	1	6
539.754	1	-6
540.944	1	5
542.134	1	1
543.325	1	4
544.515	1	-5
545.705	1	7
546.896	1	11
548.086	1	8
549.276	1	13
550.466	1	-5
551.656	1	-9
552.846	1	9
554.036	1	7
555.226	1	-8
556.416	1	2
557.606	1	-7
558.796	1	3
559.986	1	-8
561.175	1	3
562.365	1	0
563.555	1	16
564.744	1	7
565.934	1	0
567.123	1	22
568.313	1	-12
569.502	1	7
570.692	1	5
571.881	1	11
573.070	1	8
574.260	1	2
575.449	1	8
576.638	1	-2
577.827	1	6
579.016	1	11
580.205	1	-1
581.394	1	-8
582.583	1	-8
583.772	1	-8
584.961	1	8
586.150	1	7
587.339	1	9
588.528	1	3
589.717	1	-6
590.905	1	8
592.094	1	0
593.283	1	14
594.471	1	5
595.660	1	3
596.848	1	10
598.037	1	5
599.225	1	3
600.413	1	-5
601.602	1	1
602.790	1	3
603.978	1	2
605.166	1	4
606.355	1	6
607.543	1	-12
608.731	1	-9
609.919	1	-10
611.107	1	17
612.295	1	-2
613.483	1	5
614.671	1	-1
615.858	1	8
617.046	1	10
618.234	1	-7
619.422	1	-1
620.609	1	-3
621.797	1	2
622.985	1	1
624.172	1	14
625.360	1	-7
626.547	1	-1
627.735	1	7
628.922	1	4
630.109	1	1
631.297	1	-2
632.484	1	3
633.671	1	4
634.858	1	7
636.045	1	8
637.232	1	-2
638.419	1	6
639.606	1	11
640.793	1	8
641.980	1	-3
643.167	1	11
644.354	1	7
645.541	1	-7
646.728	1	1
647.914	1	4
649.101	1	4
650.288	1	-2
651.474	1	9
652.661	1	0
653.847	1	2
655.034	1	6
656.220	1	6
657.406	1	7
658.593	1	-3
659.779	1	1
660.965	1	3
662.152	1	6
663.338	1	-1
664.524	1	-8
665.710	1	3
666.896	1	-5
668.082	1	-2
669.268	1	4
670.454	1	0
671.640	1	-16
672.826	1	-18
674.011	1	12
675.197	1	-4
676.383	1	-6
677.569	1	-1
678.754	1	-4
679.940	1	1
681.125	1	9
682.311	1	12
683.496	1	-7
684.682	1	8
685.867	1	2
687.053	1	7
688.238	1	3
688.746	1	6

File: GaN_sample E_spot4_UVVIS_68 K_200um_200 ms 2x2mm1_428.txt
340.368	1	2
341.565	1	-8
342.763	1	0
343.960	1	-7
345.157	1	-4
346.354	1	4
347.552	1	12
348.749	1	1
349.946	1	12
351.143	1	-10
352.340	1	4
353.537	1	-5
354.734	1	4
355.931	1	1
357.127	1	5
358.324	1	-3
359.521	1	4
360.718	1	-8
361.914	1	-1
363.111	1	8
364.308	1	5
365.504	1	-7
366.701	1	3
367.897	1	2
369.093	1	0
370.290	1	0
371.486	1	7
372.682	1	2
373.879	1	16
375.075	1	6
376.271	1	-2
377.467	1	-4
378.663	1	-5
379.859	1	-6
381.055	1	7
382.251	1	5
383.447	1	15
384.643	1	9
385.839	1	4
387.035	1	5
388.230	1	13
389.426	1	14
390.622	1	4
391.817	1	5
393.013	1	21
394.208	1	11
395.404	1	10
396.599	1	8
397.795	1	9
398.990	1	13
400.186	1	17
401.381	1	5
402.576	1	23
403.771	1	10
404.967	1	11
406.162	1	-1
407.357	1	7
408.552	1	13
409.747	1	-4
410.942	1	5
412.137	1	9
413.332	1	2
414.526	1	9
415.721	1	0
416.916	1	-3
418.111	1	-1
419.305	1	-3
420.500	1	4
421.695	1	0
422.889	1	8
424.084	1	7
425.278	1	-6
426.472	1	0
427.667	1	7
428.861	1	4
430.055	1	7
431.250	1	-10
432.444	1	7
433.638	1	0
434.832	1	1
436.026	1	3
437.220	1	10
438.414	1	5
439.608	1	0
440.802	1	4
441.996	1	2
443.190	1	-4
444.384	1	-7
445.578	1	7
446.771	1	1
447.965	1	-7
449.159	1	-4
450.352	1	3
451.546	1	4
452.739	1	2
453.933	1	1
455.126	1	10
456.320	1	1
457.513	1	0
458.706	1	6
459.899	1	7
461.093	1	3
462.286	1	14
463.479	1	7
464.672	1	-4
465.865	1	3
467.058	1	9
468.251	1	-1
469.444	1	-3
470.637	1	8
471.830	1	18
473.023	1	-3
474.215	1	2
475.408	1	6
476.601	1	-7
477.793	1	13
478.986	1	-4
480.179	1	3
481.371	1	3
482.564	1	-11
483.756	1	12
484.948	1	5
486.141	1	-8
487.333	1	2
488.525	1	-4
489.718	1	2
490.910	1	-7
492.102	1	-6
493.294	1	6
494.486	1	5
495.678	1	13
496.870	1	-2
498.062	1	9
499.254	1	1
500.446	1	13
501.638	1	-2
502.829	1	1
504.021	1	21
505.213	1	3
506.404	1	0
507.596	1	7
508.788	1	-1
509.979	1	8
511.171	1	12
512.362	1	3
513.553	1	5
514.745	1	7
515.936	1	5
517.127	1	2
518.319	1	0
519.510	1	12
520.701	1	8
521.892	1	-2
523.083	1	3
524.274	1	6
525.465	1	6
526.656	1	22
527.847	1	-3
529.038	1	11
530.229	1	12
531.419	1	9
532.610	1	10
533.801	1	-1
534.991	1	1
536.182	1	3
537.373	1	2
538.563	1	6
539.754	1	-5
540.944	1	4
542.134	1	6
543.325	1	-1
544.515	1	-2
545.705	1	11
546.896	1	4
548.086	1	13
549.276	1	5
550.466	1	1
551.656	1	-6
552.846	1	11
554.036	1	7
555.226	1	-7
556.416	1	0
557.606	1	-7
558.796	1	-8
559.986	1	0
561.175	1	8
562.365	1	7
563.555	1	12
564.744	1	-5
565.934	1	7
567.123	1	20
568.313	1	2
569.502	1	1
570.692	1	4
571.881	1	3
573.070	1	0
574.260	1	11
575.449	1	-1
576.638	1	0
577.827	1	3
579.016	1	7
580.205	1	-2
581.394	1	-5
582.583	1	-11
583.772	1	2
584.961	1	2
586.150	1	3
587.339	1	1
588.528	1	-1
589.717	1	4
590.905	1	5
592.094	1	8
593.283	1	13
594.471	1	1
595.660	1	-6
596.848	1	6
598.037	1	-2
599.225	1	1
600.413	1	4
601.602	1	8
602.790	1	-7
603.978	1	9
605.166	1	-3
606.355	1	5
607.543	1	-2
608.731	1	-14
609.919	1	-7
611.107	1	6
612.295	1	1
613.483	1	3
614.671	1	4
615.858	1	3
617.046	1	4
618.234	1	0
619.422	1	-6
620.609	1	2
621.797	1	-8
622.985	1	11
624.172	1	10
625.360	1	3
626.547	1	2
627.735	1	4
628.922	1	3
630.109	1	-5
631.297	1	-1
632.484	1	0
633.671	1	9
634.858	1	10
636.045	1	12
637.232	1	3
638.419	1	11
639.606	1	8
640.793	1	8
641.980	1	-8
643.167	1	14
644.354	1	2
645.541	1	-10
646.728	1	2
647.914	1	-4
649.101	1	15
650.288	1	3
651.474	1	4
652.661	1	3
653.847	1	4
655.034	1	-5
656.220	1	9
657.406	1	-6
658.593	1	-2
659.779	1	3
660.965	1	4
662.152	1	5
663.338	1	-9
664.524	1	-4
665.710	1	9
666.896	1	-1
668.082	1	-4
669.268	1	-2
670.454	1	2
671.640	1	-15
672.826	1	-6
674.011	1	11
675.197	1	-4
676.383	1	-3
677.569	1	-6
678.754	1	3
679.940	1	3
681.125	1	11
682.311	1	-1
683.496	1	0
684.682	1	8
685.867	1	-1
687.053	1	16
688.238	1	0
688.746	1	5

File: GaN_sample E_spot4_UVVIS_68 K_200um_200 ms 2x2mm1_431.txt
340.368	1	-1
341.565	1	-7
342.763	1	7
343.960	1	-5
345.157	1	6
346.354	1	-6
347.552	1	4
348.749	1	-1
349.946	1	14
351.143	1	-6
352.340	1	0
353.537	1	-3
354.734	1	-2
355.931	1	6
357.127	1	3
358.324	1	3
359.521	1	-4
360.718	1	-12
361.914	1	3
363.111	1	14
364.308	1	0
365.504	1	-4
366.701	1	-2
367.897	1	9
369.093	1	9
370.290	1	1
371.486	1	14
372.682	1	-1
373.879	1	12
375.075	1	1
376.271	1	-9
377.467	1	-4
378.663	1	-2
379.859	1	2
381.055	1	2
382.251	1	0
383.447	1	12
384.643	1	8
385.839	1	9
387.035	1	7
388.230	1	4
389.426	1	9
390.622	1	-3
391.817	1	5
393.013	1	9
394.208	1	15
395.404	1	5
396.599	1	14
397.795	1	12
398.990	1	8
400.186	1	9
401.381	1	12
402.576	1	11
403.771	1	-3
404.967	1	5
406.162	1	-1
407.357	1	6
408.552	1	7
409.747	1	-3
410.942	1	8
412.137	1	6
413.332	1	1
414.526	1	7
415.721	1	3
416.916	1	-1
418.111	1	-1
419.305	1	1
420.500	1	5
421.695	1	3
422.889	1	11
424.084	1	8
425.278	1	-9
426.472	1	-7
427.667	1	3
428.861	1	3
430.055	1	8
431.250	1	-4
432.444	1	7
433.638	1	-3
434.832	1	-9
436.026	1	-3
437.220	1	13
438.414	1	-6
439.608	1	3
440.802	1	9
441.996	1	-1
443.190	1	-4
444.384	1	-2
445.578	1	14
446.771	1	-8
447.965	1	-8
449.159	1	4
450.352	1	-6
451.546	1	9
452.739	1	9
453.933	1	11
455.126	1	-6
456.320	1	-1
457.513	1	7
458.706	1	7
459.899	1	10
461.093	1	1
462.286	1	16
463.479	1	12
464.672	1	3
465.865	1	-14
467.058	1	19
468.251	1	1
469.444	1	-2
470.637	1	11
471.830	1	15
473.023	1	0
474.215	1	-5
475.408	1	8
476.601	1	-2
477.793	1	9
478.986	1	3
480.179	1	4
481.371	1	9
482.564	1	-11
483.756	1	9
484.948	1	-3
486.141	1	-6
487.333	1	3
488.525	1	0
489.718	1	3
490.910	1	-6
492.102	1	-2
493.294	1	8
494.486	1	3
495.678	1	10
496.870	1	-9
498.062	1	-8
499.254	1	6
500.446	1	10
501.638	1	7
502.829	1	7
504.021	1	21
505.213	1	4
506.404	1	-6
507.596	1	1
508.788	1	6
509.979	1	-1
511.171	1	15
512.362	1	4
513.553	1	-10
514.745	1	4
515.936	1	11
517.127	1	0
518.319	1	-4
519.510	1	-6
520.701	1	-2
521.892	1	-10
523.083	1	-4
524.274	1	-6
525.465	1	1
526.656	1	16
527.847	1	-3
529.038	1	12
530.229	1	11
531.419	1	9
532.610	1	11
533.801	1	7
534.991	1	2
536.182	1	0
537.373	1	-10
538.563	1	4
539.754	1	-2
540.944	1	0
542.134	1	11
543.325	1	2
544.515	1	-1
545.705	1	5
546.896	1	0
548.086	1	4
549.276	1	8
550.466	1	0
551.656	1	-7
552.846	1	11
554.036	1	2
555.226	1	-2
556.416	1	5
557.606	1	-9
558.796	1	0
559.986	1	-9
561.175	1	-5
562.365	1	3
563.555	1	11
564.744	1	5
565.934	1	11
567.123	1	22
568.313	1	0
569.502	1	6
570.692	1	4
571.881	1	10
573.070	1	4
574.260	1	2
575.449	1	2
576.638	1	10
577.827	1	13
579.016	1	8
580.205	1	6
581.394	1	2
582.583	1	-6
583.772	1	5
584.961	1	1
586.150	1	-3
587.339	1	7
588.528	1	6
589.717	1	7
590.905	1	5
592.094	1	0
593.283	1	10
594.471	1	1
595.660	1	-5
596.848	1	13
598.037	1	1
599.225	1	-3
600.413	1	-5
601.602	1	8
602.790	1	1
603.978	1	4
605.166	1	-1
606.355	1	7
607.543	1	-7
608.731	1	0
609.919	1	-2
611.107	1	10
612.295	1	-6
613.483	1	4
614.671	1	7
615.858	1	7
617.046	1	8
618.234	1	-3
619.422	1	4
620.609	1	-1
621.797	1	-4
622.985	1	6
624.172	1	8
625.360	1	-5
626.547	1	4
627.735	1	12
628.922	1	-4
630.109	1	-5
631.297	1	-5
632.484	1	1
633.671	1	6
634.858	1	10
636.045	1	13
637.232	1	0
638.419	1	9
639.606	1	4
640.793	1	14
641.980	1	0
643.167	1	7
644.354	1	2
645.541	1	-4
646.728	1	2
647.914	1	-5
649.101	1	2
650.288	1	-3
651.474	1	2
652.661	1	4
653.847	1	7
655.034	1	10
656.220	1	13
657.406	1	5
658.593	1	-3
659.779	1	2
660.965	1	1
662.152	1	1
663.338	1	-1
664.524	1	1
665.710	1	-5
666.896	1	4
668.082	1	-3
669.268	1	-2
670.454	1	-6
671.640	1	-6
672.826	1	-14
674.011	1	4
675.197	1	1
676.383	1	-8
677.569	1	-2
678.754	1	-5
679.940	1	-7
681.125	1	3
682.311	1	3
683.496	1	-7
684.682	1	7
685.867	1	4
687.053	1	4
688.238	1	0
688.746	1	4

File: GaN_sample E_spot4_UVVIS_68 K_200um_200 ms 2x2mm1_435.txt
340.368	1	0
341.565	1	-10
342.763	1	-4
343.960	1	4
345.157	1	9
346.354	1	0
347.552	1	-3
348.749	1	0
349.946	1	1
351.143	1	-12
352.340	1	-3
353.537	1	0
354.734	1	1
355.931	1	5
357.127	1	0
358.324	1	-3
359.521	1	4
360.718	1	-3
361.914	1	0
363.111	1	12
364.308	1	1
365.504	1	-3
366.701	1	8
367.897	1	4
369.093	1	2
370.290	1	0
371.486	1	11
372.682	1	-1
373.879	1	7
375.075	1	10
376.271	1	5
377.467	1	3
378.663	1	2
379.859	1	-10
381.055	1	3
382.251	1	9
383.447	1	8
384.643	1	8
385.839	1	6
387.035	1	4
388.230	1	0
389.426	1	9
390.622	1	-3
391.817	1	7
393.013	1	2
394.208	1	11
395.404	1	3
396.599	1	5
397.795	1	14
398.990	1	16
400.186	1	8
401.381	1	13
402.576	1	16
403.771	1	3
404.967	1	8
406.162	1	4
407.357	1	3
408.552	1	10
409.747	1	0
410.942	1	11
412.137	1	14
413.332	1	1
414.526	1	0
415.721	1	8
416.916	1	0
418.111	1	5
419.305	1	5
420.500	1	5
421.695	1	6
422.889	1	10
424.084	1	10
425.278	1	-5
426.472	1	-5
427.667	1	8
428.861	1	-8
430.055	1	1
431.250	1	-5
432.444	1	3
433.638	1	-2
434.832	1	3
436.026	1	7
437.220	1	8
438.414	1	0
439.608	1	5
440.802	1	-4
441.996	1	0
443.190	1	-4
444.384	1	2
445.578	1	9
446.771	1	-5
447.965	1	-13
449.159	1	-8
450.352	1	10
451.546	1	11
452.739	1	0
453.933	1	9
455.126	1	5
456.320	1	2
457.513	1	6
458.706	1	9
459.899	1	7
461.093	1	-2
462.286	1	8
463.479	1	9
464.672	1	4
465.865	1	2
467.058	1	4
468.251	1	-11
469.444	1	4
470.637	1	7
471.830	1	6
473.023	1	-7
474.215	1	-7
475.408	1	-3
476.601	1	-2
477.793	1	6
478.986	1	-1
480.179	1	14
481.371	1	4
482.564	1	0
483.756	1	4
484.948	1	-3
486.141	1	-8
487.333	1	0
488.525	1	1
489.718	1	-7
490.910	1	-8
492.102	1	-5
493.294	1	5
494.486	1	1
495.678	1	8
496.870	1	3
498.062	1	-3
499.254	1	3
500.446	1	-3
501.638	1	5
502.829	1	17
504.021	1	24
505.213	1	2
506.404	1	-5
507.596	1	3
508.788	1	7
509.979	1	-3
511.171	1	11
512.362	1	1
513.553	1	-11
514.745	1	-2
515.936	1	4
517.127	1	4
518.319	1	2
519.510	1	-2
520.701	1	1
521.892	1	-3
523.083	1	-5
524.274	1	6
525.465	1	3
526.656	1	16
527.847	1	3
529.038	1	4
530.229	1	1
531.419	1	11
532.610	1	5
533.801	1	4
534.991	1	6
536.182	1	5
537.373	1	-6
538.563	1	6
539.754	1	-4
540.944	1	1
542.134	1	5
543.325	1	-2
544.515	1	2
545.705	1	14
546.896	1	9
548.086	1	13
549.276	1	14
550.466	1	-2
551.656	1	-3
552.846	1	7
554.036	1	1
555.226	1	-8
556.416	1	-4
557.606	1	-14
558.796	1	3
559.986	1	-9
561.175	1	-6
562.365	1	10
563.555	1	10
564.744	1	4
565.934	1	13
567.123	1	11
568.313	1	1
569.502	1	2
570.692	1	2
571.881	1	-1
573.070	1	11
574.260	1	3
575.449	1	14
576.638	1	1
577.827	1	5
579.016	1	-1
580.205	1	4
581.394	1	-5
582.583	1	-1
583.772	1	2
584.961	1	-1
586.150	1	13
587.339	1	2
588.528	1	10
589.717	1	0
590.905	1	0
592.094	1	10
593.283	1	8
594.471	1	-6
595.660	1	-4
596.848	1	5
598.037	1	3
599.225	1	5
600.413	1	5
601.602	1	11
602.790	1	1
603.978	1	0
605.166	1	-5
606.355	1	12
607.543	1	-3
608.731	1	-5
609.919	1	2
611.107	1	10
612.295	1	-2
613.483	1	3
614.671	1	1
615.858	1	8
617.046	1	12
618.234	1	0
619.422	1	-3
620.609	1	-1
621.797	1	5
622.985	1	5
624.172	1	12
625.360	1	-10
626.547	1	5
627.735	1	12
628.922	1	-8
630.109	1	-3
631.297	1	-4
632.484	1	-2
633.671	1	2
634.858	1	5
636.045	1	4
637.232	1	2
638.419	1	-2
639.606	1	8
640.793	1	4
641.980	1	5
643.167	1	3
644.354	1	2
645.541	1	-5
646.728	1	6
647.914	1	0
649.101	1	-6
650.288	1	6
651.474	1	2
652.661	1	4
653.847	1	5
655.034	1	2
656.220	1	10
657.406	1	9
658.593	1	-6
659.779	1	0
660.965	1	9
662.152	1	5
663.338	1	-3
664.524	1	-1
665.710	1	4
666.896	1	0
668.082	1	-4
669.268	1	2
670.454	1	-4
671.640	1	-16
672.826	1	-14
674.011	1	2
675.197	1	0
676.383	1	-9
677.569	1	-2
678.754	1	-3
679.940	1	-2
681.125	1	6
682.311	1	-2
683.496	1	1
684.682	1	6
685.867	1	5
687.053	1	-6
688.238	1	7
688.746	1	1

File: GaN_sample E_spot4_UVVIS_68 K_200um_200 ms 2x2mm1_436.txt
340.368	1	4
341.565	1	-4
342.763	1	0
343.960	1	-4
345.157	1	3
346.354	1	-6
347.552	1	8
348.749	1	-1
349.946	1	-1
351.143	1	-13
352.340	1	-1
353.537	1	1
354.734	1	0
355.931	1	6
357.127	1	7
358.324	1	-4
359.521	1	-3
360.718	1	-10
361.914	1	-6
363.111	1	9
364.308	1	-6
365.504	1	-8
366.701	1	-2
367.897	1	3
369.093	1	2
370.290	1	-7
371.486	1	12
372.682	1	4
373.879	1	15
375.075	1	6
376.271	1	1
377.467	1	-11
378.663	1	-4
379.859	1	-4
381.055	1	-3
382.251	1	2
383.447	1	8
384.643	1	16
385.839	1	4
387.035	1	-1
388.230	1	7
389.426	1	11
390.622	1	2
391.817	1	6
393.013	1	9
394.208	1	13
395.404	1	6
396.599	1	14
397.795	1	6
398.990	1	-2
400.186	1	11
401.381	1	8
402.576	1	20
403.771	1	2
404.967	1	6
406.162	1	-1
407.357	1	2
408.552	1	6
409.747	1	-5
410.942	1	3
412.137	1	23
413.332	1	-6
414.526	1	2
415.721	1	-1
416.916	1	0
418.111	1	2
419.305	1	3
420.500	1	-3
421.695	1	5
422.889	1	8
424.084	1	-1
425.278	1	0
426.472	1	-6
427.667	1	14
428.861	1	-2
430.055	1	8
431.250	1	-13
432.444	1	10
433.638	1	2
434.832	1	0
436.026	1	6
437.220	1	10
438.414	1	3
439.608	1	9
440.802	1	1
441.996	1	-1
443.190	1	-9
444.384	1	6
445.578	1	10
446.771	1	-8
447.965	1	2
449.159	1	-1
450.352	1	13
451.546	1	3
452.739	1	-2
453.933	1	7
455.126	1	-4
456.320	1	2
457.513	1	11
458.706	1	8
459.899	1	14
461.093	1	10
462.286	1	9
463.479	1	9
464.672	1	-4
465.865	1	3
467.058	1	10
468.251	1	4
469.444	1	-1
470.637	1	5
471.830	1	15
473.023	1	-4
474.215	1	-7
475.408	1	0
476.601	1	-2
477.793	1	8
478.986	1	3
480.179	1	8
481.371	1	3
482.564	1	-8
483.756	1	9
484.948	1	1
486.141	1	-7
487.333	1	7
488.525	1	-1
489.718	1	0
490.910	1	-2
492.102	1	5
493.294	1	4
494.486	1	3
495.678	1	1
496.870	1	0
498.062	1	-4
499.254	1	2
500.446	1	8
501.638	1	1
502.829	1	2
504.021	1	17
505.213	1	1
506.404	1	-4
507.596	1	5
508.788	1	3
509.979	1	-3
511.171	1	13
512.362	1	6
513.553	1	-7
514.745	1	1
515.936	1	3
517.127	1	-5
518.319	1	-6
519.510	1	6
520.701	1	13
521.892	1	-2
523.083	1	9
524.274	1	-10
525.465	1	7
526.656	1	8
527.847	1	-2
529.038	1	1
530.229	1	11
531.419	1	12
532.610	1	9
533.801	1	0
534.991	1	6
536.182	1	4
537.373	1	0
538.563	1	2
539.754	1	7
540.944	1	3
542.134	1	11
543.325	1	-3
544.515	1	10
545.705	1	5
546.896	1	3
548.086	1	14
549.276	1	8
550.466	1	-4
551.656	1	-1
552.846	1	4
554.036	1	6
555.226	1	-8
556.416	1	-2
557.606	1	1
558.796	1	6
559.986	1	-5
561.175	1	-1
562.365	1	4
563.555	1	8
564.744	1	10
565.934	1	6
567.123	1	7
568.313	1	-2
569.502	1	6
570.692	1	7
571.881	1	9
573.070	1	9
574.260	1	1
575.449	1	6
576.638	1	-4
577.827	1	14
579.016	1	16
580.205	1	1
581.394	1	1
582.583	1	-6
583.772	1	5
584.961	1	8
586.150	1	3
587.339	1	9
588.528	1	7
589.717	1	4
590.905	1	0
592.094	1	-1
593.283	1	10
594.471	1	14
595.660	1	3
596.848	1	12
598.037	1	9
599.225	1	4
600.413	1	-5
601.602	1	1
602.790	1	7
603.978	1	1
605.166	1	-11
606.355	1	-1
607.543	1	-7
608.731	1	-6
609.919	1	0
611.107	1	15
612.295	1	7
613.483	1	6
614.671	1	5
615.858	1	9
617.046	1	12
618.234	1	0
619.422	1	3
620.609	1	0
621.797	1	-5
622.985	1	1
624.172	1	15
625.360	1	5
626.547	1	4
627.735	1	0
628.922	1	-2
630.109	1	4
631.297	1	-1
632.484	1	-1
633.671	1	5
634.858	1	5
636.045	1	-3
637.232	1	3
638.419	1	7
639.606	1	13
640.793	1	2
641.980	1	3
643.167	1	9
644.354	1	0
645.541	1	3
646.728	1	2
647.914	1	4
649.101	1	1
650.288	1	-9
651.474	1	12
652.661	1	4
653.847	1	-4
655.034	1	-4
656.220	1	2
657.406	1	-1
658.593	1	-4
659.779	1	-5
660.965	1	5
662.152	1	0
663.338	1	7
664.524	1	-14
665.710	1	-4
666.896	1	4
668.082	1	-9
669.268	1	0
670.454	1	3
671.640	1	-12
672.826	1	-18
674.011	1	6
675.197	1	-3
676.383	1	-2
677.569	1	-8
678.754	1	-6
679.940	1	-1
681.125	1	-1
682.311	1	8
683.496	1	-4
684.682	1	6
685.867	1	9
687.053	1	13
688.238	1	0
688.746	1	5

File: GaN_sample E_spot4_UVVIS_68 K_200um_200 ms 2x2mm1_443.txt
340.368	1	1
341.565	1	-5
342.763	1	1
343.960	1	4
345.157	1	4
346.354	1	0
347.552	1	7
348.749	1	10
349.946	1	-2
351.143	1	-6
352.340	1	1
353.537	1	2
354.734	1	2
355.931	1	6
357.127	1	-7
358.324	1	3
359.521	1	4
360.718	1	-5
361.914	1	4
363.111	1	5
364.308	1	5
365.504	1	-5
366.701	1	1
367.897	1	1
369.093	1	6
370.290	1	-3
371.486	1	13
372.682	1	-2
373.879	1	9
375.075	1	-4
376.271	1	2
377.467	1	0
378.663	1	1
379.859	1	-5
381.055	1	-2
382.251	1	7
383.447	1	11
384.643	1	1
385.839	1	9
387.035	1	9
388.230	1	9
389.426	1	10
390.622	1	-2
391.817	1	-4
393.013	1	9
394.208	1	3
395.404	1	5
396.599	1	6
397.795	1	1
398.990	1	9
400.186	1	12
401.381	1	12
402.576	1	10
403.771	1	2
404.967	1	12
406.162	1	5
407.357	1	7
408.552	1	-1
409.747	1	-4
410.942	1	9
412.137	1	9
413.332	1	-10
414.526	1	6
415.721	1	8
416.916	1	2
418.111	1	4
419.305	1	-1
420.500	1	6
421.695	1	2
422.889	1	10
424.084	1	0
425.278	1	0
426.472	1	2
427.667	1	7
428.861	1	0
430.055	1	7
431.250	1	-17
432.444	1	7
433.638	1	4
434.832	1	-3
436.026	1	1
437.220	1	7
438.414	1	2
439.608	1	5
440.802	1	-4
441.996	1	2
443.190	1	-2
444.384	1	2
445.578	1	14
446.771	1	0
447.965	1	-12
449.159	1	-3
450.352	1	12
451.546	1	7
452.739	1	0
453.933	1	3
455.126	1	4
456.320	1	7
457.513	1	12
458.706	1	8
459.899	1	16
461.093	1	8
462.286	1	9
463.479	1	6
464.672	1	1
465.865	1	-3
467.058	1	11
468.251	1	-5
469.444	1	2
470.637	1	9
471.830	1	11
473.023	1	-2
474.215	1	-1
475.408	1	6
476.601	1	3
477.793	1	10
478.986	1	0
480.179	1	-4
481.371	1	0
482.564	1	3
483.756	1	3
484.948	1	-2
486.141	1	-7
487.333	1	-3
488.525	1	2
489.718	1	-4
490.910	1	-2
492.102	1	-1
493.294	1	9
494.486	1	1
495.678	1	15
496.870	1	2
498.062	1	-4
499.254	1	5
500.446	1	9
501.638	1	-1
502.829	1	4
504.021	1	7
505.213	1	-7
506.404	1	-5
507.596	1	9
508.788	1	4
509.979	1	-7
511.171	1	14
512.362	1	3
513.553	1	-7
514.745	1	3
515.936	1	3
517.127	1	6
518.319	1	1
519.510	1	-5
520.701	1	5
521.892	1	0
523.083	1	9
524.274	1	0
525.465	1	0
526.656	1	11
527.847	1	-3
529.038	1	6
530.229	1	5
531.419	1	8
532.610	1	2
533.801	1	5
534.991	1	-2
536.182	1	4
537.373	1	-8
538.563	1	4
539.754	1	-6
540.944	1	-7
542.134	1	17
543.325	1	-5
544.515	1	1
545.705	1	-2
546.896	1	1
548.086	1	8
549.276	1	10
550.466	1	0
551.656	1	-3
552.846	1	4
554.036	1	7
555.226	1	-4
556.416	1	4
557.606	1	-5
558.796	1	1
559.986	1	-6
561.175	1	2
562.365	1	6
563.555	1	15
564.744	1	0
565.934	1	0
567.123	1	14
568.313	1	-1
569.502	1	3
570.692	1	8
571.881	1	5
573.070	1	-1
574.260	1	-1
575.449	1	1
576.638	1	4
577.827	1	6
579.016	1	11
580.205	1	-7
581.394	1	-12
582.583	1	-6
583.772	1	7
584.961	1	0
586.150	1	-1
587.339	1	-3
588.528	1	1
589.717	1	-2
590.905	1	5
592.094	1	1
593.283	1	7
594.471	1	12
595.660	1	-2
596.848	1	11
598.037	1	3
599.225	1	5
600.413	1	1
601.602	1	14
602.790	1	-1
603.978	1	0
605.166	1	-6
606.355	1	4
607.543	1	0
608.731	1	-3
609.919	1	-5
611.107	1	0
612.295	1	-6
613.483	1	6
614.671	1	5
615.858	1	-1
617.046	1	1
618.234	1	4
619.422	1	10
620.609	1	3
621.797	1	2
622.985	1	1
624.172	1	1
625.360	1	0
626.547	1	8
627.735	1	6
628.922	1	-7
630.109	1	3
631.297	1	-2
632.484	1	-1
633.671	1	0
634.858	1	1
636.045	1	9
637.232	1	-7
638.419	1	13
639.606	1	9
640.793	1	8
641.980	1	-3
643.167	1	8
644.354	1	-3
645.541	1	-5
646.728	1	2
647.914	1	-1
649.101	1	0
650.288	1	-4
651.474	1	6
652.661	1	10
653.847	1	5
655.034	1	-3
656.220	1	9
657.406	1	10
658.593	1	-13
659.779	1	-1
660.965	1	-1
662.152	1	9
663.338	1	2
664.524	1	-15
665.710	1	-9
666.896	1	2
668.082	1	-1
669.268	1	6
670.454	1	6
671.640	1	-6
672.826	1	-14
674.011	1	5
675.197	1	-4
676.383	1	4
677.569	1	-3
678.754	1	-4
679.940	1	-3
681.125	1	8
682.311	1	-5
683.496	1	1
684.682	1	6
685.867	1	7
687.053	1	0
688.238	1	3
688.746	1	14