Folder: cryo-il_analysis/Analysis/GaN_68K_200ms (part 20)

File: GaN_sample E_spot4_UVVIS_68 K_200um_200 ms 2x2mm1_400.txt
340.368	1	5
341.565	1	-4
342.763	1	4
343.960	1	2
345.157	1	3
346.354	1	3
347.552	1	-2
348.749	1	2
349.946	1	3
351.143	1	-10
352.340	1	7
353.537	1	9
354.734	1	-10
355.931	1	12
357.127	1	1
358.324	1	4
359.521	1	1
360.718	1	-7
361.914	1	-4
363.111	1	16
364.308	1	-2
365.504	1	-2
366.701	1	1
367.897	1	6
369.093	1	9
370.290	1	-9
371.486	1	10
372.682	1	-6
373.879	1	5
375.075	1	-1
376.271	1	-2
377.467	1	-7
378.663	1	0
379.859	1	-2
381.055	1	-1
382.251	1	-1
383.447	1	8
384.643	1	12
385.839	1	16
387.035	1	5
388.230	1	1
389.426	1	9
390.622	1	-1
391.817	1	2
393.013	1	12
394.208	1	7
395.404	1	14
396.599	1	0
397.795	1	11
398.990	1	15
400.186	1	12
401.381	1	13
402.576	1	13
403.771	1	7
404.967	1	0
406.162	1	-2
407.357	1	3
408.552	1	7
409.747	1	0
410.942	1	6
412.137	1	20
413.332	1	-7
414.526	1	6
415.721	1	5
416.916	1	-4
418.111	1	-2
419.305	1	-8
420.500	1	3
421.695	1	-2
422.889	1	-2
424.084	1	9
425.278	1	-8
426.472	1	-5
427.667	1	8
428.861	1	-1
430.055	1	-1
431.250	1	-13
432.444	1	6
433.638	1	-2
434.832	1	-10
436.026	1	-3
437.220	1	10
438.414	1	3
439.608	1	2
440.802	1	-1
441.996	1	6
443.190	1	-14
444.384	1	6
445.578	1	8
446.771	1	-4
447.965	1	-1
449.159	1	0
450.352	1	11
451.546	1	2
452.739	1	6
453.933	1	7
455.126	1	6
456.320	1	0
457.513	1	11
458.706	1	-8
459.899	1	16
461.093	1	16
462.286	1	6
463.479	1	1
464.672	1	3
465.865	1	-1
467.058	1	1
468.251	1	-1
469.444	1	0
470.637	1	6
471.830	1	20
473.023	1	0
474.215	1	-5
475.408	1	-4
476.601	1	-2
477.793	1	6
478.986	1	-10
480.179	1	11
481.371	1	7
482.564	1	-10
483.756	1	16
484.948	1	-1
486.141	1	-7
487.333	1	11
488.525	1	-2
489.718	1	-9
490.910	1	-2
492.102	1	3
493.294	1	9
494.486	1	9
495.678	1	11
496.870	1	-5
498.062	1	-3
499.254	1	-2
500.446	1	15
501.638	1	0
502.829	1	3
504.021	1	23
505.213	1	0
506.404	1	-8
507.596	1	2
508.788	1	7
509.979	1	4
511.171	1	14
512.362	1	-1
513.553	1	-7
514.745	1	7
515.936	1	3
517.127	1	-6
518.319	1	0
519.510	1	5
520.701	1	2
521.892	1	0
523.083	1	8
524.274	1	10
525.465	1	-3
526.656	1	20
527.847	1	-2
529.038	1	15
530.229	1	12
531.419	1	6
532.610	1	7
533.801	1	5
534.991	1	5
536.182	1	2
537.373	1	-11
538.563	1	-1
539.754	1	-2
540.944	1	3
542.134	1	3
543.325	1	5
544.515	1	-9
545.705	1	8
546.896	1	-3
548.086	1	6
549.276	1	10
550.466	1	-5
551.656	1	-3
552.846	1	5
554.036	1	7
555.226	1	-3
556.416	1	5
557.606	1	2
558.796	1	0
559.986	1	-8
561.175	1	6
562.365	1	9
563.555	1	12
564.744	1	8
565.934	1	13
567.123	1	14
568.313	1	3
569.502	1	9
570.692	1	5
571.881	1	7
573.070	1	8
574.260	1	-7
575.449	1	0
576.638	1	6
577.827	1	9
579.016	1	18
580.205	1	4
581.394	1	2
582.583	1	-6
583.772	1	-4
584.961	1	-1
586.150	1	9
587.339	1	-2
588.528	1	6
589.717	1	0
590.905	1	7
592.094	1	1
593.283	1	15
594.471	1	6
595.660	1	4
596.848	1	4
598.037	1	-8
599.225	1	6
600.413	1	-3
601.602	1	7
602.790	1	0
603.978	1	7
605.166	1	-5
606.355	1	1
607.543	1	-10
608.731	1	-17
609.919	1	-5
611.107	1	0
612.295	1	6
613.483	1	12
614.671	1	10
615.858	1	0
617.046	1	9
618.234	1	-4
619.422	1	-1
620.609	1	-4
621.797	1	2
622.985	1	3
624.172	1	16
625.360	1	-10
626.547	1	-9
627.735	1	7
628.922	1	1
630.109	1	4
631.297	1	-8
632.484	1	3
633.671	1	-3
634.858	1	3
636.045	1	-3
637.232	1	-3
638.419	1	4
639.606	1	8
640.793	1	8
641.980	1	-3
643.167	1	9
644.354	1	4
645.541	1	-5
646.728	1	7
647.914	1	-4
649.101	1	0
650.288	1	-7
651.474	1	11
652.661	1	0
653.847	1	5
655.034	1	-2
656.220	1	8
657.406	1	7
658.593	1	-8
659.779	1	0
660.965	1	1
662.152	1	-6
663.338	1	-1
664.524	1	-3
665.710	1	2
666.896	1	0
668.082	1	-9
669.268	1	0
670.454	1	7
671.640	1	-12
672.826	1	-15
674.011	1	11
675.197	1	1
676.383	1	-2
677.569	1	3
678.754	1	-2
679.940	1	-6
681.125	1	4
682.311	1	5
683.496	1	-3
684.682	1	8
685.867	1	3
687.053	1	-1
688.238	1	4
688.746	1	-1

File: GaN_sample E_spot4_UVVIS_68 K_200um_200 ms 2x2mm1_403.txt
340.368	1	3
341.565	1	-2
342.763	1	0
343.960	1	-2
345.157	1	3
346.354	1	-4
347.552	1	0
348.749	1	0
349.946	1	5
351.143	1	-6
352.340	1	1
353.537	1	0
354.734	1	-7
355.931	1	1
357.127	1	7
358.324	1	-1
359.521	1	-3
360.718	1	3
361.914	1	-1
363.111	1	14
364.308	1	3
365.504	1	11
366.701	1	7
367.897	1	9
369.093	1	-3
370.290	1	-6
371.486	1	8
372.682	1	-3
373.879	1	2
375.075	1	14
376.271	1	-7
377.467	1	3
378.663	1	-7
379.859	1	-7
381.055	1	0
382.251	1	7
383.447	1	5
384.643	1	8
385.839	1	8
387.035	1	1
388.230	1	-2
389.426	1	21
390.622	1	2
391.817	1	-1
393.013	1	15
394.208	1	9
395.404	1	5
396.599	1	8
397.795	1	12
398.990	1	12
400.186	1	8
401.381	1	2
402.576	1	9
403.771	1	3
404.967	1	6
406.162	1	4
407.357	1	3
408.552	1	7
409.747	1	-3
410.942	1	4
412.137	1	17
413.332	1	1
414.526	1	6
415.721	1	6
416.916	1	5
418.111	1	3
419.305	1	-3
420.500	1	6
421.695	1	2
422.889	1	5
424.084	1	7
425.278	1	-7
426.472	1	-6
427.667	1	14
428.861	1	4
430.055	1	6
431.250	1	-6
432.444	1	14
433.638	1	2
434.832	1	-7
436.026	1	-1
437.220	1	12
438.414	1	0
439.608	1	-3
440.802	1	6
441.996	1	-2
443.190	1	-7
444.384	1	8
445.578	1	7
446.771	1	4
447.965	1	-10
449.159	1	10
450.352	1	6
451.546	1	3
452.739	1	-3
453.933	1	-2
455.126	1	4
456.320	1	0
457.513	1	14
458.706	1	-3
459.899	1	9
461.093	1	8
462.286	1	15
463.479	1	11
464.672	1	1
465.865	1	-7
467.058	1	9
468.251	1	-9
469.444	1	-1
470.637	1	15
471.830	1	24
473.023	1	-13
474.215	1	-5
475.408	1	4
476.601	1	4
477.793	1	13
478.986	1	-3
480.179	1	9
481.371	1	2
482.564	1	-7
483.756	1	8
484.948	1	1
486.141	1	-2
487.333	1	4
488.525	1	-1
489.718	1	-7
490.910	1	4
492.102	1	-7
493.294	1	2
494.486	1	4
495.678	1	6
496.870	1	4
498.062	1	1
499.254	1	-3
500.446	1	3
501.638	1	-4
502.829	1	-6
504.021	1	14
505.213	1	3
506.404	1	-7
507.596	1	7
508.788	1	5
509.979	1	-1
511.171	1	5
512.362	1	4
513.553	1	-3
514.745	1	-3
515.936	1	4
517.127	1	7
518.319	1	2
519.510	1	3
520.701	1	5
521.892	1	-7
523.083	1	-2
524.274	1	6
525.465	1	9
526.656	1	20
527.847	1	-2
529.038	1	-5
530.229	1	11
531.419	1	11
532.610	1	7
533.801	1	14
534.991	1	-1
536.182	1	-3
537.373	1	-2
538.563	1	-1
539.754	1	5
540.944	1	3
542.134	1	3
543.325	1	1
544.515	1	10
545.705	1	12
546.896	1	1
548.086	1	2
549.276	1	9
550.466	1	1
551.656	1	-4
552.846	1	11
554.036	1	5
555.226	1	-2
556.416	1	5
557.606	1	-2
558.796	1	6
559.986	1	-8
561.175	1	2
562.365	1	7
563.555	1	9
564.744	1	8
565.934	1	13
567.123	1	15
568.313	1	4
569.502	1	1
570.692	1	7
571.881	1	3
573.070	1	9
574.260	1	-7
575.449	1	7
576.638	1	3
577.827	1	11
579.016	1	11
580.205	1	13
581.394	1	-5
582.583	1	-5
583.772	1	0
584.961	1	8
586.150	1	-3
587.339	1	6
588.528	1	6
589.717	1	4
590.905	1	12
592.094	1	-2
593.283	1	2
594.471	1	8
595.660	1	-5
596.848	1	5
598.037	1	-4
599.225	1	3
600.413	1	3
601.602	1	9
602.790	1	-6
603.978	1	-2
605.166	1	-8
606.355	1	5
607.543	1	-5
608.731	1	-6
609.919	1	5
611.107	1	10
612.295	1	-1
613.483	1	-1
614.671	1	2
615.858	1	3
617.046	1	2
618.234	1	2
619.422	1	4
620.609	1	-3
621.797	1	0
622.985	1	10
624.172	1	14
625.360	1	0
626.547	1	4
627.735	1	8
628.922	1	3
630.109	1	0
631.297	1	-7
632.484	1	1
633.671	1	0
634.858	1	4
636.045	1	8
637.232	1	9
638.419	1	2
639.606	1	25
640.793	1	10
641.980	1	-7
643.167	1	8
644.354	1	-2
645.541	1	-11
646.728	1	11
647.914	1	1
649.101	1	-6
650.288	1	-9
651.474	1	2
652.661	1	4
653.847	1	5
655.034	1	2
656.220	1	4
657.406	1	4
658.593	1	-6
659.779	1	-4
660.965	1	7
662.152	1	0
663.338	1	1
664.524	1	-10
665.710	1	-1
666.896	1	-7
668.082	1	1
669.268	1	8
670.454	1	2
671.640	1	-13
672.826	1	-8
674.011	1	9
675.197	1	-8
676.383	1	2
677.569	1	-11
678.754	1	-9
679.940	1	1
681.125	1	7
682.311	1	0
683.496	1	-9
684.682	1	0
685.867	1	5
687.053	1	4
688.238	1	0
688.746	1	7

File: GaN_sample E_spot4_UVVIS_68 K_200um_200 ms 2x2mm1_409.txt
340.368	1	4
341.565	1	1
342.763	1	-5
343.960	1	-2
345.157	1	2
346.354	1	2
347.552	1	6
348.749	1	3
349.946	1	15
351.143	1	-1
352.340	1	-1
353.537	1	-3
354.734	1	2
355.931	1	3
357.127	1	9
358.324	1	-4
359.521	1	0
360.718	1	-2
361.914	1	-8
363.111	1	9
364.308	1	8
365.504	1	-3
366.701	1	-8
367.897	1	9
369.093	1	5
370.290	1	-5
371.486	1	17
372.682	1	4
373.879	1	10
375.075	1	5
376.271	1	-2
377.467	1	0
378.663	1	-9
379.859	1	-6
381.055	1	0
382.251	1	4
383.447	1	12
384.643	1	-1
385.839	1	6
387.035	1	4
388.230	1	5
389.426	1	15
390.622	1	11
391.817	1	2
393.013	1	17
394.208	1	14
395.404	1	2
396.599	1	6
397.795	1	4
398.990	1	15
400.186	1	9
401.381	1	12
402.576	1	14
403.771	1	-2
404.967	1	1
406.162	1	1
407.357	1	9
408.552	1	7
409.747	1	2
410.942	1	7
412.137	1	15
413.332	1	4
414.526	1	10
415.721	1	9
416.916	1	2
418.111	1	5
419.305	1	3
420.500	1	13
421.695	1	2
422.889	1	3
424.084	1	9
425.278	1	-19
426.472	1	1
427.667	1	4
428.861	1	0
430.055	1	0
431.250	1	-11
432.444	1	12
433.638	1	-1
434.832	1	-9
436.026	1	5
437.220	1	8
438.414	1	-7
439.608	1	-8
440.802	1	4
441.996	1	2
443.190	1	-3
444.384	1	5
445.578	1	18
446.771	1	-3
447.965	1	7
449.159	1	-10
450.352	1	7
451.546	1	3
452.739	1	-3
453.933	1	4
455.126	1	-5
456.320	1	8
457.513	1	10
458.706	1	4
459.899	1	8
461.093	1	12
462.286	1	13
463.479	1	12
464.672	1	-2
465.865	1	-7
467.058	1	2
468.251	1	-11
469.444	1	3
470.637	1	14
471.830	1	10
473.023	1	-3
474.215	1	6
475.408	1	-3
476.601	1	4
477.793	1	10
478.986	1	10
480.179	1	5
481.371	1	-1
482.564	1	-7
483.756	1	6
484.948	1	-2
486.141	1	-7
487.333	1	0
488.525	1	-1
489.718	1	-2
490.910	1	1
492.102	1	-5
493.294	1	4
494.486	1	12
495.678	1	7
496.870	1	-4
498.062	1	2
499.254	1	-5
500.446	1	11
501.638	1	9
502.829	1	0
504.021	1	19
505.213	1	1
506.404	1	2
507.596	1	5
508.788	1	4
509.979	1	10
511.171	1	9
512.362	1	-3
513.553	1	-7
514.745	1	-6
515.936	1	3
517.127	1	3
518.319	1	0
519.510	1	7
520.701	1	0
521.892	1	3
523.083	1	-1
524.274	1	0
525.465	1	4
526.656	1	23
527.847	1	1
529.038	1	3
530.229	1	2
531.419	1	14
532.610	1	6
533.801	1	8
534.991	1	3
536.182	1	1
537.373	1	3
538.563	1	6
539.754	1	-1
540.944	1	0
542.134	1	2
543.325	1	-5
544.515	1	3
545.705	1	6
546.896	1	10
548.086	1	5
549.276	1	5
550.466	1	-4
551.656	1	-7
552.846	1	5
554.036	1	2
555.226	1	-6
556.416	1	6
557.606	1	-5
558.796	1	-4
559.986	1	-9
561.175	1	5
562.365	1	6
563.555	1	5
564.744	1	7
565.934	1	5
567.123	1	21
568.313	1	-2
569.502	1	4
570.692	1	4
571.881	1	2
573.070	1	3
574.260	1	-2
575.449	1	0
576.638	1	0
577.827	1	12
579.016	1	12
580.205	1	9
581.394	1	-6
582.583	1	-4
583.772	1	-5
584.961	1	6
586.150	1	3
587.339	1	9
588.528	1	3
589.717	1	0
590.905	1	7
592.094	1	3
593.283	1	9
594.471	1	6
595.660	1	2
596.848	1	13
598.037	1	-1
599.225	1	2
600.413	1	-2
601.602	1	12
602.790	1	4
603.978	1	-1
605.166	1	-5
606.355	1	0
607.543	1	0
608.731	1	-17
609.919	1	-10
611.107	1	10
612.295	1	4
613.483	1	4
614.671	1	0
615.858	1	10
617.046	1	12
618.234	1	9
619.422	1	-1
620.609	1	7
621.797	1	4
622.985	1	5
624.172	1	14
625.360	1	-1
626.547	1	1
627.735	1	-1
628.922	1	0
630.109	1	3
631.297	1	-10
632.484	1	-4
633.671	1	9
634.858	1	1
636.045	1	2
637.232	1	1
638.419	1	7
639.606	1	10
640.793	1	2
641.980	1	-5
643.167	1	5
644.354	1	1
645.541	1	-11
646.728	1	5
647.914	1	-2
649.101	1	5
650.288	1	-5
651.474	1	6
652.661	1	6
653.847	1	-4
655.034	1	5
656.220	1	7
657.406	1	10
658.593	1	2
659.779	1	-4
660.965	1	0
662.152	1	6
663.338	1	0
664.524	1	-8
665.710	1	1
666.896	1	4
668.082	1	5
669.268	1	5
670.454	1	7
671.640	1	-15
672.826	1	-16
674.011	1	10
675.197	1	6
676.383	1	-11
677.569	1	4
678.754	1	6
679.940	1	1
681.125	1	7
682.311	1	9
683.496	1	-10
684.682	1	3
685.867	1	-1
687.053	1	-1
688.238	1	4
688.746	1	6

File: GaN_sample E_spot4_UVVIS_68 K_200um_200 ms 2x2mm1_411.txt
340.368	1	2
341.565	1	0
342.763	1	3
343.960	1	-2
345.157	1	8
346.354	1	1
347.552	1	5
348.749	1	-3
349.946	1	-3
351.143	1	-8
352.340	1	2
353.537	1	3
354.734	1	-11
355.931	1	4
357.127	1	-3
358.324	1	1
359.521	1	0
360.718	1	-6
361.914	1	5
363.111	1	14
364.308	1	3
365.504	1	6
366.701	1	3
367.897	1	3
369.093	1	13
370.290	1	0
371.486	1	10
372.682	1	2
373.879	1	3
375.075	1	10
376.271	1	3
377.467	1	6
378.663	1	-12
379.859	1	4
381.055	1	0
382.251	1	8
383.447	1	8
384.643	1	14
385.839	1	12
387.035	1	-1
388.230	1	18
389.426	1	19
390.622	1	2
391.817	1	4
393.013	1	8
394.208	1	14
395.404	1	14
396.599	1	13
397.795	1	1
398.990	1	10
400.186	1	16
401.381	1	14
402.576	1	18
403.771	1	10
404.967	1	11
406.162	1	4
407.357	1	0
408.552	1	2
409.747	1	3
410.942	1	12
412.137	1	6
413.332	1	3
414.526	1	3
415.721	1	5
416.916	1	4
418.111	1	5
419.305	1	7
420.500	1	9
421.695	1	5
422.889	1	-1
424.084	1	8
425.278	1	-8
426.472	1	-4
427.667	1	4
428.861	1	1
430.055	1	-1
431.250	1	-1
432.444	1	4
433.638	1	4
434.832	1	-7
436.026	1	2
437.220	1	6
438.414	1	-2
439.608	1	1
440.802	1	6
441.996	1	4
443.190	1	-10
444.384	1	0
445.578	1	13
446.771	1	3
447.965	1	-9
449.159	1	-16
450.352	1	9
451.546	1	5
452.739	1	-2
453.933	1	15
455.126	1	7
456.320	1	-4
457.513	1	9
458.706	1	-2
459.899	1	14
461.093	1	10
462.286	1	18
463.479	1	5
464.672	1	3
465.865	1	0
467.058	1	9
468.251	1	2
469.444	1	5
470.637	1	6
471.830	1	14
473.023	1	-3
474.215	1	4
475.408	1	0
476.601	1	-6
477.793	1	-4
478.986	1	-2
480.179	1	5
481.371	1	-1
482.564	1	-10
483.756	1	12
484.948	1	-7
486.141	1	-6
487.333	1	1
488.525	1	7
489.718	1	2
490.910	1	3
492.102	1	-8
493.294	1	10
494.486	1	4
495.678	1	8
496.870	1	0
498.062	1	-5
499.254	1	4
500.446	1	6
501.638	1	10
502.829	1	-3
504.021	1	23
505.213	1	3
506.404	1	-6
507.596	1	11
508.788	1	-2
509.979	1	5
511.171	1	20
512.362	1	-3
513.553	1	-7
514.745	1	2
515.936	1	14
517.127	1	3
518.319	1	4
519.510	1	6
520.701	1	2
521.892	1	4
523.083	1	2
524.274	1	4
525.465	1	5
526.656	1	16
527.847	1	-3
529.038	1	12
530.229	1	7
531.419	1	13
532.610	1	2
533.801	1	7
534.991	1	5
536.182	1	9
537.373	1	3
538.563	1	4
539.754	1	4
540.944	1	0
542.134	1	14
543.325	1	-2
544.515	1	2
545.705	1	10
546.896	1	8
548.086	1	3
549.276	1	16
550.466	1	3
551.656	1	-6
552.846	1	14
554.036	1	2
555.226	1	-1
556.416	1	11
557.606	1	-6
558.796	1	-6
559.986	1	6
561.175	1	3
562.365	1	11
563.555	1	13
564.744	1	6
565.934	1	2
567.123	1	15
568.313	1	7
569.502	1	7
570.692	1	3
571.881	1	-1
573.070	1	4
574.260	1	5
575.449	1	3
576.638	1	8
577.827	1	3
579.016	1	1
580.205	1	6
581.394	1	-5
582.583	1	-7
583.772	1	0
584.961	1	7
586.150	1	5
587.339	1	6
588.528	1	6
589.717	1	5
590.905	1	-6
592.094	1	-2
593.283	1	9
594.471	1	-3
595.660	1	-5
596.848	1	6
598.037	1	2
599.225	1	-1
600.413	1	8
601.602	1	4
602.790	1	0
603.978	1	3
605.166	1	-4
606.355	1	6
607.543	1	1
608.731	1	-5
609.919	1	-3
611.107	1	13
612.295	1	6
613.483	1	9
614.671	1	13
615.858	1	3
617.046	1	-1
618.234	1	9
619.422	1	-5
620.609	1	7
621.797	1	2
622.985	1	0
624.172	1	10
625.360	1	-5
626.547	1	1
627.735	1	11
628.922	1	7
630.109	1	-7
631.297	1	-8
632.484	1	-9
633.671	1	3
634.858	1	10
636.045	1	-3
637.232	1	1
638.419	1	4
639.606	1	17
640.793	1	4
641.980	1	3
643.167	1	7
644.354	1	2
645.541	1	-19
646.728	1	5
647.914	1	2
649.101	1	4
650.288	1	-1
651.474	1	1
652.661	1	-1
653.847	1	3
655.034	1	6
656.220	1	1
657.406	1	-2
658.593	1	-9
659.779	1	-4
660.965	1	-1
662.152	1	-3
663.338	1	-10
664.524	1	-17
665.710	1	-8
666.896	1	-4
668.082	1	2
669.268	1	-1
670.454	1	5
671.640	1	-5
672.826	1	-11
674.011	1	10
675.197	1	-4
676.383	1	5
677.569	1	3
678.754	1	-2
679.940	1	-1
681.125	1	3
682.311	1	-1
683.496	1	-9
684.682	1	16
685.867	1	10
687.053	1	4
688.238	1	5
688.746	1	-2

File: GaN_sample E_spot4_UVVIS_68 K_200um_200 ms 2x2mm1_416.txt
340.368	1	2
341.565	1	-5
342.763	1	-4
343.960	1	1
345.157	1	7
346.354	1	-1
347.552	1	1
348.749	1	7
349.946	1	8
351.143	1	-8
352.340	1	3
353.537	1	-1
354.734	1	1
355.931	1	0
357.127	1	2
358.324	1	1
359.521	1	3
360.718	1	-5
361.914	1	1
363.111	1	4
364.308	1	-3
365.504	1	-5
366.701	1	-1
367.897	1	-1
369.093	1	6
370.290	1	-1
371.486	1	12
372.682	1	-6
373.879	1	10
375.075	1	10
376.271	1	-2
377.467	1	8
378.663	1	-4
379.859	1	-3
381.055	1	5
382.251	1	3
383.447	1	8
384.643	1	14
385.839	1	12
387.035	1	-2
388.230	1	5
389.426	1	14
390.622	1	2
391.817	1	0
393.013	1	3
394.208	1	14
395.404	1	1
396.599	1	8
397.795	1	8
398.990	1	5
400.186	1	15
401.381	1	19
402.576	1	8
403.771	1	11
404.967	1	13
406.162	1	-8
407.357	1	6
408.552	1	4
409.747	1	-1
410.942	1	10
412.137	1	7
413.332	1	-1
414.526	1	4
415.721	1	8
416.916	1	3
418.111	1	5
419.305	1	-10
420.500	1	7
421.695	1	-3
422.889	1	4
424.084	1	2
425.278	1	-1
426.472	1	-4
427.667	1	15
428.861	1	3
430.055	1	5
431.250	1	-13
432.444	1	17
433.638	1	0
434.832	1	-6
436.026	1	3
437.220	1	6
438.414	1	7
439.608	1	0
440.802	1	11
441.996	1	7
443.190	1	-5
444.384	1	-3
445.578	1	8
446.771	1	-10
447.965	1	-1
449.159	1	-8
450.352	1	10
451.546	1	9
452.739	1	-4
453.933	1	8
455.126	1	8
456.320	1	4
457.513	1	11
458.706	1	1
459.899	1	9
461.093	1	10
462.286	1	19
463.479	1	8
464.672	1	5
465.865	1	-1
467.058	1	3
468.251	1	1
469.444	1	-7
470.637	1	10
471.830	1	20
473.023	1	1
474.215	1	2
475.408	1	6
476.601	1	7
477.793	1	10
478.986	1	-2
480.179	1	7
481.371	1	-1
482.564	1	-12
483.756	1	-6
484.948	1	4
486.141	1	-4
487.333	1	4
488.525	1	6
489.718	1	-3
490.910	1	-5
492.102	1	5
493.294	1	13
494.486	1	11
495.678	1	9
496.870	1	6
498.062	1	0
499.254	1	4
500.446	1	8
501.638	1	10
502.829	1	-5
504.021	1	18
505.213	1	-2
506.404	1	2
507.596	1	3
508.788	1	-3
509.979	1	-4
511.171	1	12
512.362	1	0
513.553	1	-6
514.745	1	3
515.936	1	9
517.127	1	3
518.319	1	-2
519.510	1	8
520.701	1	8
521.892	1	-1
523.083	1	-1
524.274	1	-3
525.465	1	0
526.656	1	26
527.847	1	4
529.038	1	9
530.229	1	13
531.419	1	14
532.610	1	9
533.801	1	1
534.991	1	2
536.182	1	-3
537.373	1	-7
538.563	1	9
539.754	1	3
540.944	1	-1
542.134	1	10
543.325	1	-4
544.515	1	-1
545.705	1	13
546.896	1	9
548.086	1	8
549.276	1	7
550.466	1	1
551.656	1	-5
552.846	1	9
554.036	1	13
555.226	1	0
556.416	1	6
557.606	1	2
558.796	1	-5
559.986	1	-9
561.175	1	2
562.365	1	7
563.555	1	7
564.744	1	3
565.934	1	3
567.123	1	13
568.313	1	6
569.502	1	1
570.692	1	-5
571.881	1	8
573.070	1	8
574.260	1	6
575.449	1	8
576.638	1	-1
577.827	1	2
579.016	1	7
580.205	1	15
581.394	1	2
582.583	1	-4
583.772	1	1
584.961	1	11
586.150	1	3
587.339	1	9
588.528	1	10
589.717	1	2
590.905	1	10
592.094	1	6
593.283	1	13
594.471	1	2
595.660	1	-7
596.848	1	6
598.037	1	0
599.225	1	3
600.413	1	0
601.602	1	6
602.790	1	2
603.978	1	1
605.166	1	-2
606.355	1	16
607.543	1	-6
608.731	1	1
609.919	1	-1
611.107	1	7
612.295	1	4
613.483	1	4
614.671	1	-4
615.858	1	9
617.046	1	9
618.234	1	-6
619.422	1	14
620.609	1	-5
621.797	1	1
622.985	1	6
624.172	1	15
625.360	1	-11
626.547	1	3
627.735	1	7
628.922	1	-2
630.109	1	-5
631.297	1	-6
632.484	1	-4
633.671	1	3
634.858	1	6
636.045	1	11
637.232	1	0
638.419	1	11
639.606	1	21
640.793	1	7
641.980	1	1
643.167	1	3
644.354	1	1
645.541	1	-8
646.728	1	5
647.914	1	-4
649.101	1	2
650.288	1	-3
651.474	1	-3
652.661	1	1
653.847	1	-1
655.034	1	5
656.220	1	-2
657.406	1	7
658.593	1	-6
659.779	1	2
660.965	1	7
662.152	1	2
663.338	1	-8
664.524	1	-11
665.710	1	-2
666.896	1	-3
668.082	1	-1
669.268	1	5
670.454	1	-2
671.640	1	-14
672.826	1	-7
674.011	1	4
675.197	1	0
676.383	1	2
677.569	1	-10
678.754	1	-1
679.940	1	-2
681.125	1	1
682.311	1	-4
683.496	1	-6
684.682	1	9
685.867	1	8
687.053	1	3
688.238	1	9
688.746	1	2

File: GaN_sample E_spot4_UVVIS_68 K_200um_200 ms 2x2mm1_417.txt
340.368	1	4
341.565	1	-3
342.763	1	3
343.960	1	0
345.157	1	7
346.354	1	1
347.552	1	-4
348.749	1	1
349.946	1	3
351.143	1	-2
352.340	1	1
353.537	1	2
354.734	1	-9
355.931	1	-1
357.127	1	3
358.324	1	-3
359.521	1	-1
360.718	1	3
361.914	1	0
363.111	1	17
364.308	1	-5
365.504	1	-3
366.701	1	1
367.897	1	3
369.093	1	4
370.290	1	-2
371.486	1	6
372.682	1	6
373.879	1	9
375.075	1	14
376.271	1	-5
377.467	1	-2
378.663	1	2
379.859	1	-3
381.055	1	2
382.251	1	7
383.447	1	16
384.643	1	8
385.839	1	8
387.035	1	0
388.230	1	2
389.426	1	12
390.622	1	0
391.817	1	1
393.013	1	19
394.208	1	16
395.404	1	9
396.599	1	17
397.795	1	10
398.990	1	7
400.186	1	9
401.381	1	12
402.576	1	4
403.771	1	0
404.967	1	7
406.162	1	2
407.357	1	9
408.552	1	7
409.747	1	-7
410.942	1	9
412.137	1	14
413.332	1	4
414.526	1	1
415.721	1	8
416.916	1	0
418.111	1	2
419.305	1	0
420.500	1	5
421.695	1	2
422.889	1	9
424.084	1	-3
425.278	1	-5
426.472	1	1
427.667	1	4
428.861	1	1
430.055	1	2
431.250	1	3
432.444	1	9
433.638	1	-8
434.832	1	-4
436.026	1	3
437.220	1	11
438.414	1	5
439.608	1	-4
440.802	1	10
441.996	1	-3
443.190	1	-8
444.384	1	0
445.578	1	10
446.771	1	10
447.965	1	-4
449.159	1	5
450.352	1	4
451.546	1	-1
452.739	1	3
453.933	1	12
455.126	1	2
456.320	1	-3
457.513	1	13
458.706	1	3
459.899	1	8
461.093	1	13
462.286	1	12
463.479	1	11
464.672	1	-5
465.865	1	-2
467.058	1	10
468.251	1	2
469.444	1	-7
470.637	1	6
471.830	1	10
473.023	1	-6
474.215	1	-8
475.408	1	7
476.601	1	1
477.793	1	9
478.986	1	2
480.179	1	7
481.371	1	7
482.564	1	-12
483.756	1	4
484.948	1	2
486.141	1	-10
487.333	1	0
488.525	1	-2
489.718	1	-11
490.910	1	-4
492.102	1	3
493.294	1	2
494.486	1	10
495.678	1	10
496.870	1	4
498.062	1	-3
499.254	1	-3
500.446	1	5
501.638	1	7
502.829	1	3
504.021	1	18
505.213	1	-2
506.404	1	2
507.596	1	18
508.788	1	-1
509.979	1	5
511.171	1	16
512.362	1	8
513.553	1	-8
514.745	1	5
515.936	1	15
517.127	1	10
518.319	1	-1
519.510	1	5
520.701	1	13
521.892	1	-6
523.083	1	2
524.274	1	-5
525.465	1	2
526.656	1	8
527.847	1	-6
529.038	1	8
530.229	1	10
531.419	1	17
532.610	1	11
533.801	1	1
534.991	1	1
536.182	1	6
537.373	1	-2
538.563	1	1
539.754	1	-4
540.944	1	-1
542.134	1	13
543.325	1	-1
544.515	1	4
545.705	1	5
546.896	1	8
548.086	1	5
549.276	1	8
550.466	1	5
551.656	1	-4
552.846	1	7
554.036	1	11
555.226	1	-1
556.416	1	0
557.606	1	-6
558.796	1	1
559.986	1	-1
561.175	1	2
562.365	1	5
563.555	1	6
564.744	1	11
565.934	1	13
567.123	1	12
568.313	1	-7
569.502	1	19
570.692	1	5
571.881	1	4
573.070	1	4
574.260	1	-1
575.449	1	-1
576.638	1	4
577.827	1	8
579.016	1	7
580.205	1	8
581.394	1	-3
582.583	1	-2
583.772	1	1
584.961	1	8
586.150	1	0
587.339	1	-4
588.528	1	8
589.717	1	12
590.905	1	9
592.094	1	3
593.283	1	12
594.471	1	8
595.660	1	1
596.848	1	5
598.037	1	3
599.225	1	10
600.413	1	3
601.602	1	10
602.790	1	-1
603.978	1	-6
605.166	1	-1
606.355	1	4
607.543	1	0
608.731	1	-4
609.919	1	-9
611.107	1	12
612.295	1	8
613.483	1	3
614.671	1	4
615.858	1	14
617.046	1	6
618.234	1	0
619.422	1	1
620.609	1	7
621.797	1	-1
622.985	1	1
624.172	1	13
625.360	1	-6
626.547	1	6
627.735	1	4
628.922	1	0
630.109	1	4
631.297	1	4
632.484	1	-1
633.671	1	3
634.858	1	9
636.045	1	1
637.232	1	6
638.419	1	9
639.606	1	3
640.793	1	2
641.980	1	-3
643.167	1	0
644.354	1	-2
645.541	1	-7
646.728	1	3
647.914	1	-6
649.101	1	4
650.288	1	5
651.474	1	4
652.661	1	1
653.847	1	-2
655.034	1	-4
656.220	1	0
657.406	1	-6
658.593	1	-8
659.779	1	2
660.965	1	5
662.152	1	-1
663.338	1	-8
664.524	1	-11
665.710	1	-8
666.896	1	0
668.082	1	-10
669.268	1	-5
670.454	1	-1
671.640	1	-9
672.826	1	-13
674.011	1	11
675.197	1	-5
676.383	1	1
677.569	1	-12
678.754	1	7
679.940	1	-2
681.125	1	7
682.311	1	1
683.496	1	0
684.682	1	-1
685.867	1	4
687.053	1	11
688.238	1	-3
688.746	1	0