Folder: cryo-il_analysis/Analysis/GaN_68K_200ms (part 34)

File: GaN_sample E_spot4_UVVIS_68 K_200um_200 ms 2x2mm1_804.txt
340.368	1	2
341.565	1	-9
342.763	1	-10
343.960	1	0
345.157	1	-2
346.354	1	-3
347.552	1	-2
348.749	1	-2
349.946	1	3
351.143	1	-9
352.340	1	-6
353.537	1	4
354.734	1	-8
355.931	1	-6
357.127	1	2
358.324	1	-3
359.521	1	3
360.718	1	-6
361.914	1	3
363.111	1	7
364.308	1	3
365.504	1	1
366.701	1	-2
367.897	1	3
369.093	1	2
370.290	1	-3
371.486	1	7
372.682	1	-5
373.879	1	-7
375.075	1	4
376.271	1	-5
377.467	1	7
378.663	1	2
379.859	1	-5
381.055	1	-6
382.251	1	-1
383.447	1	0
384.643	1	2
385.839	1	2
387.035	1	3
388.230	1	-3
389.426	1	5
390.622	1	-7
391.817	1	-9
393.013	1	5
394.208	1	6
395.404	1	3
396.599	1	8
397.795	1	2
398.990	1	6
400.186	1	9
401.381	1	3
402.576	1	17
403.771	1	4
404.967	1	2
406.162	1	-4
407.357	1	5
408.552	1	6
409.747	1	-2
410.942	1	-2
412.137	1	14
413.332	1	-2
414.526	1	4
415.721	1	2
416.916	1	0
418.111	1	0
419.305	1	2
420.500	1	2
421.695	1	3
422.889	1	0
424.084	1	-1
425.278	1	-13
426.472	1	2
427.667	1	7
428.861	1	0
430.055	1	2
431.250	1	-14
432.444	1	7
433.638	1	-2
434.832	1	1
436.026	1	-2
437.220	1	9
438.414	1	4
439.608	1	-7
440.802	1	-5
441.996	1	1
443.190	1	-13
444.384	1	-3
445.578	1	5
446.771	1	-12
447.965	1	-1
449.159	1	-6
450.352	1	10
451.546	1	11
452.739	1	-4
453.933	1	5
455.126	1	-1
456.320	1	3
457.513	1	8
458.706	1	-2
459.899	1	7
461.093	1	2
462.286	1	21
463.479	1	4
464.672	1	-5
465.865	1	0
467.058	1	2
468.251	1	3
469.444	1	-2
470.637	1	15
471.830	1	5
473.023	1	-8
474.215	1	-6
475.408	1	3
476.601	1	-7
477.793	1	8
478.986	1	3
480.179	1	2
481.371	1	-5
482.564	1	-8
483.756	1	6
484.948	1	-9
486.141	1	-6
487.333	1	10
488.525	1	-1
489.718	1	-8
490.910	1	-5
492.102	1	-8
493.294	1	2
494.486	1	2
495.678	1	11
496.870	1	-2
498.062	1	-3
499.254	1	4
500.446	1	3
501.638	1	-8
502.829	1	5
504.021	1	15
505.213	1	-5
506.404	1	6
507.596	1	4
508.788	1	-3
509.979	1	-4
511.171	1	10
512.362	1	2
513.553	1	-2
514.745	1	12
515.936	1	0
517.127	1	13
518.319	1	5
519.510	1	-4
520.701	1	-4
521.892	1	-10
523.083	1	-2
524.274	1	-10
525.465	1	-5
526.656	1	18
527.847	1	-3
529.038	1	9
530.229	1	0
531.419	1	3
532.610	1	5
533.801	1	-3
534.991	1	0
536.182	1	1
537.373	1	0
538.563	1	-6
539.754	1	-3
540.944	1	-9
542.134	1	11
543.325	1	-3
544.515	1	5
545.705	1	10
546.896	1	-2
548.086	1	5
549.276	1	7
550.466	1	-1
551.656	1	-6
552.846	1	-2
554.036	1	4
555.226	1	-3
556.416	1	11
557.606	1	1
558.796	1	-5
559.986	1	-7
561.175	1	-5
562.365	1	2
563.555	1	18
564.744	1	-12
565.934	1	3
567.123	1	14
568.313	1	-2
569.502	1	7
570.692	1	0
571.881	1	7
573.070	1	2
574.260	1	-3
575.449	1	3
576.638	1	-5
577.827	1	6
579.016	1	22
580.205	1	4
581.394	1	2
582.583	1	-3
583.772	1	0
584.961	1	7
586.150	1	-1
587.339	1	0
588.528	1	10
589.717	1	5
590.905	1	7
592.094	1	-1
593.283	1	4
594.471	1	-3
595.660	1	-7
596.848	1	7
598.037	1	-9
599.225	1	4
600.413	1	-3
601.602	1	1
602.790	1	-3
603.978	1	10
605.166	1	-10
606.355	1	10
607.543	1	-1
608.731	1	-9
609.919	1	-3
611.107	1	3
612.295	1	1
613.483	1	3
614.671	1	4
615.858	1	7
617.046	1	5
618.234	1	4
619.422	1	-1
620.609	1	1
621.797	1	-2
622.985	1	1
624.172	1	16
625.360	1	-10
626.547	1	6
627.735	1	8
628.922	1	6
630.109	1	-1
631.297	1	-4
632.484	1	-3
633.671	1	-1
634.858	1	5
636.045	1	-3
637.232	1	4
638.419	1	7
639.606	1	21
640.793	1	-5
641.980	1	-5
643.167	1	1
644.354	1	3
645.541	1	-2
646.728	1	2
647.914	1	-2
649.101	1	-2
650.288	1	-8
651.474	1	5
652.661	1	2
653.847	1	6
655.034	1	5
656.220	1	7
657.406	1	5
658.593	1	0
659.779	1	1
660.965	1	-1
662.152	1	2
663.338	1	-9
664.524	1	-9
665.710	1	-4
666.896	1	1
668.082	1	-1
669.268	1	-3
670.454	1	-7
671.640	1	-18
672.826	1	-16
674.011	1	2
675.197	1	-6
676.383	1	-2
677.569	1	-1
678.754	1	-11
679.940	1	-1
681.125	1	4
682.311	1	0
683.496	1	-6
684.682	1	3
685.867	1	-2
687.053	1	5
688.238	1	-1
688.746	1	7

File: GaN_sample E_spot4_UVVIS_68 K_200um_200 ms 2x2mm1_805.txt
340.368	1	7
341.565	1	-8
342.763	1	-7
343.960	1	5
345.157	1	10
346.354	1	-9
347.552	1	0
348.749	1	-8
349.946	1	5
351.143	1	-2
352.340	1	-1
353.537	1	-3
354.734	1	-5
355.931	1	4
357.127	1	2
358.324	1	-2
359.521	1	5
360.718	1	-11
361.914	1	0
363.111	1	9
364.308	1	-2
365.504	1	-8
366.701	1	-2
367.897	1	7
369.093	1	-3
370.290	1	-1
371.486	1	5
372.682	1	-11
373.879	1	9
375.075	1	0
376.271	1	-7
377.467	1	-2
378.663	1	4
379.859	1	-2
381.055	1	8
382.251	1	0
383.447	1	5
384.643	1	1
385.839	1	-3
387.035	1	-4
388.230	1	6
389.426	1	3
390.622	1	-2
391.817	1	-11
393.013	1	4
394.208	1	3
395.404	1	6
396.599	1	7
397.795	1	1
398.990	1	7
400.186	1	12
401.381	1	5
402.576	1	8
403.771	1	6
404.967	1	-3
406.162	1	-1
407.357	1	-1
408.552	1	-1
409.747	1	0
410.942	1	-7
412.137	1	7
413.332	1	-1
414.526	1	5
415.721	1	-5
416.916	1	-6
418.111	1	-7
419.305	1	-1
420.500	1	-1
421.695	1	4
422.889	1	8
424.084	1	-2
425.278	1	-4
426.472	1	-8
427.667	1	9
428.861	1	-4
430.055	1	3
431.250	1	-10
432.444	1	3
433.638	1	3
434.832	1	-9
436.026	1	2
437.220	1	6
438.414	1	0
439.608	1	6
440.802	1	-1
441.996	1	-1
443.190	1	-1
444.384	1	8
445.578	1	9
446.771	1	1
447.965	1	-2
449.159	1	-9
450.352	1	5
451.546	1	1
452.739	1	-3
453.933	1	0
455.126	1	-5
456.320	1	-5
457.513	1	7
458.706	1	1
459.899	1	0
461.093	1	-1
462.286	1	10
463.479	1	7
464.672	1	-5
465.865	1	-4
467.058	1	9
468.251	1	-7
469.444	1	-1
470.637	1	14
471.830	1	11
473.023	1	1
474.215	1	4
475.408	1	10
476.601	1	-8
477.793	1	5
478.986	1	-8
480.179	1	2
481.371	1	2
482.564	1	-6
483.756	1	10
484.948	1	-4
486.141	1	-10
487.333	1	0
488.525	1	-6
489.718	1	-7
490.910	1	1
492.102	1	2
493.294	1	-2
494.486	1	6
495.678	1	2
496.870	1	2
498.062	1	-7
499.254	1	0
500.446	1	-1
501.638	1	5
502.829	1	1
504.021	1	19
505.213	1	-9
506.404	1	-5
507.596	1	7
508.788	1	-11
509.979	1	-8
511.171	1	20
512.362	1	-10
513.553	1	2
514.745	1	2
515.936	1	-1
517.127	1	2
518.319	1	-11
519.510	1	6
520.701	1	-4
521.892	1	-9
523.083	1	-4
524.274	1	-5
525.465	1	3
526.656	1	10
527.847	1	-2
529.038	1	9
530.229	1	5
531.419	1	10
532.610	1	7
533.801	1	8
534.991	1	1
536.182	1	-4
537.373	1	-9
538.563	1	-1
539.754	1	-9
540.944	1	-1
542.134	1	6
543.325	1	1
544.515	1	1
545.705	1	5
546.896	1	-1
548.086	1	-3
549.276	1	3
550.466	1	-3
551.656	1	-20
552.846	1	-1
554.036	1	10
555.226	1	-19
556.416	1	2
557.606	1	-5
558.796	1	-8
559.986	1	-6
561.175	1	2
562.365	1	2
563.555	1	8
564.744	1	3
565.934	1	11
567.123	1	10
568.313	1	0
569.502	1	3
570.692	1	4
571.881	1	11
573.070	1	-5
574.260	1	-5
575.449	1	5
576.638	1	5
577.827	1	1
579.016	1	9
580.205	1	-2
581.394	1	-10
582.583	1	-7
583.772	1	-2
584.961	1	-8
586.150	1	0
587.339	1	3
588.528	1	9
589.717	1	-3
590.905	1	7
592.094	1	9
593.283	1	0
594.471	1	2
595.660	1	3
596.848	1	12
598.037	1	2
599.225	1	4
600.413	1	-5
601.602	1	5
602.790	1	4
603.978	1	-4
605.166	1	-7
606.355	1	0
607.543	1	-8
608.731	1	-5
609.919	1	-10
611.107	1	0
612.295	1	-5
613.483	1	3
614.671	1	-6
615.858	1	8
617.046	1	4
618.234	1	6
619.422	1	-5
620.609	1	0
621.797	1	-3
622.985	1	-3
624.172	1	14
625.360	1	-11
626.547	1	-1
627.735	1	-1
628.922	1	-3
630.109	1	2
631.297	1	-4
632.484	1	-8
633.671	1	-1
634.858	1	9
636.045	1	2
637.232	1	-4
638.419	1	10
639.606	1	11
640.793	1	4
641.980	1	5
643.167	1	7
644.354	1	-2
645.541	1	-14
646.728	1	-2
647.914	1	-2
649.101	1	-3
650.288	1	3
651.474	1	7
652.661	1	6
653.847	1	-4
655.034	1	5
656.220	1	2
657.406	1	6
658.593	1	-1
659.779	1	0
660.965	1	-3
662.152	1	0
663.338	1	-2
664.524	1	-14
665.710	1	-2
666.896	1	-6
668.082	1	-7
669.268	1	2
670.454	1	1
671.640	1	-5
672.826	1	-15
674.011	1	5
675.197	1	-4
676.383	1	-5
677.569	1	-2
678.754	1	-4
679.940	1	-6
681.125	1	1
682.311	1	-4
683.496	1	-12
684.682	1	4
685.867	1	-1
687.053	1	3
688.238	1	2
688.746	1	-4

File: GaN_sample E_spot4_UVVIS_68 K_200um_200 ms 2x2mm1_809.txt
340.368	1	-1
341.565	1	-7
342.763	1	-6
343.960	1	-2
345.157	1	8
346.354	1	-1
347.552	1	-1
348.749	1	0
349.946	1	1
351.143	1	1
352.340	1	-6
353.537	1	-3
354.734	1	0
355.931	1	-2
357.127	1	0
358.324	1	-2
359.521	1	2
360.718	1	-3
361.914	1	-9
363.111	1	7
364.308	1	-1
365.504	1	-6
366.701	1	-20
367.897	1	-4
369.093	1	1
370.290	1	-2
371.486	1	2
372.682	1	-9
373.879	1	10
375.075	1	2
376.271	1	-4
377.467	1	-12
378.663	1	-2
379.859	1	-5
381.055	1	-2
382.251	1	2
383.447	1	4
384.643	1	7
385.839	1	9
387.035	1	-4
388.230	1	-4
389.426	1	0
390.622	1	-7
391.817	1	-3
393.013	1	12
394.208	1	13
395.404	1	14
396.599	1	-2
397.795	1	1
398.990	1	3
400.186	1	12
401.381	1	6
402.576	1	6
403.771	1	-7
404.967	1	5
406.162	1	-5
407.357	1	7
408.552	1	7
409.747	1	-8
410.942	1	3
412.137	1	7
413.332	1	-7
414.526	1	1
415.721	1	0
416.916	1	-4
418.111	1	2
419.305	1	2
420.500	1	1
421.695	1	0
422.889	1	1
424.084	1	-3
425.278	1	-7
426.472	1	2
427.667	1	4
428.861	1	0
430.055	1	0
431.250	1	-5
432.444	1	1
433.638	1	6
434.832	1	-10
436.026	1	0
437.220	1	5
438.414	1	1
439.608	1	-3
440.802	1	3
441.996	1	-3
443.190	1	-5
444.384	1	0
445.578	1	10
446.771	1	-10
447.965	1	-13
449.159	1	-7
450.352	1	-2
451.546	1	2
452.739	1	5
453.933	1	-4
455.126	1	-6
456.320	1	3
457.513	1	7
458.706	1	6
459.899	1	11
461.093	1	4
462.286	1	6
463.479	1	7
464.672	1	0
465.865	1	-7
467.058	1	9
468.251	1	1
469.444	1	-4
470.637	1	10
471.830	1	16
473.023	1	-6
474.215	1	-7
475.408	1	3
476.601	1	0
477.793	1	2
478.986	1	4
480.179	1	2
481.371	1	2
482.564	1	-8
483.756	1	5
484.948	1	-4
486.141	1	-15
487.333	1	11
488.525	1	-1
489.718	1	-13
490.910	1	-5
492.102	1	-2
493.294	1	7
494.486	1	4
495.678	1	4
496.870	1	-7
498.062	1	2
499.254	1	0
500.446	1	10
501.638	1	-5
502.829	1	5
504.021	1	15
505.213	1	-2
506.404	1	-9
507.596	1	3
508.788	1	-4
509.979	1	0
511.171	1	9
512.362	1	3
513.553	1	-6
514.745	1	-10
515.936	1	3
517.127	1	5
518.319	1	10
519.510	1	1
520.701	1	3
521.892	1	-12
523.083	1	-5
524.274	1	-1
525.465	1	2
526.656	1	17
527.847	1	-7
529.038	1	5
530.229	1	-2
531.419	1	1
532.610	1	-3
533.801	1	8
534.991	1	-4
536.182	1	3
537.373	1	1
538.563	1	-11
539.754	1	0
540.944	1	-2
542.134	1	11
543.325	1	1
544.515	1	-3
545.705	1	7
546.896	1	-7
548.086	1	5
549.276	1	4
550.466	1	-5
551.656	1	-2
552.846	1	-1
554.036	1	0
555.226	1	-13
556.416	1	4
557.606	1	-11
558.796	1	-5
559.986	1	-8
561.175	1	7
562.365	1	-4
563.555	1	3
564.744	1	-1
565.934	1	5
567.123	1	14
568.313	1	-1
569.502	1	-3
570.692	1	0
571.881	1	1
573.070	1	9
574.260	1	-7
575.449	1	6
576.638	1	9
577.827	1	9
579.016	1	15
580.205	1	8
581.394	1	-4
582.583	1	-3
583.772	1	-5
584.961	1	-3
586.150	1	2
587.339	1	2
588.528	1	-2
589.717	1	6
590.905	1	7
592.094	1	3
593.283	1	1
594.471	1	2
595.660	1	-6
596.848	1	2
598.037	1	4
599.225	1	-8
600.413	1	1
601.602	1	13
602.790	1	-2
603.978	1	-5
605.166	1	-10
606.355	1	-4
607.543	1	-9
608.731	1	-11
609.919	1	-8
611.107	1	-1
612.295	1	-2
613.483	1	6
614.671	1	-3
615.858	1	4
617.046	1	6
618.234	1	0
619.422	1	3
620.609	1	0
621.797	1	1
622.985	1	2
624.172	1	9
625.360	1	-10
626.547	1	6
627.735	1	2
628.922	1	-4
630.109	1	-10
631.297	1	-6
632.484	1	-6
633.671	1	-2
634.858	1	5
636.045	1	5
637.232	1	-1
638.419	1	8
639.606	1	16
640.793	1	6
641.980	1	-2
643.167	1	5
644.354	1	-2
645.541	1	-7
646.728	1	4
647.914	1	-5
649.101	1	1
650.288	1	-7
651.474	1	-6
652.661	1	1
653.847	1	-1
655.034	1	4
656.220	1	15
657.406	1	-2
658.593	1	-6
659.779	1	-10
660.965	1	-6
662.152	1	4
663.338	1	4
664.524	1	1
665.710	1	4
666.896	1	-1
668.082	1	4
669.268	1	-1
670.454	1	-6
671.640	1	-8
672.826	1	-21
674.011	1	8
675.197	1	-4
676.383	1	-4
677.569	1	-7
678.754	1	-5
679.940	1	5
681.125	1	4
682.311	1	0
683.496	1	-6
684.682	1	7
685.867	1	-2
687.053	1	4
688.238	1	-1
688.746	1	5

File: GaN_sample E_spot4_UVVIS_68 K_200um_200 ms 2x2mm1_811.txt
340.368	1	-6
341.565	1	-10
342.763	1	2
343.960	1	-4
345.157	1	6
346.354	1	-6
347.552	1	0
348.749	1	-3
349.946	1	4
351.143	1	-11
352.340	1	0
353.537	1	-3
354.734	1	2
355.931	1	-3
357.127	1	-14
358.324	1	5
359.521	1	-2
360.718	1	-7
361.914	1	8
363.111	1	14
364.308	1	-3
365.504	1	-10
366.701	1	-10
367.897	1	0
369.093	1	-3
370.290	1	1
371.486	1	6
372.682	1	1
373.879	1	4
375.075	1	2
376.271	1	-2
377.467	1	-14
378.663	1	-4
379.859	1	-6
381.055	1	-4
382.251	1	9
383.447	1	11
384.643	1	8
385.839	1	0
387.035	1	-2
388.230	1	-3
389.426	1	16
390.622	1	-4
391.817	1	-8
393.013	1	7
394.208	1	1
395.404	1	15
396.599	1	3
397.795	1	8
398.990	1	6
400.186	1	8
401.381	1	8
402.576	1	15
403.771	1	1
404.967	1	-3
406.162	1	-2
407.357	1	16
408.552	1	1
409.747	1	-4
410.942	1	3
412.137	1	6
413.332	1	2
414.526	1	7
415.721	1	3
416.916	1	4
418.111	1	-1
419.305	1	1
420.500	1	3
421.695	1	7
422.889	1	1
424.084	1	6
425.278	1	-10
426.472	1	-9
427.667	1	5
428.861	1	4
430.055	1	-5
431.250	1	-8
432.444	1	-1
433.638	1	-1
434.832	1	-6
436.026	1	9
437.220	1	2
438.414	1	3
439.608	1	8
440.802	1	-2
441.996	1	-7
443.190	1	-7
444.384	1	-1
445.578	1	7
446.771	1	2
447.965	1	-5
449.159	1	-1
450.352	1	8
451.546	1	5
452.739	1	-1
453.933	1	6
455.126	1	3
456.320	1	-2
457.513	1	0
458.706	1	2
459.899	1	9
461.093	1	3
462.286	1	3
463.479	1	8
464.672	1	-6
465.865	1	-9
467.058	1	8
468.251	1	-7
469.444	1	-9
470.637	1	10
471.830	1	10
473.023	1	-5
474.215	1	-9
475.408	1	-2
476.601	1	4
477.793	1	10
478.986	1	3
480.179	1	4
481.371	1	-3
482.564	1	-11
483.756	1	8
484.948	1	-11
486.141	1	-11
487.333	1	4
488.525	1	-7
489.718	1	-8
490.910	1	-1
492.102	1	-6
493.294	1	2
494.486	1	2
495.678	1	8
496.870	1	4
498.062	1	-7
499.254	1	-5
500.446	1	0
501.638	1	-9
502.829	1	1
504.021	1	18
505.213	1	-8
506.404	1	-5
507.596	1	-3
508.788	1	-3
509.979	1	3
511.171	1	9
512.362	1	1
513.553	1	-6
514.745	1	-12
515.936	1	2
517.127	1	-7
518.319	1	1
519.510	1	0
520.701	1	-3
521.892	1	-2
523.083	1	-11
524.274	1	-4
525.465	1	7
526.656	1	20
527.847	1	-8
529.038	1	3
530.229	1	5
531.419	1	11
532.610	1	1
533.801	1	-3
534.991	1	4
536.182	1	0
537.373	1	-9
538.563	1	-4
539.754	1	-7
540.944	1	-1
542.134	1	-2
543.325	1	0
544.515	1	-4
545.705	1	4
546.896	1	11
548.086	1	6
549.276	1	6
550.466	1	-8
551.656	1	-3
552.846	1	-4
554.036	1	1
555.226	1	0
556.416	1	-2
557.606	1	-11
558.796	1	-3
559.986	1	-1
561.175	1	3
562.365	1	-5
563.555	1	6
564.744	1	6
565.934	1	13
567.123	1	13
568.313	1	1
569.502	1	4
570.692	1	1
571.881	1	3
573.070	1	4
574.260	1	1
575.449	1	6
576.638	1	-8
577.827	1	1
579.016	1	5
580.205	1	-3
581.394	1	3
582.583	1	-10
583.772	1	2
584.961	1	2
586.150	1	0
587.339	1	4
588.528	1	1
589.717	1	-7
590.905	1	8
592.094	1	-5
593.283	1	7
594.471	1	1
595.660	1	-11
596.848	1	-7
598.037	1	1
599.225	1	6
600.413	1	-5
601.602	1	6
602.790	1	5
603.978	1	-7
605.166	1	-9
606.355	1	10
607.543	1	-14
608.731	1	-7
609.919	1	-6
611.107	1	4
612.295	1	9
613.483	1	2
614.671	1	6
615.858	1	7
617.046	1	-1
618.234	1	2
619.422	1	5
620.609	1	3
621.797	1	3
622.985	1	-5
624.172	1	9
625.360	1	-1
626.547	1	5
627.735	1	6
628.922	1	3
630.109	1	3
631.297	1	0
632.484	1	1
633.671	1	-5
634.858	1	9
636.045	1	0
637.232	1	-9
638.419	1	1
639.606	1	9
640.793	1	-2
641.980	1	-5
643.167	1	4
644.354	1	-3
645.541	1	-10
646.728	1	6
647.914	1	-2
649.101	1	9
650.288	1	-12
651.474	1	-1
652.661	1	-6
653.847	1	8
655.034	1	-1
656.220	1	4
657.406	1	-1
658.593	1	-5
659.779	1	-1
660.965	1	6
662.152	1	4
663.338	1	-5
664.524	1	-4
665.710	1	-9
666.896	1	-3
668.082	1	0
669.268	1	0
670.454	1	0
671.640	1	-7
672.826	1	-14
674.011	1	3
675.197	1	-14
676.383	1	-1
677.569	1	-8
678.754	1	-2
679.940	1	-1
681.125	1	6
682.311	1	1
683.496	1	-2
684.682	1	7
685.867	1	3
687.053	1	12
688.238	1	-3
688.746	1	1

File: GaN_sample E_spot4_UVVIS_68 K_200um_200 ms 2x2mm1_813.txt
340.368	1	1
341.565	1	-9
342.763	1	2
343.960	1	-6
345.157	1	4
346.354	1	-3
347.552	1	5
348.749	1	1
349.946	1	4
351.143	1	-9
352.340	1	-1
353.537	1	-4
354.734	1	3
355.931	1	-3
357.127	1	5
358.324	1	0
359.521	1	3
360.718	1	-6
361.914	1	-4
363.111	1	2
364.308	1	-1
365.504	1	1
366.701	1	0
367.897	1	-2
369.093	1	5
370.290	1	-6
371.486	1	10
372.682	1	-8
373.879	1	3
375.075	1	14
376.271	1	8
377.467	1	-1
378.663	1	-7
379.859	1	-8
381.055	1	5
382.251	1	9
383.447	1	7
384.643	1	2
385.839	1	10
387.035	1	-3
388.230	1	-6
389.426	1	-4
390.622	1	-5
391.817	1	-2
393.013	1	5
394.208	1	3
395.404	1	4
396.599	1	0
397.795	1	2
398.990	1	2
400.186	1	5
401.381	1	1
402.576	1	6
403.771	1	4
404.967	1	7
406.162	1	-5
407.357	1	4
408.552	1	4
409.747	1	-1
410.942	1	8
412.137	1	8
413.332	1	-4
414.526	1	3
415.721	1	-2
416.916	1	-11
418.111	1	2
419.305	1	8
420.500	1	9
421.695	1	5
422.889	1	1
424.084	1	11
425.278	1	-18
426.472	1	-12
427.667	1	10
428.861	1	1
430.055	1	-5
431.250	1	-13
432.444	1	1
433.638	1	-1
434.832	1	-1
436.026	1	9
437.220	1	7
438.414	1	3
439.608	1	6
440.802	1	3
441.996	1	6
443.190	1	-2
444.384	1	2
445.578	1	1
446.771	1	-3
447.965	1	-11
449.159	1	-9
450.352	1	3
451.546	1	-2
452.739	1	-9
453.933	1	0
455.126	1	-5
456.320	1	1
457.513	1	8
458.706	1	-1
459.899	1	0
461.093	1	10
462.286	1	9
463.479	1	8
464.672	1	5
465.865	1	-4
467.058	1	12
468.251	1	-2
469.444	1	1
470.637	1	6
471.830	1	10
473.023	1	-16
474.215	1	-6
475.408	1	-2
476.601	1	2
477.793	1	5
478.986	1	-1
480.179	1	-2
481.371	1	-4
482.564	1	-13
483.756	1	8
484.948	1	-4
486.141	1	-5
487.333	1	2
488.525	1	-1
489.718	1	-5
490.910	1	-7
492.102	1	-6
493.294	1	14
494.486	1	10
495.678	1	7
496.870	1	-4
498.062	1	-6
499.254	1	0
500.446	1	5
501.638	1	11
502.829	1	0
504.021	1	9
505.213	1	-6
506.404	1	-1
507.596	1	4
508.788	1	-5
509.979	1	-4
511.171	1	15
512.362	1	3
513.553	1	-11
514.745	1	-10
515.936	1	-5
517.127	1	4
518.319	1	-9
519.510	1	-1
520.701	1	4
521.892	1	-13
523.083	1	5
524.274	1	-12
525.465	1	-3
526.656	1	22
527.847	1	-15
529.038	1	1
530.229	1	6
531.419	1	7
532.610	1	-3
533.801	1	5
534.991	1	-8
536.182	1	-3
537.373	1	-4
538.563	1	5
539.754	1	-5
540.944	1	-3
542.134	1	4
543.325	1	-1
544.515	1	-8
545.705	1	3
546.896	1	-6
548.086	1	-4
549.276	1	5
550.466	1	-6
551.656	1	-15
552.846	1	5
554.036	1	-6
555.226	1	-7
556.416	1	-3
557.606	1	-11
558.796	1	-1
559.986	1	-6
561.175	1	-2
562.365	1	1
563.555	1	8
564.744	1	4
565.934	1	3
567.123	1	14
568.313	1	-2
569.502	1	5
570.692	1	1
571.881	1	4
573.070	1	7
574.260	1	4
575.449	1	4
576.638	1	-3
577.827	1	17
579.016	1	8
580.205	1	4
581.394	1	3
582.583	1	-5
583.772	1	-4
584.961	1	3
586.150	1	4
587.339	1	2
588.528	1	0
589.717	1	-9
590.905	1	6
592.094	1	2
593.283	1	7
594.471	1	4
595.660	1	3
596.848	1	6
598.037	1	-1
599.225	1	-4
600.413	1	-2
601.602	1	10
602.790	1	1
603.978	1	-2
605.166	1	-13
606.355	1	4
607.543	1	-1
608.731	1	-8
609.919	1	2
611.107	1	9
612.295	1	-4
613.483	1	1
614.671	1	2
615.858	1	6
617.046	1	3
618.234	1	0
619.422	1	-1
620.609	1	-5
621.797	1	-1
622.985	1	0
624.172	1	5
625.360	1	-12
626.547	1	0
627.735	1	5
628.922	1	-5
630.109	1	-10
631.297	1	-4
632.484	1	4
633.671	1	-2
634.858	1	2
636.045	1	-2
637.232	1	-9
638.419	1	11
639.606	1	9
640.793	1	6
641.980	1	-7
643.167	1	6
644.354	1	-4
645.541	1	-3
646.728	1	-7
647.914	1	1
649.101	1	1
650.288	1	-8
651.474	1	-2
652.661	1	3
653.847	1	-1
655.034	1	-7
656.220	1	-5
657.406	1	1
658.593	1	-9
659.779	1	-8
660.965	1	-5
662.152	1	-4
663.338	1	-4
664.524	1	-15
665.710	1	-5
666.896	1	-5
668.082	1	-7
669.268	1	-4
670.454	1	-2
671.640	1	-17
672.826	1	-14
674.011	1	6
675.197	1	-9
676.383	1	1
677.569	1	-5
678.754	1	2
679.940	1	-2
681.125	1	-2
682.311	1	-2
683.496	1	-8
684.682	1	6
685.867	1	3
687.053	1	10
688.238	1	3
688.746	1	5

File: GaN_sample E_spot4_UVVIS_68 K_200um_200 ms 2x2mm1_815.txt
340.368	1	-4
341.565	1	-2
342.763	1	-4
343.960	1	-4
345.157	1	4
346.354	1	-2
347.552	1	1
348.749	1	-1
349.946	1	-2
351.143	1	-14
352.340	1	-3
353.537	1	2
354.734	1	-3
355.931	1	1
357.127	1	-4
358.324	1	5
359.521	1	-1
360.718	1	0
361.914	1	0
363.111	1	8
364.308	1	0
365.504	1	-8
366.701	1	-13
367.897	1	2
369.093	1	6
370.290	1	-3
371.486	1	16
372.682	1	-8
373.879	1	6
375.075	1	18
376.271	1	-4
377.467	1	-7
378.663	1	-9
379.859	1	1
381.055	1	7
382.251	1	-6
383.447	1	11
384.643	1	8
385.839	1	11
387.035	1	1
388.230	1	-2
389.426	1	12
390.622	1	-6
391.817	1	-5
393.013	1	8
394.208	1	-1
395.404	1	2
396.599	1	8
397.795	1	1
398.990	1	0
400.186	1	4
401.381	1	9
402.576	1	8
403.771	1	-2
404.967	1	0
406.162	1	-1
407.357	1	6
408.552	1	2
409.747	1	0
410.942	1	10
412.137	1	12
413.332	1	-1
414.526	1	3
415.721	1	-5
416.916	1	-1
418.111	1	-2
419.305	1	-1
420.500	1	-3
421.695	1	1
422.889	1	1
424.084	1	-3
425.278	1	-9
426.472	1	-4
427.667	1	4
428.861	1	-3
430.055	1	1
431.250	1	-2
432.444	1	4
433.638	1	-3
434.832	1	-10
436.026	1	-4
437.220	1	9
438.414	1	6
439.608	1	2
440.802	1	5
441.996	1	-6
443.190	1	-14
444.384	1	7
445.578	1	7
446.771	1	3
447.965	1	-13
449.159	1	3
450.352	1	11
451.546	1	2
452.739	1	-10
453.933	1	1
455.126	1	4
456.320	1	0
457.513	1	4
458.706	1	8
459.899	1	3
461.093	1	6
462.286	1	4
463.479	1	8
464.672	1	1
465.865	1	3
467.058	1	10
468.251	1	-12
469.444	1	-6
470.637	1	9
471.830	1	4
473.023	1	-10
474.215	1	-7
475.408	1	0
476.601	1	-5
477.793	1	-1
478.986	1	-6
480.179	1	1
481.371	1	-8
482.564	1	-10
483.756	1	6
484.948	1	-4
486.141	1	-12
487.333	1	9
488.525	1	-8
489.718	1	1
490.910	1	-7
492.102	1	0
493.294	1	3
494.486	1	2
495.678	1	8
496.870	1	0
498.062	1	-5
499.254	1	2
500.446	1	9
501.638	1	5
502.829	1	0
504.021	1	12
505.213	1	1
506.404	1	-10
507.596	1	9
508.788	1	6
509.979	1	1
511.171	1	9
512.362	1	0
513.553	1	-9
514.745	1	-7
515.936	1	-2
517.127	1	-6
518.319	1	-12
519.510	1	-4
520.701	1	0
521.892	1	-12
523.083	1	-1
524.274	1	-5
525.465	1	9
526.656	1	14
527.847	1	-12
529.038	1	8
530.229	1	-2
531.419	1	3
532.610	1	-4
533.801	1	9
534.991	1	2
536.182	1	-2
537.373	1	-5
538.563	1	3
539.754	1	-4
540.944	1	-3
542.134	1	4
543.325	1	-1
544.515	1	-6
545.705	1	2
546.896	1	-6
548.086	1	3
549.276	1	2
550.466	1	-2
551.656	1	-3
552.846	1	7
554.036	1	1
555.226	1	-5
556.416	1	1
557.606	1	-11
558.796	1	-3
559.986	1	-2
561.175	1	3
562.365	1	2
563.555	1	3
564.744	1	6
565.934	1	4
567.123	1	17
568.313	1	-7
569.502	1	7
570.692	1	-3
571.881	1	4
573.070	1	-1
574.260	1	-5
575.449	1	-6
576.638	1	13
577.827	1	6
579.016	1	10
580.205	1	7
581.394	1	-1
582.583	1	-5
583.772	1	-1
584.961	1	3
586.150	1	-2
587.339	1	1
588.528	1	11
589.717	1	1
590.905	1	-3
592.094	1	-2
593.283	1	7
594.471	1	4
595.660	1	-10
596.848	1	5
598.037	1	5
599.225	1	-1
600.413	1	-3
601.602	1	2
602.790	1	3
603.978	1	-1
605.166	1	-5
606.355	1	15
607.543	1	-14
608.731	1	-10
609.919	1	-1
611.107	1	9
612.295	1	6
613.483	1	3
614.671	1	5
615.858	1	4
617.046	1	-1
618.234	1	4
619.422	1	-1
620.609	1	-10
621.797	1	-2
622.985	1	0
624.172	1	15
625.360	1	-9
626.547	1	-3
627.735	1	0
628.922	1	-11
630.109	1	-4
631.297	1	-7
632.484	1	-5
633.671	1	-9
634.858	1	2
636.045	1	-4
637.232	1	-2
638.419	1	6
639.606	1	5
640.793	1	12
641.980	1	-8
643.167	1	9
644.354	1	-1
645.541	1	-11
646.728	1	4
647.914	1	-6
649.101	1	0
650.288	1	-11
651.474	1	9
652.661	1	-1
653.847	1	10
655.034	1	1
656.220	1	4
657.406	1	5
658.593	1	-9
659.779	1	0
660.965	1	4
662.152	1	4
663.338	1	-10
664.524	1	0
665.710	1	-9
666.896	1	-6
668.082	1	-1
669.268	1	4
670.454	1	6
671.640	1	-21
672.826	1	-13
674.011	1	3
675.197	1	-9
676.383	1	0
677.569	1	-2
678.754	1	-5
679.940	1	-8
681.125	1	9
682.311	1	-12
683.496	1	0
684.682	1	12
685.867	1	7
687.053	1	9
688.238	1	1
688.746	1	1