Folder: cryo-il_analysis/Analysis/GaN_68K_200ms (part 7)

File: GaN_sample E_spot4_UVVIS_68 K_200um_200 ms 2x2mm1_168.txt
340.368	1	13
341.565	1	-4
342.763	1	3
343.960	1	-3
345.157	1	4
346.354	1	0
347.552	1	6
348.749	1	12
349.946	1	13
351.143	1	-2
352.340	1	-1
353.537	1	0
354.734	1	12
355.931	1	1
357.127	1	10
358.324	1	10
359.521	1	4
360.718	1	9
361.914	1	10
363.111	1	25
364.308	1	32
365.504	1	20
366.701	1	39
367.897	1	31
369.093	1	41
370.290	1	16
371.486	1	17
372.682	1	9
373.879	1	30
375.075	1	9
376.271	1	7
377.467	1	7
378.663	1	4
379.859	1	15
381.055	1	14
382.251	1	24
383.447	1	32
384.643	1	32
385.839	1	42
387.035	1	40
388.230	1	47
389.426	1	44
390.622	1	26
391.817	1	37
393.013	1	40
394.208	1	40
395.404	1	36
396.599	1	34
397.795	1	31
398.990	1	35
400.186	1	37
401.381	1	35
402.576	1	32
403.771	1	27
404.967	1	34
406.162	1	20
407.357	1	17
408.552	1	26
409.747	1	25
410.942	1	19
412.137	1	25
413.332	1	16
414.526	1	19
415.721	1	24
416.916	1	21
418.111	1	15
419.305	1	15
420.500	1	24
421.695	1	16
422.889	1	19
424.084	1	18
425.278	1	11
426.472	1	6
427.667	1	25
428.861	1	17
430.055	1	15
431.250	1	5
432.444	1	13
433.638	1	7
434.832	1	2
436.026	1	4
437.220	1	20
438.414	1	14
439.608	1	9
440.802	1	14
441.996	1	2
443.190	1	2
444.384	1	17
445.578	1	17
446.771	1	9
447.965	1	8
449.159	1	-2
450.352	1	17
451.546	1	21
452.739	1	7
453.933	1	11
455.126	1	8
456.320	1	6
457.513	1	8
458.706	1	6
459.899	1	15
461.093	1	9
462.286	1	15
463.479	1	21
464.672	1	9
465.865	1	-5
467.058	1	10
468.251	1	5
469.444	1	1
470.637	1	20
471.830	1	16
473.023	1	-2
474.215	1	0
475.408	1	11
476.601	1	6
477.793	1	13
478.986	1	3
480.179	1	10
481.371	1	8
482.564	1	-12
483.756	1	14
484.948	1	1
486.141	1	5
487.333	1	6
488.525	1	8
489.718	1	4
490.910	1	6
492.102	1	5
493.294	1	17
494.486	1	12
495.678	1	18
496.870	1	17
498.062	1	6
499.254	1	14
500.446	1	25
501.638	1	14
502.829	1	12
504.021	1	31
505.213	1	17
506.404	1	11
507.596	1	24
508.788	1	21
509.979	1	12
511.171	1	32
512.362	1	22
513.553	1	13
514.745	1	23
515.936	1	25
517.127	1	22
518.319	1	28
519.510	1	33
520.701	1	33
521.892	1	23
523.083	1	23
524.274	1	22
525.465	1	24
526.656	1	41
527.847	1	23
529.038	1	32
530.229	1	37
531.419	1	34
532.610	1	18
533.801	1	32
534.991	1	32
536.182	1	37
537.373	1	20
538.563	1	29
539.754	1	16
540.944	1	31
542.134	1	22
543.325	1	25
544.515	1	28
545.705	1	35
546.896	1	22
548.086	1	26
549.276	1	38
550.466	1	8
551.656	1	26
552.846	1	28
554.036	1	29
555.226	1	17
556.416	1	24
557.606	1	0
558.796	1	15
559.986	1	14
561.175	1	21
562.365	1	10
563.555	1	22
564.744	1	21
565.934	1	17
567.123	1	21
568.313	1	8
569.502	1	16
570.692	1	19
571.881	1	26
573.070	1	23
574.260	1	16
575.449	1	15
576.638	1	7
577.827	1	19
579.016	1	18
580.205	1	17
581.394	1	8
582.583	1	2
583.772	1	14
584.961	1	8
586.150	1	12
587.339	1	12
588.528	1	16
589.717	1	16
590.905	1	8
592.094	1	3
593.283	1	9
594.471	1	6
595.660	1	-2
596.848	1	17
598.037	1	13
599.225	1	3
600.413	1	8
601.602	1	11
602.790	1	14
603.978	1	7
605.166	1	3
606.355	1	13
607.543	1	4
608.731	1	8
609.919	1	3
611.107	1	15
612.295	1	6
613.483	1	8
614.671	1	6
615.858	1	10
617.046	1	5
618.234	1	-1
619.422	1	7
620.609	1	5
621.797	1	0
622.985	1	2
624.172	1	16
625.360	1	4
626.547	1	4
627.735	1	7
628.922	1	2
630.109	1	3
631.297	1	-3
632.484	1	5
633.671	1	4
634.858	1	3
636.045	1	9
637.232	1	2
638.419	1	13
639.606	1	18
640.793	1	8
641.980	1	8
643.167	1	19
644.354	1	4
645.541	1	7
646.728	1	14
647.914	1	2
649.101	1	-2
650.288	1	-2
651.474	1	11
652.661	1	3
653.847	1	11
655.034	1	6
656.220	1	3
657.406	1	18
658.593	1	-7
659.779	1	2
660.965	1	2
662.152	1	6
663.338	1	-4
664.524	1	-4
665.710	1	2
666.896	1	-1
668.082	1	1
669.268	1	0
670.454	1	0
671.640	1	-8
672.826	1	-10
674.011	1	3
675.197	1	2
676.383	1	6
677.569	1	-3
678.754	1	3
679.940	1	9
681.125	1	8
682.311	1	4
683.496	1	9
684.682	1	7
685.867	1	1
687.053	1	6
688.238	1	3
688.746	1	4

File: GaN_sample E_spot4_UVVIS_68 K_200um_200 ms 2x2mm1_171.txt
340.368	1	0
341.565	1	-3
342.763	1	4
343.960	1	-1
345.157	1	14
346.354	1	7
347.552	1	1
348.749	1	10
349.946	1	7
351.143	1	-9
352.340	1	9
353.537	1	1
354.734	1	3
355.931	1	9
357.127	1	10
358.324	1	3
359.521	1	10
360.718	1	10
361.914	1	15
363.111	1	25
364.308	1	10
365.504	1	31
366.701	1	29
367.897	1	39
369.093	1	31
370.290	1	25
371.486	1	31
372.682	1	16
373.879	1	29
375.075	1	20
376.271	1	14
377.467	1	9
378.663	1	7
379.859	1	8
381.055	1	16
382.251	1	24
383.447	1	24
384.643	1	40
385.839	1	40
387.035	1	44
388.230	1	47
389.426	1	48
390.622	1	38
391.817	1	38
393.013	1	46
394.208	1	52
395.404	1	54
396.599	1	46
397.795	1	42
398.990	1	41
400.186	1	47
401.381	1	42
402.576	1	30
403.771	1	28
404.967	1	22
406.162	1	26
407.357	1	32
408.552	1	28
409.747	1	17
410.942	1	28
412.137	1	23
413.332	1	20
414.526	1	23
415.721	1	21
416.916	1	16
418.111	1	20
419.305	1	20
420.500	1	21
421.695	1	11
422.889	1	23
424.084	1	11
425.278	1	1
426.472	1	20
427.667	1	19
428.861	1	15
430.055	1	9
431.250	1	3
432.444	1	19
433.638	1	9
434.832	1	5
436.026	1	19
437.220	1	22
438.414	1	9
439.608	1	9
440.802	1	13
441.996	1	0
443.190	1	6
444.384	1	12
445.578	1	15
446.771	1	3
447.965	1	5
449.159	1	7
450.352	1	15
451.546	1	12
452.739	1	-1
453.933	1	17
455.126	1	0
456.320	1	2
457.513	1	16
458.706	1	5
459.899	1	14
461.093	1	16
462.286	1	14
463.479	1	12
464.672	1	13
465.865	1	-2
467.058	1	14
468.251	1	9
469.444	1	11
470.637	1	23
471.830	1	19
473.023	1	6
474.215	1	-3
475.408	1	4
476.601	1	9
477.793	1	7
478.986	1	6
480.179	1	10
481.371	1	4
482.564	1	-4
483.756	1	17
484.948	1	4
486.141	1	5
487.333	1	11
488.525	1	4
489.718	1	-5
490.910	1	-3
492.102	1	13
493.294	1	15
494.486	1	14
495.678	1	8
496.870	1	8
498.062	1	7
499.254	1	9
500.446	1	27
501.638	1	18
502.829	1	16
504.021	1	28
505.213	1	12
506.404	1	9
507.596	1	18
508.788	1	20
509.979	1	17
511.171	1	26
512.362	1	19
513.553	1	21
514.745	1	22
515.936	1	24
517.127	1	27
518.319	1	21
519.510	1	26
520.701	1	33
521.892	1	17
523.083	1	16
524.274	1	28
525.465	1	22
526.656	1	45
527.847	1	16
529.038	1	34
530.229	1	25
531.419	1	41
532.610	1	31
533.801	1	30
534.991	1	32
536.182	1	26
537.373	1	19
538.563	1	43
539.754	1	23
540.944	1	22
542.134	1	34
543.325	1	17
544.515	1	18
545.705	1	25
546.896	1	25
548.086	1	25
549.276	1	32
550.466	1	15
551.656	1	23
552.846	1	19
554.036	1	28
555.226	1	16
556.416	1	22
557.606	1	7
558.796	1	20
559.986	1	18
561.175	1	11
562.365	1	18
563.555	1	22
564.744	1	17
565.934	1	21
567.123	1	29
568.313	1	-1
569.502	1	21
570.692	1	15
571.881	1	13
573.070	1	11
574.260	1	10
575.449	1	26
576.638	1	11
577.827	1	16
579.016	1	29
580.205	1	14
581.394	1	7
582.583	1	4
583.772	1	9
584.961	1	19
586.150	1	8
587.339	1	19
588.528	1	10
589.717	1	15
590.905	1	15
592.094	1	9
593.283	1	18
594.471	1	9
595.660	1	2
596.848	1	16
598.037	1	7
599.225	1	8
600.413	1	10
601.602	1	11
602.790	1	10
603.978	1	12
605.166	1	7
606.355	1	21
607.543	1	-9
608.731	1	2
609.919	1	4
611.107	1	11
612.295	1	13
613.483	1	5
614.671	1	5
615.858	1	1
617.046	1	12
618.234	1	15
619.422	1	-4
620.609	1	6
621.797	1	9
622.985	1	9
624.172	1	22
625.360	1	-8
626.547	1	10
627.735	1	-2
628.922	1	-3
630.109	1	10
631.297	1	1
632.484	1	8
633.671	1	4
634.858	1	12
636.045	1	11
637.232	1	2
638.419	1	9
639.606	1	9
640.793	1	9
641.980	1	-1
643.167	1	10
644.354	1	-8
645.541	1	5
646.728	1	8
647.914	1	-7
649.101	1	0
650.288	1	-4
651.474	1	6
652.661	1	4
653.847	1	3
655.034	1	10
656.220	1	14
657.406	1	12
658.593	1	-2
659.779	1	-3
660.965	1	13
662.152	1	4
663.338	1	0
664.524	1	1
665.710	1	0
666.896	1	-3
668.082	1	5
669.268	1	-4
670.454	1	10
671.640	1	-6
672.826	1	-6
674.011	1	8
675.197	1	-5
676.383	1	-2
677.569	1	-8
678.754	1	1
679.940	1	4
681.125	1	6
682.311	1	12
683.496	1	3
684.682	1	8
685.867	1	9
687.053	1	8
688.238	1	6
688.746	1	11

File: GaN_sample E_spot4_UVVIS_68 K_200um_200 ms 2x2mm1_172.txt
340.368	1	1
341.565	1	-3
342.763	1	13
343.960	1	1
345.157	1	11
346.354	1	-4
347.552	1	-2
348.749	1	3
349.946	1	4
351.143	1	-5
352.340	1	8
353.537	1	3
354.734	1	4
355.931	1	9
357.127	1	10
358.324	1	4
359.521	1	6
360.718	1	3
361.914	1	16
363.111	1	28
364.308	1	24
365.504	1	23
366.701	1	24
367.897	1	43
369.093	1	47
370.290	1	30
371.486	1	32
372.682	1	16
373.879	1	27
375.075	1	28
376.271	1	16
377.467	1	21
378.663	1	14
379.859	1	7
381.055	1	13
382.251	1	24
383.447	1	27
384.643	1	40
385.839	1	52
387.035	1	33
388.230	1	52
389.426	1	50
390.622	1	27
391.817	1	48
393.013	1	44
394.208	1	38
395.404	1	50
396.599	1	36
397.795	1	34
398.990	1	44
400.186	1	44
401.381	1	34
402.576	1	46
403.771	1	28
404.967	1	27
406.162	1	18
407.357	1	37
408.552	1	20
409.747	1	22
410.942	1	23
412.137	1	24
413.332	1	16
414.526	1	16
415.721	1	21
416.916	1	18
418.111	1	22
419.305	1	12
420.500	1	20
421.695	1	19
422.889	1	18
424.084	1	11
425.278	1	9
426.472	1	16
427.667	1	20
428.861	1	14
430.055	1	7
431.250	1	-5
432.444	1	29
433.638	1	12
434.832	1	-1
436.026	1	12
437.220	1	18
438.414	1	5
439.608	1	10
440.802	1	11
441.996	1	9
443.190	1	2
444.384	1	11
445.578	1	11
446.771	1	-1
447.965	1	8
449.159	1	-4
450.352	1	17
451.546	1	15
452.739	1	10
453.933	1	6
455.126	1	9
456.320	1	5
457.513	1	6
458.706	1	6
459.899	1	17
461.093	1	13
462.286	1	8
463.479	1	19
464.672	1	9
465.865	1	-3
467.058	1	10
468.251	1	3
469.444	1	3
470.637	1	13
471.830	1	18
473.023	1	-1
474.215	1	6
475.408	1	6
476.601	1	0
477.793	1	9
478.986	1	2
480.179	1	3
481.371	1	4
482.564	1	6
483.756	1	10
484.948	1	1
486.141	1	6
487.333	1	8
488.525	1	6
489.718	1	5
490.910	1	0
492.102	1	2
493.294	1	15
494.486	1	9
495.678	1	14
496.870	1	8
498.062	1	11
499.254	1	6
500.446	1	19
501.638	1	14
502.829	1	14
504.021	1	41
505.213	1	9
506.404	1	21
507.596	1	24
508.788	1	21
509.979	1	15
511.171	1	23
512.362	1	21
513.553	1	7
514.745	1	20
515.936	1	17
517.127	1	34
518.319	1	21
519.510	1	28
520.701	1	23
521.892	1	22
523.083	1	21
524.274	1	20
525.465	1	31
526.656	1	44
527.847	1	28
529.038	1	35
530.229	1	37
531.419	1	35
532.610	1	30
533.801	1	36
534.991	1	25
536.182	1	29
537.373	1	20
538.563	1	24
539.754	1	18
540.944	1	20
542.134	1	36
543.325	1	21
544.515	1	30
545.705	1	27
546.896	1	16
548.086	1	35
549.276	1	22
550.466	1	25
551.656	1	22
552.846	1	21
554.036	1	25
555.226	1	11
556.416	1	30
557.606	1	15
558.796	1	20
559.986	1	25
561.175	1	12
562.365	1	17
563.555	1	20
564.744	1	23
565.934	1	19
567.123	1	31
568.313	1	7
569.502	1	18
570.692	1	24
571.881	1	16
573.070	1	16
574.260	1	7
575.449	1	13
576.638	1	4
577.827	1	15
579.016	1	20
580.205	1	8
581.394	1	6
582.583	1	5
583.772	1	16
584.961	1	15
586.150	1	9
587.339	1	8
588.528	1	14
589.717	1	8
590.905	1	4
592.094	1	12
593.283	1	16
594.471	1	14
595.660	1	8
596.848	1	11
598.037	1	17
599.225	1	9
600.413	1	8
601.602	1	10
602.790	1	7
603.978	1	8
605.166	1	4
606.355	1	4
607.543	1	-4
608.731	1	-1
609.919	1	4
611.107	1	8
612.295	1	12
613.483	1	11
614.671	1	-1
615.858	1	11
617.046	1	1
618.234	1	4
619.422	1	0
620.609	1	3
621.797	1	-1
622.985	1	11
624.172	1	19
625.360	1	-7
626.547	1	6
627.735	1	6
628.922	1	-2
630.109	1	4
631.297	1	-3
632.484	1	5
633.671	1	3
634.858	1	12
636.045	1	6
637.232	1	0
638.419	1	15
639.606	1	16
640.793	1	12
641.980	1	-1
643.167	1	17
644.354	1	1
645.541	1	-5
646.728	1	0
647.914	1	3
649.101	1	3
650.288	1	10
651.474	1	5
652.661	1	4
653.847	1	1
655.034	1	4
656.220	1	14
657.406	1	4
658.593	1	-8
659.779	1	3
660.965	1	12
662.152	1	0
663.338	1	0
664.524	1	-6
665.710	1	-4
666.896	1	3
668.082	1	6
669.268	1	7
670.454	1	7
671.640	1	-6
672.826	1	-13
674.011	1	7
675.197	1	4
676.383	1	6
677.569	1	5
678.754	1	10
679.940	1	0
681.125	1	5
682.311	1	6
683.496	1	-5
684.682	1	7
685.867	1	-1
687.053	1	8
688.238	1	10
688.746	1	-3

File: GaN_sample E_spot4_UVVIS_68 K_200um_200 ms 2x2mm1_173.txt
340.368	1	3
341.565	1	-1
342.763	1	-1
343.960	1	1
345.157	1	14
346.354	1	-2
347.552	1	1
348.749	1	7
349.946	1	10
351.143	1	-12
352.340	1	0
353.537	1	13
354.734	1	3
355.931	1	15
357.127	1	8
358.324	1	7
359.521	1	9
360.718	1	8
361.914	1	9
363.111	1	33
364.308	1	20
365.504	1	26
366.701	1	11
367.897	1	36
369.093	1	37
370.290	1	16
371.486	1	23
372.682	1	13
373.879	1	24
375.075	1	25
376.271	1	13
377.467	1	9
378.663	1	11
379.859	1	8
381.055	1	15
382.251	1	10
383.447	1	28
384.643	1	38
385.839	1	30
387.035	1	30
388.230	1	37
389.426	1	42
390.622	1	28
391.817	1	24
393.013	1	40
394.208	1	36
395.404	1	38
396.599	1	30
397.795	1	36
398.990	1	35
400.186	1	38
401.381	1	34
402.576	1	24
403.771	1	27
404.967	1	24
406.162	1	20
407.357	1	18
408.552	1	33
409.747	1	30
410.942	1	23
412.137	1	30
413.332	1	19
414.526	1	10
415.721	1	27
416.916	1	18
418.111	1	13
419.305	1	11
420.500	1	19
421.695	1	11
422.889	1	19
424.084	1	20
425.278	1	7
426.472	1	15
427.667	1	29
428.861	1	10
430.055	1	7
431.250	1	4
432.444	1	18
433.638	1	18
434.832	1	8
436.026	1	6
437.220	1	13
438.414	1	8
439.608	1	11
440.802	1	11
441.996	1	14
443.190	1	-6
444.384	1	14
445.578	1	13
446.771	1	13
447.965	1	3
449.159	1	4
450.352	1	17
451.546	1	7
452.739	1	7
453.933	1	13
455.126	1	3
456.320	1	7
457.513	1	22
458.706	1	8
459.899	1	12
461.093	1	16
462.286	1	12
463.479	1	16
464.672	1	6
465.865	1	7
467.058	1	23
468.251	1	-2
469.444	1	5
470.637	1	22
471.830	1	14
473.023	1	11
474.215	1	3
475.408	1	10
476.601	1	12
477.793	1	4
478.986	1	-3
480.179	1	1
481.371	1	9
482.564	1	-4
483.756	1	7
484.948	1	2
486.141	1	3
487.333	1	6
488.525	1	2
489.718	1	6
490.910	1	9
492.102	1	6
493.294	1	9
494.486	1	11
495.678	1	19
496.870	1	5
498.062	1	13
499.254	1	13
500.446	1	17
501.638	1	12
502.829	1	14
504.021	1	21
505.213	1	18
506.404	1	4
507.596	1	19
508.788	1	15
509.979	1	7
511.171	1	15
512.362	1	24
513.553	1	13
514.745	1	15
515.936	1	17
517.127	1	22
518.319	1	18
519.510	1	12
520.701	1	26
521.892	1	11
523.083	1	23
524.274	1	13
525.465	1	30
526.656	1	29
527.847	1	31
529.038	1	28
530.229	1	26
531.419	1	33
532.610	1	35
533.801	1	31
534.991	1	22
536.182	1	24
537.373	1	23
538.563	1	18
539.754	1	15
540.944	1	25
542.134	1	27
543.325	1	19
544.515	1	15
545.705	1	30
546.896	1	25
548.086	1	26
549.276	1	31
550.466	1	18
551.656	1	18
552.846	1	17
554.036	1	28
555.226	1	5
556.416	1	24
557.606	1	15
558.796	1	13
559.986	1	14
561.175	1	10
562.365	1	19
563.555	1	21
564.744	1	18
565.934	1	20
567.123	1	28
568.313	1	5
569.502	1	16
570.692	1	14
571.881	1	16
573.070	1	6
574.260	1	9
575.449	1	14
576.638	1	8
577.827	1	18
579.016	1	23
580.205	1	8
581.394	1	12
582.583	1	10
583.772	1	10
584.961	1	10
586.150	1	6
587.339	1	19
588.528	1	10
589.717	1	4
590.905	1	10
592.094	1	8
593.283	1	17
594.471	1	2
595.660	1	1
596.848	1	13
598.037	1	6
599.225	1	1
600.413	1	10
601.602	1	8
602.790	1	9
603.978	1	7
605.166	1	0
606.355	1	11
607.543	1	-6
608.731	1	0
609.919	1	0
611.107	1	19
612.295	1	5
613.483	1	15
614.671	1	12
615.858	1	4
617.046	1	5
618.234	1	9
619.422	1	18
620.609	1	11
621.797	1	0
622.985	1	4
624.172	1	22
625.360	1	4
626.547	1	8
627.735	1	5
628.922	1	2
630.109	1	3
631.297	1	5
632.484	1	4
633.671	1	5
634.858	1	17
636.045	1	2
637.232	1	9
638.419	1	10
639.606	1	17
640.793	1	5
641.980	1	-5
643.167	1	20
644.354	1	15
645.541	1	2
646.728	1	1
647.914	1	0
649.101	1	3
650.288	1	-3
651.474	1	13
652.661	1	10
653.847	1	11
655.034	1	16
656.220	1	10
657.406	1	13
658.593	1	1
659.779	1	4
660.965	1	6
662.152	1	5
663.338	1	2
664.524	1	0
665.710	1	5
666.896	1	-3
668.082	1	2
669.268	1	2
670.454	1	2
671.640	1	0
672.826	1	-5
674.011	1	2
675.197	1	2
676.383	1	12
677.569	1	3
678.754	1	1
679.940	1	-1
681.125	1	8
682.311	1	1
683.496	1	2
684.682	1	8
685.867	1	4
687.053	1	5
688.238	1	6
688.746	1	4

File: GaN_sample E_spot4_UVVIS_68 K_200um_200 ms 2x2mm1_174.txt
340.368	1	6
341.565	1	-3
342.763	1	-1
343.960	1	1
345.157	1	12
346.354	1	5
347.552	1	8
348.749	1	3
349.946	1	16
351.143	1	-8
352.340	1	2
353.537	1	6
354.734	1	1
355.931	1	8
357.127	1	12
358.324	1	13
359.521	1	11
360.718	1	16
361.914	1	3
363.111	1	20
364.308	1	22
365.504	1	31
366.701	1	38
367.897	1	33
369.093	1	16
370.290	1	24
371.486	1	31
372.682	1	14
373.879	1	26
375.075	1	27
376.271	1	18
377.467	1	-1
378.663	1	10
379.859	1	10
381.055	1	13
382.251	1	20
383.447	1	26
384.643	1	30
385.839	1	23
387.035	1	32
388.230	1	43
389.426	1	44
390.622	1	32
391.817	1	34
393.013	1	37
394.208	1	25
395.404	1	41
396.599	1	33
397.795	1	34
398.990	1	33
400.186	1	38
401.381	1	24
402.576	1	26
403.771	1	31
404.967	1	23
406.162	1	21
407.357	1	21
408.552	1	24
409.747	1	23
410.942	1	22
412.137	1	19
413.332	1	15
414.526	1	21
415.721	1	15
416.916	1	9
418.111	1	10
419.305	1	14
420.500	1	23
421.695	1	17
422.889	1	12
424.084	1	15
425.278	1	4
426.472	1	9
427.667	1	19
428.861	1	17
430.055	1	14
431.250	1	1
432.444	1	22
433.638	1	4
434.832	1	9
436.026	1	11
437.220	1	5
438.414	1	14
439.608	1	7
440.802	1	13
441.996	1	6
443.190	1	-4
444.384	1	5
445.578	1	15
446.771	1	10
447.965	1	-3
449.159	1	-5
450.352	1	20
451.546	1	6
452.739	1	1
453.933	1	16
455.126	1	5
456.320	1	10
457.513	1	12
458.706	1	20
459.899	1	16
461.093	1	8
462.286	1	17
463.479	1	11
464.672	1	5
465.865	1	0
467.058	1	12
468.251	1	9
469.444	1	4
470.637	1	17
471.830	1	23
473.023	1	3
474.215	1	8
475.408	1	5
476.601	1	0
477.793	1	16
478.986	1	7
480.179	1	9
481.371	1	3
482.564	1	-5
483.756	1	13
484.948	1	0
486.141	1	0
487.333	1	18
488.525	1	-3
489.718	1	2
490.910	1	4
492.102	1	0
493.294	1	13
494.486	1	10
495.678	1	20
496.870	1	13
498.062	1	10
499.254	1	16
500.446	1	19
501.638	1	10
502.829	1	18
504.021	1	31
505.213	1	13
506.404	1	16
507.596	1	29
508.788	1	23
509.979	1	21
511.171	1	28
512.362	1	14
513.553	1	8
514.745	1	12
515.936	1	24
517.127	1	23
518.319	1	22
519.510	1	18
520.701	1	24
521.892	1	17
523.083	1	16
524.274	1	21
525.465	1	25
526.656	1	39
527.847	1	19
529.038	1	20
530.229	1	32
531.419	1	30
532.610	1	22
533.801	1	25
534.991	1	33
536.182	1	24
537.373	1	11
538.563	1	30
539.754	1	25
540.944	1	19
542.134	1	29
543.325	1	23
544.515	1	25
545.705	1	25
546.896	1	27
548.086	1	24
549.276	1	24
550.466	1	17
551.656	1	12
552.846	1	17
554.036	1	20
555.226	1	12
556.416	1	10
557.606	1	13
558.796	1	11
559.986	1	15
561.175	1	11
562.365	1	13
563.555	1	25
564.744	1	14
565.934	1	18
567.123	1	31
568.313	1	6
569.502	1	13
570.692	1	13
571.881	1	12
573.070	1	18
574.260	1	7
575.449	1	11
576.638	1	13
577.827	1	11
579.016	1	21
580.205	1	8
581.394	1	5
582.583	1	4
583.772	1	12
584.961	1	8
586.150	1	8
587.339	1	12
588.528	1	14
589.717	1	7
590.905	1	7
592.094	1	3
593.283	1	18
594.471	1	10
595.660	1	6
596.848	1	11
598.037	1	11
599.225	1	13
600.413	1	-3
601.602	1	17
602.790	1	-1
603.978	1	11
605.166	1	-1
606.355	1	12
607.543	1	1
608.731	1	3
609.919	1	-5
611.107	1	9
612.295	1	8
613.483	1	7
614.671	1	11
615.858	1	18
617.046	1	6
618.234	1	5
619.422	1	2
620.609	1	0
621.797	1	4
622.985	1	12
624.172	1	19
625.360	1	-6
626.547	1	17
627.735	1	8
628.922	1	-3
630.109	1	8
631.297	1	8
632.484	1	-6
633.671	1	4
634.858	1	15
636.045	1	1
637.232	1	-1
638.419	1	2
639.606	1	8
640.793	1	12
641.980	1	-1
643.167	1	17
644.354	1	4
645.541	1	7
646.728	1	4
647.914	1	1
649.101	1	2
650.288	1	9
651.474	1	12
652.661	1	9
653.847	1	7
655.034	1	0
656.220	1	6
657.406	1	6
658.593	1	2
659.779	1	5
660.965	1	4
662.152	1	6
663.338	1	0
664.524	1	-1
665.710	1	8
666.896	1	3
668.082	1	-1
669.268	1	6
670.454	1	3
671.640	1	-11
672.826	1	-9
674.011	1	10
675.197	1	11
676.383	1	-6
677.569	1	-8
678.754	1	3
679.940	1	-2
681.125	1	10
682.311	1	12
683.496	1	-5
684.682	1	-1
685.867	1	3
687.053	1	12
688.238	1	5
688.746	1	11

File: GaN_sample E_spot4_UVVIS_68 K_200um_200 ms 2x2mm1_175.txt
340.368	1	3
341.565	1	3
342.763	1	-10
343.960	1	0
345.157	1	7
346.354	1	3
347.552	1	1
348.749	1	12
349.946	1	10
351.143	1	-1
352.340	1	-1
353.537	1	7
354.734	1	3
355.931	1	10
357.127	1	12
358.324	1	2
359.521	1	11
360.718	1	3
361.914	1	14
363.111	1	35
364.308	1	20
365.504	1	25
366.701	1	40
367.897	1	36
369.093	1	35
370.290	1	26
371.486	1	31
372.682	1	13
373.879	1	28
375.075	1	22
376.271	1	13
377.467	1	11
378.663	1	19
379.859	1	7
381.055	1	19
382.251	1	22
383.447	1	40
384.643	1	47
385.839	1	52
387.035	1	50
388.230	1	46
389.426	1	51
390.622	1	36
391.817	1	28
393.013	1	57
394.208	1	31
395.404	1	49
396.599	1	48
397.795	1	50
398.990	1	43
400.186	1	57
401.381	1	33
402.576	1	39
403.771	1	30
404.967	1	38
406.162	1	25
407.357	1	30
408.552	1	26
409.747	1	20
410.942	1	21
412.137	1	36
413.332	1	24
414.526	1	24
415.721	1	15
416.916	1	12
418.111	1	18
419.305	1	21
420.500	1	20
421.695	1	18
422.889	1	12
424.084	1	24
425.278	1	10
426.472	1	16
427.667	1	18
428.861	1	15
430.055	1	10
431.250	1	7
432.444	1	9
433.638	1	5
434.832	1	0
436.026	1	8
437.220	1	20
438.414	1	18
439.608	1	13
440.802	1	13
441.996	1	7
443.190	1	4
444.384	1	13
445.578	1	22
446.771	1	8
447.965	1	5
449.159	1	0
450.352	1	13
451.546	1	18
452.739	1	13
453.933	1	14
455.126	1	11
456.320	1	9
457.513	1	12
458.706	1	18
459.899	1	9
461.093	1	7
462.286	1	18
463.479	1	8
464.672	1	4
465.865	1	5
467.058	1	23
468.251	1	3
469.444	1	11
470.637	1	19
471.830	1	18
473.023	1	4
474.215	1	7
475.408	1	10
476.601	1	7
477.793	1	16
478.986	1	-3
480.179	1	2
481.371	1	8
482.564	1	2
483.756	1	15
484.948	1	-3
486.141	1	6
487.333	1	8
488.525	1	14
489.718	1	0
490.910	1	11
492.102	1	5
493.294	1	15
494.486	1	2
495.678	1	15
496.870	1	13
498.062	1	10
499.254	1	14
500.446	1	17
501.638	1	13
502.829	1	17
504.021	1	36
505.213	1	19
506.404	1	9
507.596	1	30
508.788	1	16
509.979	1	16
511.171	1	30
512.362	1	12
513.553	1	7
514.745	1	14
515.936	1	23
517.127	1	20
518.319	1	15
519.510	1	16
520.701	1	26
521.892	1	12
523.083	1	27
524.274	1	17
525.465	1	24
526.656	1	43
527.847	1	23
529.038	1	36
530.229	1	30
531.419	1	27
532.610	1	31
533.801	1	23
534.991	1	34
536.182	1	25
537.373	1	15
538.563	1	28
539.754	1	26
540.944	1	27
542.134	1	27
543.325	1	22
544.515	1	14
545.705	1	30
546.896	1	29
548.086	1	26
549.276	1	27
550.466	1	26
551.656	1	21
552.846	1	28
554.036	1	16
555.226	1	13
556.416	1	22
557.606	1	10
558.796	1	23
559.986	1	15
561.175	1	12
562.365	1	20
563.555	1	23
564.744	1	13
565.934	1	15
567.123	1	31
568.313	1	7
569.502	1	15
570.692	1	12
571.881	1	17
573.070	1	7
574.260	1	11
575.449	1	19
576.638	1	13
577.827	1	19
579.016	1	17
580.205	1	10
581.394	1	10
582.583	1	2
583.772	1	11
584.961	1	8
586.150	1	14
587.339	1	7
588.528	1	16
589.717	1	14
590.905	1	10
592.094	1	14
593.283	1	4
594.471	1	11
595.660	1	2
596.848	1	21
598.037	1	8
599.225	1	11
600.413	1	13
601.602	1	10
602.790	1	6
603.978	1	5
605.166	1	0
606.355	1	14
607.543	1	-4
608.731	1	4
609.919	1	3
611.107	1	8
612.295	1	11
613.483	1	11
614.671	1	8
615.858	1	11
617.046	1	6
618.234	1	5
619.422	1	2
620.609	1	1
621.797	1	5
622.985	1	12
624.172	1	19
625.360	1	-9
626.547	1	3
627.735	1	6
628.922	1	13
630.109	1	-5
631.297	1	-4
632.484	1	3
633.671	1	9
634.858	1	7
636.045	1	0
637.232	1	6
638.419	1	14
639.606	1	17
640.793	1	11
641.980	1	1
643.167	1	12
644.354	1	1
645.541	1	-1
646.728	1	14
647.914	1	8
649.101	1	5
650.288	1	1
651.474	1	14
652.661	1	14
653.847	1	2
655.034	1	3
656.220	1	19
657.406	1	13
658.593	1	-2
659.779	1	-5
660.965	1	8
662.152	1	5
663.338	1	5
664.524	1	-9
665.710	1	5
666.896	1	-1
668.082	1	-7
669.268	1	6
670.454	1	6
671.640	1	-11
672.826	1	-8
674.011	1	14
675.197	1	3
676.383	1	0
677.569	1	-3
678.754	1	1
679.940	1	-3
681.125	1	6
682.311	1	6
683.496	1	-3
684.682	1	11
685.867	1	5
687.053	1	7
688.238	1	3
688.746	1	9