Folder: cryo-il_analysis/Analysis/GaN_68K_200ms (part 28)

File: GaN_sample E_spot4_UVVIS_68 K_200um_200 ms 2x2mm1_646.txt
340.368	1	2
341.565	1	-8
342.763	1	0
343.960	1	-6
345.157	1	-2
346.354	1	1
347.552	1	0
348.749	1	2
349.946	1	3
351.143	1	-4
352.340	1	0
353.537	1	-10
354.734	1	-2
355.931	1	-4
357.127	1	1
358.324	1	-3
359.521	1	6
360.718	1	-3
361.914	1	-1
363.111	1	5
364.308	1	-5
365.504	1	-3
366.701	1	-1
367.897	1	-1
369.093	1	-4
370.290	1	-3
371.486	1	17
372.682	1	1
373.879	1	4
375.075	1	9
376.271	1	1
377.467	1	0
378.663	1	4
379.859	1	-10
381.055	1	-6
382.251	1	8
383.447	1	2
384.643	1	11
385.839	1	0
387.035	1	-3
388.230	1	-3
389.426	1	7
390.622	1	-4
391.817	1	-9
393.013	1	13
394.208	1	10
395.404	1	1
396.599	1	3
397.795	1	16
398.990	1	4
400.186	1	10
401.381	1	8
402.576	1	11
403.771	1	4
404.967	1	-1
406.162	1	2
407.357	1	1
408.552	1	9
409.747	1	-6
410.942	1	1
412.137	1	7
413.332	1	-7
414.526	1	3
415.721	1	2
416.916	1	-1
418.111	1	2
419.305	1	-7
420.500	1	9
421.695	1	0
422.889	1	8
424.084	1	1
425.278	1	-2
426.472	1	-4
427.667	1	3
428.861	1	-9
430.055	1	-9
431.250	1	-4
432.444	1	7
433.638	1	1
434.832	1	-14
436.026	1	-4
437.220	1	8
438.414	1	1
439.608	1	3
440.802	1	6
441.996	1	-3
443.190	1	-9
444.384	1	4
445.578	1	7
446.771	1	-4
447.965	1	-6
449.159	1	-1
450.352	1	1
451.546	1	-3
452.739	1	-1
453.933	1	9
455.126	1	-4
456.320	1	2
457.513	1	0
458.706	1	-3
459.899	1	5
461.093	1	12
462.286	1	2
463.479	1	4
464.672	1	-7
465.865	1	-2
467.058	1	9
468.251	1	-6
469.444	1	-3
470.637	1	7
471.830	1	17
473.023	1	-4
474.215	1	-6
475.408	1	3
476.601	1	4
477.793	1	9
478.986	1	10
480.179	1	-2
481.371	1	3
482.564	1	-12
483.756	1	9
484.948	1	-11
486.141	1	-9
487.333	1	-2
488.525	1	-2
489.718	1	-5
490.910	1	-4
492.102	1	-3
493.294	1	7
494.486	1	3
495.678	1	14
496.870	1	4
498.062	1	-4
499.254	1	-5
500.446	1	9
501.638	1	-2
502.829	1	1
504.021	1	15
505.213	1	-1
506.404	1	-6
507.596	1	6
508.788	1	-8
509.979	1	-9
511.171	1	3
512.362	1	2
513.553	1	-7
514.745	1	-1
515.936	1	-10
517.127	1	2
518.319	1	-13
519.510	1	0
520.701	1	1
521.892	1	-3
523.083	1	-9
524.274	1	-5
525.465	1	-2
526.656	1	21
527.847	1	-7
529.038	1	2
530.229	1	6
531.419	1	12
532.610	1	-7
533.801	1	3
534.991	1	4
536.182	1	-4
537.373	1	-7
538.563	1	1
539.754	1	5
540.944	1	-4
542.134	1	4
543.325	1	0
544.515	1	7
545.705	1	9
546.896	1	8
548.086	1	3
549.276	1	10
550.466	1	-5
551.656	1	-5
552.846	1	4
554.036	1	1
555.226	1	-7
556.416	1	0
557.606	1	-8
558.796	1	-9
559.986	1	3
561.175	1	-9
562.365	1	1
563.555	1	9
564.744	1	-1
565.934	1	-1
567.123	1	13
568.313	1	-3
569.502	1	-3
570.692	1	1
571.881	1	0
573.070	1	-1
574.260	1	-10
575.449	1	1
576.638	1	-6
577.827	1	2
579.016	1	7
580.205	1	-8
581.394	1	-6
582.583	1	-3
583.772	1	0
584.961	1	8
586.150	1	-8
587.339	1	-2
588.528	1	6
589.717	1	-1
590.905	1	4
592.094	1	5
593.283	1	-4
594.471	1	5
595.660	1	-4
596.848	1	3
598.037	1	-1
599.225	1	4
600.413	1	5
601.602	1	1
602.790	1	-3
603.978	1	3
605.166	1	-2
606.355	1	10
607.543	1	-6
608.731	1	-5
609.919	1	-5
611.107	1	-1
612.295	1	2
613.483	1	3
614.671	1	3
615.858	1	0
617.046	1	0
618.234	1	1
619.422	1	-5
620.609	1	-1
621.797	1	-6
622.985	1	-6
624.172	1	9
625.360	1	-7
626.547	1	4
627.735	1	0
628.922	1	-4
630.109	1	-2
631.297	1	-9
632.484	1	-4
633.671	1	-1
634.858	1	1
636.045	1	4
637.232	1	-6
638.419	1	0
639.606	1	3
640.793	1	4
641.980	1	-4
643.167	1	8
644.354	1	2
645.541	1	-8
646.728	1	-4
647.914	1	-6
649.101	1	9
650.288	1	-6
651.474	1	2
652.661	1	1
653.847	1	0
655.034	1	3
656.220	1	8
657.406	1	-1
658.593	1	-6
659.779	1	3
660.965	1	3
662.152	1	1
663.338	1	-3
664.524	1	-8
665.710	1	-8
666.896	1	3
668.082	1	7
669.268	1	-3
670.454	1	8
671.640	1	-15
672.826	1	-17
674.011	1	9
675.197	1	3
676.383	1	-1
677.569	1	4
678.754	1	2
679.940	1	1
681.125	1	3
682.311	1	9
683.496	1	0
684.682	1	-2
685.867	1	2
687.053	1	0
688.238	1	-13
688.746	1	2

File: GaN_sample E_spot4_UVVIS_68 K_200um_200 ms 2x2mm1_650.txt
340.368	1	-4
341.565	1	4
342.763	1	0
343.960	1	-15
345.157	1	1
346.354	1	-2
347.552	1	-1
348.749	1	5
349.946	1	8
351.143	1	-13
352.340	1	1
353.537	1	-2
354.734	1	-9
355.931	1	-7
357.127	1	-6
358.324	1	-4
359.521	1	-3
360.718	1	0
361.914	1	-7
363.111	1	10
364.308	1	-9
365.504	1	-3
366.701	1	-8
367.897	1	1
369.093	1	-4
370.290	1	-7
371.486	1	0
372.682	1	11
373.879	1	8
375.075	1	10
376.271	1	-6
377.467	1	0
378.663	1	0
379.859	1	-4
381.055	1	-3
382.251	1	2
383.447	1	10
384.643	1	-1
385.839	1	6
387.035	1	0
388.230	1	2
389.426	1	8
390.622	1	-1
391.817	1	-6
393.013	1	15
394.208	1	7
395.404	1	-3
396.599	1	-2
397.795	1	11
398.990	1	-1
400.186	1	11
401.381	1	4
402.576	1	11
403.771	1	1
404.967	1	8
406.162	1	-2
407.357	1	3
408.552	1	1
409.747	1	-7
410.942	1	3
412.137	1	8
413.332	1	2
414.526	1	-1
415.721	1	8
416.916	1	-10
418.111	1	-4
419.305	1	2
420.500	1	-6
421.695	1	0
422.889	1	4
424.084	1	7
425.278	1	-3
426.472	1	3
427.667	1	7
428.861	1	4
430.055	1	1
431.250	1	-7
432.444	1	2
433.638	1	0
434.832	1	-3
436.026	1	8
437.220	1	2
438.414	1	-2
439.608	1	-3
440.802	1	7
441.996	1	-3
443.190	1	-4
444.384	1	2
445.578	1	9
446.771	1	-2
447.965	1	-9
449.159	1	-4
450.352	1	9
451.546	1	1
452.739	1	-3
453.933	1	4
455.126	1	-1
456.320	1	-2
457.513	1	9
458.706	1	-4
459.899	1	3
461.093	1	4
462.286	1	13
463.479	1	5
464.672	1	-8
465.865	1	-7
467.058	1	11
468.251	1	-7
469.444	1	-1
470.637	1	17
471.830	1	19
473.023	1	-4
474.215	1	0
475.408	1	5
476.601	1	-3
477.793	1	7
478.986	1	4
480.179	1	-2
481.371	1	-5
482.564	1	-7
483.756	1	8
484.948	1	-8
486.141	1	-7
487.333	1	7
488.525	1	-5
489.718	1	-12
490.910	1	-3
492.102	1	-4
493.294	1	5
494.486	1	13
495.678	1	10
496.870	1	3
498.062	1	2
499.254	1	-1
500.446	1	9
501.638	1	2
502.829	1	-3
504.021	1	17
505.213	1	-6
506.404	1	-6
507.596	1	-1
508.788	1	-8
509.979	1	-11
511.171	1	0
512.362	1	-13
513.553	1	-6
514.745	1	3
515.936	1	5
517.127	1	9
518.319	1	-4
519.510	1	5
520.701	1	-2
521.892	1	-12
523.083	1	2
524.274	1	-3
525.465	1	-8
526.656	1	17
527.847	1	2
529.038	1	7
530.229	1	6
531.419	1	6
532.610	1	-6
533.801	1	6
534.991	1	3
536.182	1	-8
537.373	1	-10
538.563	1	1
539.754	1	-2
540.944	1	-5
542.134	1	5
543.325	1	-4
544.515	1	-4
545.705	1	8
546.896	1	6
548.086	1	4
549.276	1	9
550.466	1	4
551.656	1	-6
552.846	1	3
554.036	1	3
555.226	1	-3
556.416	1	0
557.606	1	-15
558.796	1	2
559.986	1	-6
561.175	1	3
562.365	1	-2
563.555	1	10
564.744	1	7
565.934	1	-3
567.123	1	13
568.313	1	-8
569.502	1	2
570.692	1	6
571.881	1	7
573.070	1	1
574.260	1	4
575.449	1	0
576.638	1	3
577.827	1	12
579.016	1	7
580.205	1	-3
581.394	1	0
582.583	1	-26
583.772	1	-4
584.961	1	2
586.150	1	-5
587.339	1	6
588.528	1	1
589.717	1	3
590.905	1	9
592.094	1	3
593.283	1	8
594.471	1	2
595.660	1	-11
596.848	1	-1
598.037	1	-7
599.225	1	5
600.413	1	-5
601.602	1	0
602.790	1	6
603.978	1	-6
605.166	1	-7
606.355	1	16
607.543	1	-9
608.731	1	-4
609.919	1	-6
611.107	1	14
612.295	1	8
613.483	1	2
614.671	1	3
615.858	1	10
617.046	1	9
618.234	1	0
619.422	1	4
620.609	1	2
621.797	1	-6
622.985	1	-6
624.172	1	14
625.360	1	-7
626.547	1	5
627.735	1	5
628.922	1	-10
630.109	1	-11
631.297	1	-5
632.484	1	-5
633.671	1	4
634.858	1	3
636.045	1	-7
637.232	1	6
638.419	1	7
639.606	1	7
640.793	1	6
641.980	1	11
643.167	1	14
644.354	1	-2
645.541	1	-11
646.728	1	1
647.914	1	-1
649.101	1	-1
650.288	1	-3
651.474	1	7
652.661	1	-1
653.847	1	7
655.034	1	3
656.220	1	-2
657.406	1	-2
658.593	1	-6
659.779	1	-6
660.965	1	-9
662.152	1	2
663.338	1	-9
664.524	1	-10
665.710	1	-5
666.896	1	-7
668.082	1	-5
669.268	1	4
670.454	1	-1
671.640	1	-13
672.826	1	-12
674.011	1	3
675.197	1	-2
676.383	1	-3
677.569	1	-2
678.754	1	0
679.940	1	-11
681.125	1	0
682.311	1	1
683.496	1	6
684.682	1	8
685.867	1	-3
687.053	1	1
688.238	1	4
688.746	1	4

File: GaN_sample E_spot4_UVVIS_68 K_200um_200 ms 2x2mm1_664.txt
340.368	1	-9
341.565	1	-8
342.763	1	-3
343.960	1	-4
345.157	1	7
346.354	1	1
347.552	1	-2
348.749	1	1
349.946	1	16
351.143	1	-2
352.340	1	3
353.537	1	0
354.734	1	-6
355.931	1	7
357.127	1	1
358.324	1	-1
359.521	1	3
360.718	1	-10
361.914	1	-8
363.111	1	3
364.308	1	-3
365.504	1	-3
366.701	1	-6
367.897	1	4
369.093	1	1
370.290	1	-9
371.486	1	12
372.682	1	-2
373.879	1	1
375.075	1	7
376.271	1	-1
377.467	1	-8
378.663	1	-2
379.859	1	-7
381.055	1	5
382.251	1	0
383.447	1	16
384.643	1	14
385.839	1	1
387.035	1	3
388.230	1	-3
389.426	1	9
390.622	1	-6
391.817	1	-5
393.013	1	3
394.208	1	3
395.404	1	15
396.599	1	1
397.795	1	9
398.990	1	13
400.186	1	11
401.381	1	1
402.576	1	9
403.771	1	-6
404.967	1	-2
406.162	1	-4
407.357	1	2
408.552	1	6
409.747	1	-1
410.942	1	5
412.137	1	5
413.332	1	3
414.526	1	4
415.721	1	-1
416.916	1	1
418.111	1	-2
419.305	1	-10
420.500	1	4
421.695	1	9
422.889	1	12
424.084	1	1
425.278	1	-12
426.472	1	-5
427.667	1	0
428.861	1	-6
430.055	1	-6
431.250	1	-13
432.444	1	4
433.638	1	5
434.832	1	-15
436.026	1	2
437.220	1	16
438.414	1	1
439.608	1	8
440.802	1	1
441.996	1	-6
443.190	1	-8
444.384	1	7
445.578	1	14
446.771	1	2
447.965	1	-5
449.159	1	-14
450.352	1	12
451.546	1	5
452.739	1	-4
453.933	1	1
455.126	1	4
456.320	1	-4
457.513	1	8
458.706	1	2
459.899	1	12
461.093	1	7
462.286	1	12
463.479	1	13
464.672	1	1
465.865	1	-6
467.058	1	6
468.251	1	7
469.444	1	3
470.637	1	13
471.830	1	14
473.023	1	-4
474.215	1	1
475.408	1	0
476.601	1	-4
477.793	1	3
478.986	1	3
480.179	1	4
481.371	1	5
482.564	1	-7
483.756	1	3
484.948	1	2
486.141	1	-6
487.333	1	7
488.525	1	0
489.718	1	-2
490.910	1	-2
492.102	1	-8
493.294	1	3
494.486	1	3
495.678	1	0
496.870	1	0
498.062	1	4
499.254	1	5
500.446	1	11
501.638	1	7
502.829	1	-1
504.021	1	20
505.213	1	-2
506.404	1	-4
507.596	1	0
508.788	1	4
509.979	1	-11
511.171	1	8
512.362	1	-5
513.553	1	-11
514.745	1	-3
515.936	1	4
517.127	1	-5
518.319	1	-4
519.510	1	-1
520.701	1	2
521.892	1	-18
523.083	1	-5
524.274	1	-7
525.465	1	-5
526.656	1	7
527.847	1	-8
529.038	1	1
530.229	1	5
531.419	1	10
532.610	1	6
533.801	1	1
534.991	1	0
536.182	1	3
537.373	1	-4
538.563	1	8
539.754	1	6
540.944	1	0
542.134	1	5
543.325	1	-4
544.515	1	-1
545.705	1	1
546.896	1	1
548.086	1	0
549.276	1	8
550.466	1	-13
551.656	1	-8
552.846	1	5
554.036	1	1
555.226	1	-11
556.416	1	-4
557.606	1	-10
558.796	1	4
559.986	1	0
561.175	1	-2
562.365	1	2
563.555	1	6
564.744	1	7
565.934	1	3
567.123	1	10
568.313	1	-5
569.502	1	5
570.692	1	5
571.881	1	-2
573.070	1	-5
574.260	1	-7
575.449	1	-6
576.638	1	-4
577.827	1	4
579.016	1	14
580.205	1	-1
581.394	1	-3
582.583	1	-2
583.772	1	10
584.961	1	1
586.150	1	-3
587.339	1	10
588.528	1	2
589.717	1	0
590.905	1	-1
592.094	1	4
593.283	1	11
594.471	1	-11
595.660	1	-4
596.848	1	3
598.037	1	1
599.225	1	8
600.413	1	-5
601.602	1	4
602.790	1	-4
603.978	1	-2
605.166	1	-9
606.355	1	11
607.543	1	-10
608.731	1	-4
609.919	1	-7
611.107	1	1
612.295	1	2
613.483	1	3
614.671	1	2
615.858	1	6
617.046	1	10
618.234	1	8
619.422	1	1
620.609	1	-3
621.797	1	-2
622.985	1	-2
624.172	1	4
625.360	1	-3
626.547	1	-2
627.735	1	8
628.922	1	-12
630.109	1	-2
631.297	1	-18
632.484	1	2
633.671	1	1
634.858	1	-1
636.045	1	2
637.232	1	4
638.419	1	2
639.606	1	13
640.793	1	4
641.980	1	-5
643.167	1	-6
644.354	1	-6
645.541	1	-11
646.728	1	2
647.914	1	-8
649.101	1	1
650.288	1	-4
651.474	1	6
652.661	1	-5
653.847	1	8
655.034	1	5
656.220	1	-1
657.406	1	-1
658.593	1	-10
659.779	1	2
660.965	1	6
662.152	1	1
663.338	1	-5
664.524	1	-11
665.710	1	-8
666.896	1	-2
668.082	1	-5
669.268	1	2
670.454	1	3
671.640	1	-6
672.826	1	-12
674.011	1	3
675.197	1	1
676.383	1	-1
677.569	1	-10
678.754	1	-2
679.940	1	-2
681.125	1	8
682.311	1	4
683.496	1	-15
684.682	1	4
685.867	1	4
687.053	1	4
688.238	1	-4
688.746	1	-4

File: GaN_sample E_spot4_UVVIS_68 K_200um_200 ms 2x2mm1_673.txt
340.368	1	-5
341.565	1	-6
342.763	1	-5
343.960	1	-4
345.157	1	-1
346.354	1	-2
347.552	1	-6
348.749	1	7
349.946	1	1
351.143	1	-9
352.340	1	2
353.537	1	-7
354.734	1	1
355.931	1	1
357.127	1	0
358.324	1	-2
359.521	1	3
360.718	1	-9
361.914	1	5
363.111	1	4
364.308	1	-4
365.504	1	-5
366.701	1	-9
367.897	1	-1
369.093	1	-8
370.290	1	-5
371.486	1	7
372.682	1	-2
373.879	1	7
375.075	1	3
376.271	1	-5
377.467	1	-2
378.663	1	1
379.859	1	-8
381.055	1	-3
382.251	1	4
383.447	1	9
384.643	1	5
385.839	1	5
387.035	1	2
388.230	1	-3
389.426	1	2
390.622	1	-1
391.817	1	-4
393.013	1	9
394.208	1	6
395.404	1	8
396.599	1	5
397.795	1	3
398.990	1	3
400.186	1	1
401.381	1	2
402.576	1	10
403.771	1	3
404.967	1	-5
406.162	1	-2
407.357	1	-6
408.552	1	7
409.747	1	-3
410.942	1	-4
412.137	1	4
413.332	1	-2
414.526	1	-7
415.721	1	5
416.916	1	-1
418.111	1	-1
419.305	1	-10
420.500	1	1
421.695	1	0
422.889	1	7
424.084	1	7
425.278	1	-5
426.472	1	4
427.667	1	5
428.861	1	-7
430.055	1	-2
431.250	1	-1
432.444	1	8
433.638	1	1
434.832	1	-11
436.026	1	7
437.220	1	5
438.414	1	1
439.608	1	-8
440.802	1	5
441.996	1	-2
443.190	1	-8
444.384	1	-4
445.578	1	7
446.771	1	-5
447.965	1	-15
449.159	1	-5
450.352	1	11
451.546	1	5
452.739	1	-3
453.933	1	4
455.126	1	-2
456.320	1	-6
457.513	1	9
458.706	1	-2
459.899	1	8
461.093	1	1
462.286	1	9
463.479	1	11
464.672	1	-5
465.865	1	-7
467.058	1	10
468.251	1	-9
469.444	1	-4
470.637	1	11
471.830	1	11
473.023	1	-15
474.215	1	-1
475.408	1	3
476.601	1	2
477.793	1	3
478.986	1	-1
480.179	1	1
481.371	1	1
482.564	1	-10
483.756	1	11
484.948	1	-9
486.141	1	-6
487.333	1	8
488.525	1	2
489.718	1	-7
490.910	1	-2
492.102	1	-8
493.294	1	4
494.486	1	-14
495.678	1	2
496.870	1	4
498.062	1	-10
499.254	1	4
500.446	1	4
501.638	1	-3
502.829	1	-1
504.021	1	9
505.213	1	10
506.404	1	-1
507.596	1	1
508.788	1	-3
509.979	1	-10
511.171	1	13
512.362	1	-2
513.553	1	-1
514.745	1	-5
515.936	1	0
517.127	1	0
518.319	1	-4
519.510	1	-3
520.701	1	2
521.892	1	-9
523.083	1	-1
524.274	1	-7
525.465	1	8
526.656	1	11
527.847	1	-12
529.038	1	12
530.229	1	-3
531.419	1	1
532.610	1	6
533.801	1	-8
534.991	1	-4
536.182	1	4
537.373	1	-1
538.563	1	-3
539.754	1	-2
540.944	1	0
542.134	1	3
543.325	1	0
544.515	1	0
545.705	1	11
546.896	1	-5
548.086	1	1
549.276	1	12
550.466	1	2
551.656	1	-7
552.846	1	6
554.036	1	-3
555.226	1	-7
556.416	1	-2
557.606	1	-7
558.796	1	-3
559.986	1	-3
561.175	1	-5
562.365	1	7
563.555	1	9
564.744	1	-1
565.934	1	7
567.123	1	14
568.313	1	-7
569.502	1	-1
570.692	1	4
571.881	1	10
573.070	1	7
574.260	1	7
575.449	1	0
576.638	1	3
577.827	1	5
579.016	1	5
580.205	1	-1
581.394	1	-3
582.583	1	-6
583.772	1	-5
584.961	1	1
586.150	1	0
587.339	1	2
588.528	1	4
589.717	1	3
590.905	1	3
592.094	1	11
593.283	1	16
594.471	1	5
595.660	1	1
596.848	1	2
598.037	1	5
599.225	1	-4
600.413	1	-2
601.602	1	17
602.790	1	-4
603.978	1	5
605.166	1	-4
606.355	1	5
607.543	1	-10
608.731	1	-5
609.919	1	0
611.107	1	14
612.295	1	-3
613.483	1	7
614.671	1	2
615.858	1	9
617.046	1	7
618.234	1	3
619.422	1	-3
620.609	1	0
621.797	1	4
622.985	1	-4
624.172	1	4
625.360	1	-5
626.547	1	-7
627.735	1	8
628.922	1	-1
630.109	1	-7
631.297	1	-8
632.484	1	-8
633.671	1	0
634.858	1	2
636.045	1	-5
637.232	1	-9
638.419	1	0
639.606	1	13
640.793	1	4
641.980	1	-5
643.167	1	6
644.354	1	5
645.541	1	-11
646.728	1	0
647.914	1	6
649.101	1	-3
650.288	1	-5
651.474	1	-2
652.661	1	-1
653.847	1	7
655.034	1	-2
656.220	1	10
657.406	1	4
658.593	1	-11
659.779	1	-6
660.965	1	3
662.152	1	-5
663.338	1	-13
664.524	1	-6
665.710	1	-3
666.896	1	-5
668.082	1	-2
669.268	1	-7
670.454	1	1
671.640	1	-17
672.826	1	-8
674.011	1	6
675.197	1	5
676.383	1	-7
677.569	1	-8
678.754	1	6
679.940	1	-7
681.125	1	1
682.311	1	11
683.496	1	-11
684.682	1	7
685.867	1	-5
687.053	1	-2
688.238	1	6
688.746	1	1

File: GaN_sample E_spot4_UVVIS_68 K_200um_200 ms 2x2mm1_675.txt
340.368	1	-1
341.565	1	-3
342.763	1	-6
343.960	1	-6
345.157	1	7
346.354	1	-2
347.552	1	5
348.749	1	8
349.946	1	3
351.143	1	-9
352.340	1	-2
353.537	1	-3
354.734	1	5
355.931	1	4
357.127	1	3
358.324	1	-6
359.521	1	6
360.718	1	5
361.914	1	-3
363.111	1	4
364.308	1	-6
365.504	1	-11
366.701	1	-11
367.897	1	-5
369.093	1	2
370.290	1	-3
371.486	1	14
372.682	1	-8
373.879	1	10
375.075	1	10
376.271	1	-5
377.467	1	-14
378.663	1	-11
379.859	1	1
381.055	1	-6
382.251	1	4
383.447	1	12
384.643	1	1
385.839	1	8
387.035	1	-1
388.230	1	0
389.426	1	2
390.622	1	-4
391.817	1	-2
393.013	1	2
394.208	1	10
395.404	1	0
396.599	1	4
397.795	1	-6
398.990	1	1
400.186	1	10
401.381	1	13
402.576	1	9
403.771	1	-3
404.967	1	1
406.162	1	-7
407.357	1	-1
408.552	1	15
409.747	1	3
410.942	1	7
412.137	1	4
413.332	1	0
414.526	1	4
415.721	1	5
416.916	1	-3
418.111	1	-1
419.305	1	5
420.500	1	5
421.695	1	-4
422.889	1	2
424.084	1	-3
425.278	1	-7
426.472	1	-4
427.667	1	14
428.861	1	-6
430.055	1	2
431.250	1	-11
432.444	1	15
433.638	1	0
434.832	1	-11
436.026	1	5
437.220	1	-3
438.414	1	7
439.608	1	5
440.802	1	5
441.996	1	-4
443.190	1	-18
444.384	1	-4
445.578	1	17
446.771	1	1
447.965	1	-5
449.159	1	-6
450.352	1	4
451.546	1	-1
452.739	1	-4
453.933	1	-6
455.126	1	7
456.320	1	1
457.513	1	3
458.706	1	4
459.899	1	7
461.093	1	13
462.286	1	0
463.479	1	8
464.672	1	-3
465.865	1	-6
467.058	1	9
468.251	1	-2
469.444	1	-4
470.637	1	12
471.830	1	14
473.023	1	-1
474.215	1	-5
475.408	1	3
476.601	1	3
477.793	1	11
478.986	1	-2
480.179	1	0
481.371	1	-2
482.564	1	-6
483.756	1	5
484.948	1	4
486.141	1	-6
487.333	1	0
488.525	1	-2
489.718	1	-9
490.910	1	-2
492.102	1	-2
493.294	1	13
494.486	1	9
495.678	1	9
496.870	1	-7
498.062	1	-1
499.254	1	-3
500.446	1	3
501.638	1	4
502.829	1	8
504.021	1	15
505.213	1	-4
506.404	1	-5
507.596	1	4
508.788	1	3
509.979	1	2
511.171	1	9
512.362	1	-5
513.553	1	-11
514.745	1	2
515.936	1	-2
517.127	1	2
518.319	1	-6
519.510	1	4
520.701	1	3
521.892	1	-10
523.083	1	-4
524.274	1	-4
525.465	1	-5
526.656	1	15
527.847	1	0
529.038	1	8
530.229	1	7
531.419	1	9
532.610	1	-3
533.801	1	-1
534.991	1	-4
536.182	1	-6
537.373	1	-7
538.563	1	-7
539.754	1	0
540.944	1	-8
542.134	1	-1
543.325	1	-7
544.515	1	3
545.705	1	6
546.896	1	10
548.086	1	4
549.276	1	-4
550.466	1	-4
551.656	1	-2
552.846	1	4
554.036	1	4
555.226	1	-1
556.416	1	0
557.606	1	-10
558.796	1	9
559.986	1	2
561.175	1	-5
562.365	1	3
563.555	1	11
564.744	1	6
565.934	1	6
567.123	1	12
568.313	1	-12
569.502	1	-1
570.692	1	4
571.881	1	7
573.070	1	4
574.260	1	3
575.449	1	2
576.638	1	-3
577.827	1	-4
579.016	1	12
580.205	1	4
581.394	1	-6
582.583	1	-2
583.772	1	-2
584.961	1	6
586.150	1	4
587.339	1	4
588.528	1	-2
589.717	1	3
590.905	1	9
592.094	1	3
593.283	1	9
594.471	1	-1
595.660	1	5
596.848	1	12
598.037	1	2
599.225	1	9
600.413	1	2
601.602	1	7
602.790	1	-1
603.978	1	-7
605.166	1	-3
606.355	1	1
607.543	1	-9
608.731	1	-10
609.919	1	-5
611.107	1	8
612.295	1	-3
613.483	1	9
614.671	1	1
615.858	1	1
617.046	1	5
618.234	1	1
619.422	1	0
620.609	1	7
621.797	1	6
622.985	1	4
624.172	1	5
625.360	1	-8
626.547	1	7
627.735	1	-7
628.922	1	-3
630.109	1	2
631.297	1	-11
632.484	1	-9
633.671	1	-1
634.858	1	7
636.045	1	-7
637.232	1	-1
638.419	1	12
639.606	1	13
640.793	1	6
641.980	1	-4
643.167	1	4
644.354	1	2
645.541	1	-17
646.728	1	-4
647.914	1	0
649.101	1	-3
650.288	1	1
651.474	1	5
652.661	1	4
653.847	1	2
655.034	1	0
656.220	1	-3
657.406	1	-1
658.593	1	-7
659.779	1	-12
660.965	1	-11
662.152	1	4
663.338	1	-5
664.524	1	-6
665.710	1	-3
666.896	1	-13
668.082	1	-6
669.268	1	9
670.454	1	4
671.640	1	-14
672.826	1	-14
674.011	1	3
675.197	1	1
676.383	1	-8
677.569	1	-10
678.754	1	1
679.940	1	11
681.125	1	4
682.311	1	5
683.496	1	0
684.682	1	4
685.867	1	1
687.053	1	2
688.238	1	1
688.746	1	-3

File: GaN_sample E_spot4_UVVIS_68 K_200um_200 ms 2x2mm1_678.txt
340.368	1	1
341.565	1	-8
342.763	1	-7
343.960	1	-11
345.157	1	4
346.354	1	-4
347.552	1	1
348.749	1	3
349.946	1	2
351.143	1	-13
352.340	1	4
353.537	1	-4
354.734	1	1
355.931	1	3
357.127	1	0
358.324	1	2
359.521	1	-3
360.718	1	-1
361.914	1	-1
363.111	1	14
364.308	1	-5
365.504	1	-9
366.701	1	-4
367.897	1	-12
369.093	1	-1
370.290	1	-3
371.486	1	8
372.682	1	-2
373.879	1	10
375.075	1	4
376.271	1	-2
377.467	1	-4
378.663	1	2
379.859	1	-6
381.055	1	2
382.251	1	4
383.447	1	10
384.643	1	9
385.839	1	-10
387.035	1	-7
388.230	1	-1
389.426	1	5
390.622	1	-15
391.817	1	-6
393.013	1	4
394.208	1	9
395.404	1	12
396.599	1	0
397.795	1	-1
398.990	1	6
400.186	1	9
401.381	1	3
402.576	1	9
403.771	1	5
404.967	1	5
406.162	1	6
407.357	1	-4
408.552	1	3
409.747	1	-1
410.942	1	1
412.137	1	6
413.332	1	-9
414.526	1	0
415.721	1	0
416.916	1	-2
418.111	1	0
419.305	1	-1
420.500	1	7
421.695	1	0
422.889	1	-2
424.084	1	4
425.278	1	2
426.472	1	-6
427.667	1	3
428.861	1	1
430.055	1	5
431.250	1	-17
432.444	1	7
433.638	1	-5
434.832	1	-3
436.026	1	2
437.220	1	6
438.414	1	-2
439.608	1	4
440.802	1	0
441.996	1	4
443.190	1	-7
444.384	1	-4
445.578	1	8
446.771	1	-3
447.965	1	2
449.159	1	-4
450.352	1	2
451.546	1	-2
452.739	1	-2
453.933	1	-5
455.126	1	-10
456.320	1	-3
457.513	1	1
458.706	1	-5
459.899	1	7
461.093	1	1
462.286	1	7
463.479	1	6
464.672	1	6
465.865	1	-3
467.058	1	9
468.251	1	-3
469.444	1	-7
470.637	1	13
471.830	1	19
473.023	1	-1
474.215	1	-6
475.408	1	5
476.601	1	2
477.793	1	8
478.986	1	4
480.179	1	6
481.371	1	0
482.564	1	-14
483.756	1	6
484.948	1	0
486.141	1	-11
487.333	1	6
488.525	1	0
489.718	1	-7
490.910	1	-5
492.102	1	-9
493.294	1	1
494.486	1	10
495.678	1	11
496.870	1	2
498.062	1	-10
499.254	1	4
500.446	1	10
501.638	1	-1
502.829	1	-4
504.021	1	9
505.213	1	0
506.404	1	-2
507.596	1	1
508.788	1	-6
509.979	1	6
511.171	1	9
512.362	1	-3
513.553	1	-11
514.745	1	-7
515.936	1	-4
517.127	1	3
518.319	1	-1
519.510	1	-3
520.701	1	4
521.892	1	-15
523.083	1	-4
524.274	1	-7
525.465	1	2
526.656	1	10
527.847	1	-7
529.038	1	6
530.229	1	6
531.419	1	10
532.610	1	0
533.801	1	-2
534.991	1	-2
536.182	1	-2
537.373	1	-6
538.563	1	5
539.754	1	-5
540.944	1	-4
542.134	1	8
543.325	1	4
544.515	1	-2
545.705	1	6
546.896	1	3
548.086	1	2
549.276	1	7
550.466	1	2
551.656	1	-1
552.846	1	1
554.036	1	-3
555.226	1	-10
556.416	1	2
557.606	1	-3
558.796	1	1
559.986	1	6
561.175	1	-5
562.365	1	8
563.555	1	7
564.744	1	0
565.934	1	2
567.123	1	15
568.313	1	-9
569.502	1	0
570.692	1	5
571.881	1	7
573.070	1	2
574.260	1	-6
575.449	1	6
576.638	1	7
577.827	1	3
579.016	1	15
580.205	1	13
581.394	1	-2
582.583	1	-1
583.772	1	-7
584.961	1	-1
586.150	1	2
587.339	1	0
588.528	1	5
589.717	1	-2
590.905	1	14
592.094	1	1
593.283	1	-3
594.471	1	7
595.660	1	-1
596.848	1	-5
598.037	1	2
599.225	1	-6
600.413	1	-3
601.602	1	6
602.790	1	7
603.978	1	1
605.166	1	-10
606.355	1	8
607.543	1	-6
608.731	1	-4
609.919	1	-10
611.107	1	6
612.295	1	-7
613.483	1	10
614.671	1	2
615.858	1	1
617.046	1	4
618.234	1	-5
619.422	1	1
620.609	1	6
621.797	1	2
622.985	1	-1
624.172	1	7
625.360	1	-13
626.547	1	0
627.735	1	4
628.922	1	2
630.109	1	-4
631.297	1	-4
632.484	1	-2
633.671	1	12
634.858	1	13
636.045	1	1
637.232	1	2
638.419	1	5
639.606	1	18
640.793	1	10
641.980	1	-8
643.167	1	16
644.354	1	-1
645.541	1	-4
646.728	1	4
647.914	1	-3
649.101	1	2
650.288	1	-2
651.474	1	9
652.661	1	2
653.847	1	-6
655.034	1	4
656.220	1	1
657.406	1	6
658.593	1	-7
659.779	1	-5
660.965	1	-2
662.152	1	1
663.338	1	-1
664.524	1	-6
665.710	1	-8
666.896	1	-4
668.082	1	-1
669.268	1	2
670.454	1	0
671.640	1	-14
672.826	1	-12
674.011	1	7
675.197	1	5
676.383	1	-5
677.569	1	-8
678.754	1	-3
679.940	1	-9
681.125	1	7
682.311	1	0
683.496	1	-12
684.682	1	1
685.867	1	-8
687.053	1	6
688.238	1	-8
688.746	1	0