Folder: cryo-il_analysis/Analysis/GaN_68K_200ms (part 2)

File: GaN_sample E_spot4_UVVIS_68 K_200um_200 ms 2x2mm1_32.txt
340.368	1	3
341.565	1	-5
342.763	1	-1
343.960	1	0
345.157	1	8
346.354	1	-4
347.552	1	-6
348.749	1	-2
349.946	1	7
351.143	1	-8
352.340	1	-1
353.537	1	-2
354.734	1	4
355.931	1	6
357.127	1	6
358.324	1	3
359.521	1	4
360.718	1	6
361.914	1	3
363.111	1	9
364.308	1	-2
365.504	1	6
366.701	1	-6
367.897	1	2
369.093	1	2
370.290	1	-6
371.486	1	13
372.682	1	-2
373.879	1	12
375.075	1	9
376.271	1	-2
377.467	1	1
378.663	1	-1
379.859	1	0
381.055	1	6
382.251	1	-2
383.447	1	5
384.643	1	12
385.839	1	3
387.035	1	-8
388.230	1	-9
389.426	1	7
390.622	1	-5
391.817	1	-1
393.013	1	5
394.208	1	9
395.404	1	12
396.599	1	6
397.795	1	11
398.990	1	6
400.186	1	7
401.381	1	-5
402.576	1	5
403.771	1	3
404.967	1	3
406.162	1	0
407.357	1	4
408.552	1	6
409.747	1	0
410.942	1	1
412.137	1	3
413.332	1	-5
414.526	1	4
415.721	1	0
416.916	1	-3
418.111	1	-5
419.305	1	4
420.500	1	4
421.695	1	7
422.889	1	-1
424.084	1	6
425.278	1	3
426.472	1	-9
427.667	1	14
428.861	1	-2
430.055	1	-6
431.250	1	-7
432.444	1	8
433.638	1	2
434.832	1	-3
436.026	1	10
437.220	1	5
438.414	1	2
439.608	1	6
440.802	1	9
441.996	1	1
443.190	1	-4
444.384	1	6
445.578	1	13
446.771	1	-1
447.965	1	-6
449.159	1	2
450.352	1	4
451.546	1	-3
452.739	1	4
453.933	1	5
455.126	1	-2
456.320	1	3
457.513	1	13
458.706	1	-3
459.899	1	8
461.093	1	10
462.286	1	9
463.479	1	3
464.672	1	1
465.865	1	-3
467.058	1	14
468.251	1	-3
469.444	1	6
470.637	1	14
471.830	1	16
473.023	1	-6
474.215	1	1
475.408	1	0
476.601	1	2
477.793	1	8
478.986	1	9
480.179	1	6
481.371	1	1
482.564	1	-11
483.756	1	9
484.948	1	-5
486.141	1	-3
487.333	1	-2
488.525	1	-6
489.718	1	3
490.910	1	1
492.102	1	-6
493.294	1	4
494.486	1	15
495.678	1	13
496.870	1	4
498.062	1	4
499.254	1	2
500.446	1	9
501.638	1	-5
502.829	1	-9
504.021	1	12
505.213	1	9
506.404	1	-14
507.596	1	2
508.788	1	-2
509.979	1	-5
511.171	1	6
512.362	1	-6
513.553	1	1
514.745	1	0
515.936	1	3
517.127	1	2
518.319	1	-1
519.510	1	1
520.701	1	-2
521.892	1	-13
523.083	1	10
524.274	1	-11
525.465	1	3
526.656	1	12
527.847	1	-1
529.038	1	-1
530.229	1	3
531.419	1	7
532.610	1	2
533.801	1	-5
534.991	1	-8
536.182	1	-5
537.373	1	0
538.563	1	-5
539.754	1	-3
540.944	1	4
542.134	1	10
543.325	1	3
544.515	1	-5
545.705	1	0
546.896	1	3
548.086	1	3
549.276	1	4
550.466	1	-4
551.656	1	-13
552.846	1	-6
554.036	1	8
555.226	1	-15
556.416	1	2
557.606	1	-7
558.796	1	0
559.986	1	-2
561.175	1	-5
562.365	1	0
563.555	1	-1
564.744	1	6
565.934	1	4
567.123	1	15
568.313	1	-2
569.502	1	8
570.692	1	3
571.881	1	5
573.070	1	12
574.260	1	-2
575.449	1	3
576.638	1	1
577.827	1	14
579.016	1	5
580.205	1	8
581.394	1	-5
582.583	1	-7
583.772	1	1
584.961	1	3
586.150	1	0
587.339	1	-1
588.528	1	3
589.717	1	10
590.905	1	7
592.094	1	3
593.283	1	-5
594.471	1	7
595.660	1	-7
596.848	1	8
598.037	1	-2
599.225	1	8
600.413	1	0
601.602	1	3
602.790	1	3
603.978	1	-1
605.166	1	-2
606.355	1	3
607.543	1	-10
608.731	1	2
609.919	1	-10
611.107	1	12
612.295	1	-3
613.483	1	15
614.671	1	0
615.858	1	10
617.046	1	7
618.234	1	0
619.422	1	5
620.609	1	3
621.797	1	6
622.985	1	5
624.172	1	11
625.360	1	0
626.547	1	2
627.735	1	1
628.922	1	0
630.109	1	-7
631.297	1	-4
632.484	1	-2
633.671	1	9
634.858	1	6
636.045	1	5
637.232	1	2
638.419	1	2
639.606	1	17
640.793	1	6
641.980	1	-1
643.167	1	11
644.354	1	-2
645.541	1	-10
646.728	1	7
647.914	1	-4
649.101	1	-6
650.288	1	-4
651.474	1	9
652.661	1	7
653.847	1	-1
655.034	1	6
656.220	1	2
657.406	1	0
658.593	1	1
659.779	1	0
660.965	1	7
662.152	1	-1
663.338	1	-6
664.524	1	-11
665.710	1	9
666.896	1	-1
668.082	1	6
669.268	1	0
670.454	1	0
671.640	1	-16
672.826	1	-8
674.011	1	6
675.197	1	-4
676.383	1	1
677.569	1	-3
678.754	1	-7
679.940	1	-8
681.125	1	6
682.311	1	0
683.496	1	3
684.682	1	11
685.867	1	0
687.053	1	6
688.238	1	4
688.746	1	14

File: GaN_sample E_spot4_UVVIS_68 K_200um_200 ms 2x2mm1_36.txt
340.368	1	-3
341.565	1	-3
342.763	1	-9
343.960	1	2
345.157	1	0
346.354	1	-5
347.552	1	4
348.749	1	-2
349.946	1	2
351.143	1	-9
352.340	1	-4
353.537	1	4
354.734	1	4
355.931	1	6
357.127	1	-2
358.324	1	-1
359.521	1	5
360.718	1	2
361.914	1	0
363.111	1	20
364.308	1	-1
365.504	1	-1
366.701	1	-3
367.897	1	7
369.093	1	0
370.290	1	-3
371.486	1	13
372.682	1	5
373.879	1	11
375.075	1	5
376.271	1	2
377.467	1	-6
378.663	1	-2
379.859	1	0
381.055	1	4
382.251	1	7
383.447	1	14
384.643	1	12
385.839	1	3
387.035	1	0
388.230	1	1
389.426	1	0
390.622	1	-10
391.817	1	-9
393.013	1	5
394.208	1	5
395.404	1	13
396.599	1	2
397.795	1	6
398.990	1	1
400.186	1	4
401.381	1	7
402.576	1	13
403.771	1	1
404.967	1	-1
406.162	1	-4
407.357	1	6
408.552	1	-1
409.747	1	-2
410.942	1	-1
412.137	1	0
413.332	1	-5
414.526	1	0
415.721	1	1
416.916	1	-4
418.111	1	-2
419.305	1	3
420.500	1	5
421.695	1	3
422.889	1	-2
424.084	1	5
425.278	1	-5
426.472	1	-2
427.667	1	2
428.861	1	-2
430.055	1	0
431.250	1	-8
432.444	1	2
433.638	1	2
434.832	1	-13
436.026	1	5
437.220	1	-3
438.414	1	-4
439.608	1	4
440.802	1	12
441.996	1	1
443.190	1	-2
444.384	1	-3
445.578	1	9
446.771	1	1
447.965	1	0
449.159	1	-11
450.352	1	-1
451.546	1	4
452.739	1	11
453.933	1	11
455.126	1	-1
456.320	1	2
457.513	1	15
458.706	1	2
459.899	1	6
461.093	1	8
462.286	1	6
463.479	1	13
464.672	1	4
465.865	1	-6
467.058	1	10
468.251	1	-3
469.444	1	2
470.637	1	10
471.830	1	11
473.023	1	1
474.215	1	-1
475.408	1	7
476.601	1	-2
477.793	1	7
478.986	1	-1
480.179	1	7
481.371	1	1
482.564	1	-10
483.756	1	9
484.948	1	-9
486.141	1	-8
487.333	1	3
488.525	1	0
489.718	1	5
490.910	1	0
492.102	1	-2
493.294	1	11
494.486	1	2
495.678	1	11
496.870	1	-2
498.062	1	-1
499.254	1	1
500.446	1	5
501.638	1	8
502.829	1	-4
504.021	1	11
505.213	1	-5
506.404	1	-2
507.596	1	7
508.788	1	-5
509.979	1	-4
511.171	1	8
512.362	1	8
513.553	1	-9
514.745	1	3
515.936	1	6
517.127	1	-5
518.319	1	0
519.510	1	-2
520.701	1	-7
521.892	1	-10
523.083	1	3
524.274	1	-5
525.465	1	0
526.656	1	13
527.847	1	-7
529.038	1	-8
530.229	1	2
531.419	1	-1
532.610	1	-2
533.801	1	-5
534.991	1	6
536.182	1	-3
537.373	1	-8
538.563	1	3
539.754	1	-7
540.944	1	-1
542.134	1	8
543.325	1	-4
544.515	1	-4
545.705	1	13
546.896	1	1
548.086	1	-3
549.276	1	1
550.466	1	0
551.656	1	-10
552.846	1	1
554.036	1	9
555.226	1	-9
556.416	1	0
557.606	1	-10
558.796	1	-3
559.986	1	-1
561.175	1	6
562.365	1	0
563.555	1	11
564.744	1	2
565.934	1	7
567.123	1	12
568.313	1	-5
569.502	1	4
570.692	1	0
571.881	1	0
573.070	1	3
574.260	1	-6
575.449	1	3
576.638	1	-2
577.827	1	6
579.016	1	20
580.205	1	5
581.394	1	-7
582.583	1	-10
583.772	1	7
584.961	1	2
586.150	1	6
587.339	1	2
588.528	1	3
589.717	1	11
590.905	1	8
592.094	1	9
593.283	1	1
594.471	1	2
595.660	1	-1
596.848	1	7
598.037	1	-1
599.225	1	3
600.413	1	11
601.602	1	2
602.790	1	4
603.978	1	3
605.166	1	1
606.355	1	11
607.543	1	-8
608.731	1	-5
609.919	1	-3
611.107	1	13
612.295	1	-4
613.483	1	-2
614.671	1	3
615.858	1	9
617.046	1	10
618.234	1	0
619.422	1	-5
620.609	1	2
621.797	1	-1
622.985	1	9
624.172	1	9
625.360	1	-4
626.547	1	0
627.735	1	5
628.922	1	-2
630.109	1	-3
631.297	1	0
632.484	1	-3
633.671	1	0
634.858	1	8
636.045	1	2
637.232	1	1
638.419	1	10
639.606	1	13
640.793	1	22
641.980	1	-5
643.167	1	11
644.354	1	6
645.541	1	-4
646.728	1	3
647.914	1	-8
649.101	1	9
650.288	1	-11
651.474	1	7
652.661	1	7
653.847	1	1
655.034	1	-1
656.220	1	9
657.406	1	4
658.593	1	-4
659.779	1	4
660.965	1	1
662.152	1	2
663.338	1	-2
664.524	1	2
665.710	1	-3
666.896	1	-4
668.082	1	-6
669.268	1	0
670.454	1	6
671.640	1	-10
672.826	1	-16
674.011	1	-5
675.197	1	0
676.383	1	-1
677.569	1	0
678.754	1	-5
679.940	1	-5
681.125	1	4
682.311	1	-5
683.496	1	-9
684.682	1	6
685.867	1	9
687.053	1	7
688.238	1	-1
688.746	1	7

File: GaN_sample E_spot4_UVVIS_68 K_200um_200 ms 2x2mm1_37.txt
340.368	1	-1
341.565	1	-1
342.763	1	-7
343.960	1	-3
345.157	1	1
346.354	1	1
347.552	1	-1
348.749	1	13
349.946	1	9
351.143	1	-5
352.340	1	3
353.537	1	3
354.734	1	0
355.931	1	0
357.127	1	8
358.324	1	-6
359.521	1	0
360.718	1	-3
361.914	1	-3
363.111	1	11
364.308	1	-6
365.504	1	1
366.701	1	1
367.897	1	0
369.093	1	-3
370.290	1	1
371.486	1	14
372.682	1	-8
373.879	1	1
375.075	1	8
376.271	1	-3
377.467	1	-7
378.663	1	-2
379.859	1	-2
381.055	1	6
382.251	1	2
383.447	1	8
384.643	1	2
385.839	1	-3
387.035	1	-3
388.230	1	5
389.426	1	0
390.622	1	-5
391.817	1	-6
393.013	1	8
394.208	1	2
395.404	1	11
396.599	1	4
397.795	1	-5
398.990	1	7
400.186	1	2
401.381	1	7
402.576	1	-1
403.771	1	7
404.967	1	-5
406.162	1	2
407.357	1	3
408.552	1	-1
409.747	1	-10
410.942	1	5
412.137	1	3
413.332	1	-5
414.526	1	8
415.721	1	1
416.916	1	-3
418.111	1	-4
419.305	1	-4
420.500	1	1
421.695	1	-2
422.889	1	4
424.084	1	1
425.278	1	-8
426.472	1	-8
427.667	1	4
428.861	1	-8
430.055	1	4
431.250	1	-12
432.444	1	0
433.638	1	1
434.832	1	1
436.026	1	1
437.220	1	4
438.414	1	2
439.608	1	6
440.802	1	7
441.996	1	0
443.190	1	-11
444.384	1	8
445.578	1	10
446.771	1	4
447.965	1	-2
449.159	1	1
450.352	1	17
451.546	1	4
452.739	1	3
453.933	1	6
455.126	1	-1
456.320	1	7
457.513	1	16
458.706	1	-3
459.899	1	13
461.093	1	9
462.286	1	5
463.479	1	5
464.672	1	2
465.865	1	-6
467.058	1	12
468.251	1	5
469.444	1	1
470.637	1	0
471.830	1	15
473.023	1	-9
474.215	1	-5
475.408	1	2
476.601	1	3
477.793	1	0
478.986	1	17
480.179	1	9
481.371	1	4
482.564	1	-8
483.756	1	17
484.948	1	-2
486.141	1	-3
487.333	1	1
488.525	1	-1
489.718	1	-6
490.910	1	-5
492.102	1	-5
493.294	1	8
494.486	1	8
495.678	1	8
496.870	1	-1
498.062	1	3
499.254	1	1
500.446	1	4
501.638	1	4
502.829	1	7
504.021	1	8
505.213	1	-10
506.404	1	-6
507.596	1	3
508.788	1	-5
509.979	1	4
511.171	1	14
512.362	1	3
513.553	1	-8
514.745	1	0
515.936	1	1
517.127	1	3
518.319	1	-3
519.510	1	8
520.701	1	-1
521.892	1	-14
523.083	1	-5
524.274	1	-5
525.465	1	-1
526.656	1	8
527.847	1	-10
529.038	1	7
530.229	1	-2
531.419	1	8
532.610	1	-5
533.801	1	-1
534.991	1	3
536.182	1	5
537.373	1	-7
538.563	1	0
539.754	1	-4
540.944	1	1
542.134	1	7
543.325	1	-8
544.515	1	-4
545.705	1	6
546.896	1	-2
548.086	1	4
549.276	1	12
550.466	1	-8
551.656	1	-1
552.846	1	10
554.036	1	9
555.226	1	-8
556.416	1	10
557.606	1	-11
558.796	1	1
559.986	1	-8
561.175	1	0
562.365	1	-2
563.555	1	9
564.744	1	9
565.934	1	5
567.123	1	16
568.313	1	-4
569.502	1	1
570.692	1	8
571.881	1	9
573.070	1	0
574.260	1	3
575.449	1	5
576.638	1	-1
577.827	1	12
579.016	1	7
580.205	1	-2
581.394	1	-1
582.583	1	-12
583.772	1	4
584.961	1	6
586.150	1	6
587.339	1	2
588.528	1	1
589.717	1	3
590.905	1	10
592.094	1	-2
593.283	1	5
594.471	1	4
595.660	1	-1
596.848	1	13
598.037	1	-6
599.225	1	7
600.413	1	0
601.602	1	1
602.790	1	-5
603.978	1	-1
605.166	1	-7
606.355	1	6
607.543	1	1
608.731	1	-4
609.919	1	-8
611.107	1	2
612.295	1	4
613.483	1	10
614.671	1	6
615.858	1	0
617.046	1	4
618.234	1	3
619.422	1	5
620.609	1	0
621.797	1	8
622.985	1	7
624.172	1	10
625.360	1	-12
626.547	1	0
627.735	1	5
628.922	1	-2
630.109	1	-3
631.297	1	0
632.484	1	-7
633.671	1	1
634.858	1	9
636.045	1	1
637.232	1	-1
638.419	1	4
639.606	1	9
640.793	1	5
641.980	1	3
643.167	1	2
644.354	1	6
645.541	1	-16
646.728	1	4
647.914	1	-2
649.101	1	0
650.288	1	-11
651.474	1	1
652.661	1	10
653.847	1	5
655.034	1	1
656.220	1	8
657.406	1	1
658.593	1	-3
659.779	1	-1
660.965	1	1
662.152	1	0
663.338	1	2
664.524	1	-6
665.710	1	-4
666.896	1	-1
668.082	1	4
669.268	1	3
670.454	1	3
671.640	1	-8
672.826	1	-11
674.011	1	3
675.197	1	-3
676.383	1	-4
677.569	1	-8
678.754	1	1
679.940	1	0
681.125	1	-3
682.311	1	-7
683.496	1	-6
684.682	1	13
685.867	1	-3
687.053	1	0
688.238	1	-1
688.746	1	-1

File: GaN_sample E_spot4_UVVIS_68 K_200um_200 ms 2x2mm1_41.txt
340.368	1	6
341.565	1	-6
342.763	1	-1
343.960	1	2
345.157	1	5
346.354	1	-5
347.552	1	7
348.749	1	5
349.946	1	9
351.143	1	-13
352.340	1	1
353.537	1	-5
354.734	1	-1
355.931	1	3
357.127	1	0
358.324	1	-2
359.521	1	0
360.718	1	1
361.914	1	7
363.111	1	7
364.308	1	8
365.504	1	1
366.701	1	-3
367.897	1	1
369.093	1	7
370.290	1	1
371.486	1	1
372.682	1	-3
373.879	1	6
375.075	1	9
376.271	1	-2
377.467	1	0
378.663	1	-7
379.859	1	1
381.055	1	10
382.251	1	0
383.447	1	-1
384.643	1	1
385.839	1	-4
387.035	1	-3
388.230	1	-2
389.426	1	7
390.622	1	-3
391.817	1	2
393.013	1	16
394.208	1	8
395.404	1	6
396.599	1	4
397.795	1	2
398.990	1	3
400.186	1	8
401.381	1	0
402.576	1	8
403.771	1	0
404.967	1	7
406.162	1	-9
407.357	1	-2
408.552	1	13
409.747	1	-3
410.942	1	1
412.137	1	8
413.332	1	5
414.526	1	4
415.721	1	4
416.916	1	4
418.111	1	-2
419.305	1	-4
420.500	1	6
421.695	1	4
422.889	1	11
424.084	1	0
425.278	1	-1
426.472	1	-6
427.667	1	6
428.861	1	-2
430.055	1	-3
431.250	1	-8
432.444	1	10
433.638	1	-8
434.832	1	2
436.026	1	2
437.220	1	4
438.414	1	1
439.608	1	7
440.802	1	2
441.996	1	3
443.190	1	-5
444.384	1	2
445.578	1	7
446.771	1	-2
447.965	1	-6
449.159	1	-14
450.352	1	13
451.546	1	5
452.739	1	-1
453.933	1	3
455.126	1	8
456.320	1	3
457.513	1	6
458.706	1	-1
459.899	1	16
461.093	1	9
462.286	1	5
463.479	1	7
464.672	1	3
465.865	1	3
467.058	1	1
468.251	1	-3
469.444	1	4
470.637	1	12
471.830	1	6
473.023	1	2
474.215	1	-4
475.408	1	-2
476.601	1	4
477.793	1	5
478.986	1	-4
480.179	1	3
481.371	1	2
482.564	1	-3
483.756	1	6
484.948	1	-6
486.141	1	-12
487.333	1	6
488.525	1	5
489.718	1	-8
490.910	1	-3
492.102	1	-2
493.294	1	4
494.486	1	3
495.678	1	12
496.870	1	2
498.062	1	5
499.254	1	0
500.446	1	15
501.638	1	-2
502.829	1	7
504.021	1	16
505.213	1	2
506.404	1	-1
507.596	1	11
508.788	1	-6
509.979	1	-2
511.171	1	10
512.362	1	-2
513.553	1	-2
514.745	1	5
515.936	1	7
517.127	1	3
518.319	1	2
519.510	1	-11
520.701	1	5
521.892	1	-7
523.083	1	3
524.274	1	-9
525.465	1	-5
526.656	1	10
527.847	1	-3
529.038	1	2
530.229	1	6
531.419	1	12
532.610	1	0
533.801	1	5
534.991	1	7
536.182	1	-2
537.373	1	-9
538.563	1	9
539.754	1	4
540.944	1	-4
542.134	1	6
543.325	1	4
544.515	1	-1
545.705	1	5
546.896	1	-3
548.086	1	2
549.276	1	7
550.466	1	-4
551.656	1	-9
552.846	1	5
554.036	1	7
555.226	1	-12
556.416	1	0
557.606	1	-13
558.796	1	6
559.986	1	-3
561.175	1	1
562.365	1	0
563.555	1	16
564.744	1	5
565.934	1	0
567.123	1	14
568.313	1	-5
569.502	1	3
570.692	1	2
571.881	1	11
573.070	1	10
574.260	1	3
575.449	1	3
576.638	1	8
577.827	1	8
579.016	1	18
580.205	1	2
581.394	1	-7
582.583	1	-7
583.772	1	1
584.961	1	-1
586.150	1	-5
587.339	1	2
588.528	1	-1
589.717	1	5
590.905	1	-2
592.094	1	2
593.283	1	9
594.471	1	0
595.660	1	-1
596.848	1	11
598.037	1	12
599.225	1	0
600.413	1	5
601.602	1	13
602.790	1	2
603.978	1	2
605.166	1	-1
606.355	1	3
607.543	1	1
608.731	1	-1
609.919	1	-8
611.107	1	3
612.295	1	-4
613.483	1	8
614.671	1	8
615.858	1	5
617.046	1	2
618.234	1	6
619.422	1	1
620.609	1	0
621.797	1	2
622.985	1	1
624.172	1	12
625.360	1	-6
626.547	1	3
627.735	1	8
628.922	1	-9
630.109	1	1
631.297	1	-2
632.484	1	-2
633.671	1	-4
634.858	1	1
636.045	1	1
637.232	1	-7
638.419	1	8
639.606	1	18
640.793	1	3
641.980	1	0
643.167	1	14
644.354	1	6
645.541	1	-6
646.728	1	8
647.914	1	0
649.101	1	6
650.288	1	-3
651.474	1	8
652.661	1	1
653.847	1	3
655.034	1	11
656.220	1	7
657.406	1	3
658.593	1	-10
659.779	1	-7
660.965	1	0
662.152	1	8
663.338	1	-3
664.524	1	-4
665.710	1	4
666.896	1	4
668.082	1	-4
669.268	1	-4
670.454	1	15
671.640	1	-7
672.826	1	-22
674.011	1	2
675.197	1	1
676.383	1	-3
677.569	1	-5
678.754	1	6
679.940	1	-6
681.125	1	1
682.311	1	7
683.496	1	-5
684.682	1	10
685.867	1	7
687.053	1	3
688.238	1	-8
688.746	1	2

File: GaN_sample E_spot4_UVVIS_68 K_200um_200 ms 2x2mm1_55.txt
340.368	1	-1
341.565	1	-3
342.763	1	-5
343.960	1	2
345.157	1	2
346.354	1	-2
347.552	1	2
348.749	1	9
349.946	1	1
351.143	1	0
352.340	1	-4
353.537	1	7
354.734	1	-8
355.931	1	3
357.127	1	-4
358.324	1	4
359.521	1	-1
360.718	1	-11
361.914	1	-6
363.111	1	13
364.308	1	1
365.504	1	-2
366.701	1	-10
367.897	1	2
369.093	1	3
370.290	1	1
371.486	1	7
372.682	1	0
373.879	1	7
375.075	1	19
376.271	1	4
377.467	1	-13
378.663	1	0
379.859	1	-5
381.055	1	-4
382.251	1	9
383.447	1	12
384.643	1	0
385.839	1	7
387.035	1	-6
388.230	1	0
389.426	1	1
390.622	1	0
391.817	1	-6
393.013	1	0
394.208	1	7
395.404	1	0
396.599	1	0
397.795	1	12
398.990	1	2
400.186	1	1
401.381	1	5
402.576	1	11
403.771	1	-1
404.967	1	1
406.162	1	-4
407.357	1	3
408.552	1	6
409.747	1	-5
410.942	1	3
412.137	1	3
413.332	1	1
414.526	1	4
415.721	1	-1
416.916	1	3
418.111	1	4
419.305	1	-4
420.500	1	7
421.695	1	2
422.889	1	2
424.084	1	4
425.278	1	0
426.472	1	3
427.667	1	8
428.861	1	-1
430.055	1	1
431.250	1	-8
432.444	1	6
433.638	1	1
434.832	1	-1
436.026	1	-1
437.220	1	12
438.414	1	1
439.608	1	-1
440.802	1	12
441.996	1	1
443.190	1	-9
444.384	1	0
445.578	1	5
446.771	1	-1
447.965	1	-1
449.159	1	0
450.352	1	3
451.546	1	2
452.739	1	4
453.933	1	7
455.126	1	3
456.320	1	10
457.513	1	5
458.706	1	3
459.899	1	15
461.093	1	-2
462.286	1	8
463.479	1	14
464.672	1	0
465.865	1	-7
467.058	1	4
468.251	1	5
469.444	1	-8
470.637	1	7
471.830	1	13
473.023	1	-2
474.215	1	-6
475.408	1	5
476.601	1	6
477.793	1	10
478.986	1	-2
480.179	1	7
481.371	1	-3
482.564	1	-12
483.756	1	14
484.948	1	-2
486.141	1	1
487.333	1	3
488.525	1	-2
489.718	1	0
490.910	1	-9
492.102	1	0
493.294	1	2
494.486	1	7
495.678	1	10
496.870	1	1
498.062	1	-1
499.254	1	-10
500.446	1	-2
501.638	1	3
502.829	1	0
504.021	1	22
505.213	1	9
506.404	1	-1
507.596	1	9
508.788	1	9
509.979	1	-3
511.171	1	8
512.362	1	-3
513.553	1	-4
514.745	1	-4
515.936	1	5
517.127	1	-7
518.319	1	-3
519.510	1	0
520.701	1	13
521.892	1	-2
523.083	1	1
524.274	1	-5
525.465	1	4
526.656	1	19
527.847	1	-10
529.038	1	2
530.229	1	0
531.419	1	10
532.610	1	6
533.801	1	4
534.991	1	-3
536.182	1	0
537.373	1	-12
538.563	1	-3
539.754	1	-5
540.944	1	-11
542.134	1	7
543.325	1	1
544.515	1	-1
545.705	1	12
546.896	1	7
548.086	1	5
549.276	1	8
550.466	1	-4
551.656	1	-6
552.846	1	3
554.036	1	3
555.226	1	-10
556.416	1	2
557.606	1	-6
558.796	1	2
559.986	1	-4
561.175	1	3
562.365	1	1
563.555	1	16
564.744	1	0
565.934	1	15
567.123	1	19
568.313	1	-4
569.502	1	0
570.692	1	5
571.881	1	6
573.070	1	-3
574.260	1	-4
575.449	1	18
576.638	1	-2
577.827	1	-2
579.016	1	12
580.205	1	-1
581.394	1	0
582.583	1	-12
583.772	1	10
584.961	1	2
586.150	1	-6
587.339	1	15
588.528	1	-3
589.717	1	-4
590.905	1	13
592.094	1	2
593.283	1	7
594.471	1	1
595.660	1	-5
596.848	1	4
598.037	1	7
599.225	1	-3
600.413	1	0
601.602	1	3
602.790	1	8
603.978	1	4
605.166	1	8
606.355	1	6
607.543	1	-5
608.731	1	-10
609.919	1	-2
611.107	1	4
612.295	1	-2
613.483	1	12
614.671	1	8
615.858	1	2
617.046	1	1
618.234	1	4
619.422	1	-4
620.609	1	3
621.797	1	-3
622.985	1	-6
624.172	1	8
625.360	1	3
626.547	1	12
627.735	1	5
628.922	1	-2
630.109	1	3
631.297	1	-1
632.484	1	-8
633.671	1	0
634.858	1	9
636.045	1	5
637.232	1	-1
638.419	1	7
639.606	1	18
640.793	1	1
641.980	1	1
643.167	1	15
644.354	1	3
645.541	1	-9
646.728	1	4
647.914	1	-2
649.101	1	-1
650.288	1	4
651.474	1	6
652.661	1	9
653.847	1	12
655.034	1	-2
656.220	1	0
657.406	1	3
658.593	1	-3
659.779	1	0
660.965	1	3
662.152	1	6
663.338	1	-5
664.524	1	-5
665.710	1	-3
666.896	1	5
668.082	1	-5
669.268	1	-3
670.454	1	7
671.640	1	-4
672.826	1	-14
674.011	1	-2
675.197	1	-8
676.383	1	-5
677.569	1	-1
678.754	1	5
679.940	1	10
681.125	1	8
682.311	1	0
683.496	1	-3
684.682	1	-2
685.867	1	2
687.053	1	10
688.238	1	3
688.746	1	3

File: GaN_sample E_spot4_UVVIS_68 K_200um_200 ms 2x2mm1_66.txt
340.368	1	0
341.565	1	-7
342.763	1	-1
343.960	1	1
345.157	1	4
346.354	1	4
347.552	1	-3
348.749	1	1
349.946	1	6
351.143	1	-8
352.340	1	1
353.537	1	3
354.734	1	3
355.931	1	4
357.127	1	1
358.324	1	4
359.521	1	2
360.718	1	-4
361.914	1	8
363.111	1	9
364.308	1	-2
365.504	1	0
366.701	1	-13
367.897	1	-9
369.093	1	4
370.290	1	-3
371.486	1	10
372.682	1	-6
373.879	1	5
375.075	1	8
376.271	1	2
377.467	1	-5
378.663	1	-9
379.859	1	-4
381.055	1	-1
382.251	1	9
383.447	1	6
384.643	1	6
385.839	1	3
387.035	1	6
388.230	1	-5
389.426	1	8
390.622	1	7
391.817	1	1
393.013	1	12
394.208	1	8
395.404	1	1
396.599	1	-1
397.795	1	11
398.990	1	-1
400.186	1	8
401.381	1	-2
402.576	1	6
403.771	1	4
404.967	1	1
406.162	1	-4
407.357	1	-1
408.552	1	6
409.747	1	-1
410.942	1	7
412.137	1	7
413.332	1	1
414.526	1	-3
415.721	1	3
416.916	1	3
418.111	1	3
419.305	1	4
420.500	1	5
421.695	1	4
422.889	1	5
424.084	1	9
425.278	1	1
426.472	1	-1
427.667	1	11
428.861	1	1
430.055	1	5
431.250	1	-7
432.444	1	17
433.638	1	-5
434.832	1	-7
436.026	1	5
437.220	1	11
438.414	1	-1
439.608	1	0
440.802	1	13
441.996	1	-4
443.190	1	-8
444.384	1	7
445.578	1	6
446.771	1	8
447.965	1	-3
449.159	1	-9
450.352	1	0
451.546	1	0
452.739	1	7
453.933	1	2
455.126	1	7
456.320	1	2
457.513	1	4
458.706	1	8
459.899	1	12
461.093	1	7
462.286	1	8
463.479	1	8
464.672	1	-1
465.865	1	-3
467.058	1	5
468.251	1	-6
469.444	1	0
470.637	1	9
471.830	1	14
473.023	1	-4
474.215	1	-1
475.408	1	6
476.601	1	3
477.793	1	7
478.986	1	3
480.179	1	3
481.371	1	7
482.564	1	-8
483.756	1	8
484.948	1	10
486.141	1	-7
487.333	1	11
488.525	1	1
489.718	1	-3
490.910	1	4
492.102	1	-7
493.294	1	9
494.486	1	6
495.678	1	0
496.870	1	8
498.062	1	-7
499.254	1	6
500.446	1	2
501.638	1	0
502.829	1	4
504.021	1	14
505.213	1	1
506.404	1	3
507.596	1	1
508.788	1	-11
509.979	1	3
511.171	1	14
512.362	1	0
513.553	1	-7
514.745	1	-1
515.936	1	1
517.127	1	5
518.319	1	-1
519.510	1	0
520.701	1	-2
521.892	1	-10
523.083	1	-3
524.274	1	8
525.465	1	3
526.656	1	8
527.847	1	-8
529.038	1	5
530.229	1	4
531.419	1	15
532.610	1	2
533.801	1	4
534.991	1	1
536.182	1	6
537.373	1	-2
538.563	1	-8
539.754	1	0
540.944	1	4
542.134	1	16
543.325	1	-6
544.515	1	0
545.705	1	6
546.896	1	2
548.086	1	3
549.276	1	12
550.466	1	-6
551.656	1	-8
552.846	1	3
554.036	1	7
555.226	1	-4
556.416	1	-9
557.606	1	-6
558.796	1	-2
559.986	1	-2
561.175	1	-9
562.365	1	7
563.555	1	2
564.744	1	7
565.934	1	4
567.123	1	22
568.313	1	2
569.502	1	-1
570.692	1	5
571.881	1	3
573.070	1	6
574.260	1	5
575.449	1	2
576.638	1	7
577.827	1	4
579.016	1	13
580.205	1	0
581.394	1	-10
582.583	1	-1
583.772	1	2
584.961	1	6
586.150	1	6
587.339	1	-1
588.528	1	11
589.717	1	6
590.905	1	1
592.094	1	6
593.283	1	14
594.471	1	0
595.660	1	-7
596.848	1	5
598.037	1	-2
599.225	1	4
600.413	1	-5
601.602	1	5
602.790	1	8
603.978	1	-6
605.166	1	-4
606.355	1	5
607.543	1	-6
608.731	1	-11
609.919	1	-3
611.107	1	6
612.295	1	11
613.483	1	12
614.671	1	-2
615.858	1	7
617.046	1	6
618.234	1	-1
619.422	1	-8
620.609	1	6
621.797	1	-1
622.985	1	0
624.172	1	12
625.360	1	-5
626.547	1	8
627.735	1	2
628.922	1	-1
630.109	1	-5
631.297	1	0
632.484	1	-1
633.671	1	-4
634.858	1	7
636.045	1	5
637.232	1	6
638.419	1	8
639.606	1	11
640.793	1	0
641.980	1	-2
643.167	1	9
644.354	1	1
645.541	1	-8
646.728	1	4
647.914	1	-2
649.101	1	7
650.288	1	2
651.474	1	-2
652.661	1	6
653.847	1	-1
655.034	1	-4
656.220	1	-4
657.406	1	-3
658.593	1	-9
659.779	1	-3
660.965	1	-1
662.152	1	2
663.338	1	-7
664.524	1	-7
665.710	1	0
666.896	1	-2
668.082	1	-3
669.268	1	1
670.454	1	3
671.640	1	-11
672.826	1	-14
674.011	1	2
675.197	1	-3
676.383	1	7
677.569	1	-3
678.754	1	-4
679.940	1	-1
681.125	1	3
682.311	1	5
683.496	1	-4
684.682	1	9
685.867	1	4
687.053	1	9
688.238	1	1
688.746	1	6