Folder: cryo-il_analysis/Analysis/GaN_68K_200ms (part 5)

File: GaN_sample E_spot4_UVVIS_68 K_200um_200 ms 2x2mm1_125.txt
340.368	1	8
341.565	1	-2
342.763	1	5
343.960	1	2
345.157	1	8
346.354	1	9
347.552	1	9
348.749	1	3
349.946	1	14
351.143	1	6
352.340	1	5
353.537	1	13
354.734	1	12
355.931	1	18
357.127	1	13
358.324	1	34
359.521	1	35
360.718	1	49
361.914	1	66
363.111	1	127
364.308	1	183
365.504	1	272
366.701	1	313
367.897	1	298
369.093	1	242
370.290	1	191
371.486	1	160
372.682	1	126
373.879	1	123
375.075	1	93
376.271	1	79
377.467	1	74
378.663	1	69
379.859	1	77
381.055	1	99
382.251	1	144
383.447	1	207
384.643	1	313
385.839	1	385
387.035	1	440
388.230	1	426
389.426	1	431
390.622	1	397
391.817	1	374
393.013	1	351
394.208	1	352
395.404	1	355
396.599	1	372
397.795	1	405
398.990	1	396
400.186	1	377
401.381	1	315
402.576	1	283
403.771	1	271
404.967	1	261
406.162	1	250
407.357	1	237
408.552	1	235
409.747	1	215
410.942	1	204
412.137	1	204
413.332	1	179
414.526	1	162
415.721	1	139
416.916	1	134
418.111	1	145
419.305	1	129
420.500	1	135
421.695	1	119
422.889	1	111
424.084	1	101
425.278	1	82
426.472	1	86
427.667	1	98
428.861	1	74
430.055	1	73
431.250	1	63
432.444	1	75
433.638	1	64
434.832	1	66
436.026	1	49
437.220	1	63
438.414	1	41
439.608	1	51
440.802	1	50
441.996	1	38
443.190	1	27
444.384	1	57
445.578	1	51
446.771	1	38
447.965	1	22
449.159	1	38
450.352	1	39
451.546	1	35
452.739	1	21
453.933	1	35
455.126	1	21
456.320	1	23
457.513	1	29
458.706	1	27
459.899	1	39
461.093	1	30
462.286	1	22
463.479	1	30
464.672	1	17
465.865	1	19
467.058	1	43
468.251	1	18
469.444	1	23
470.637	1	37
471.830	1	37
473.023	1	14
474.215	1	19
475.408	1	21
476.601	1	25
477.793	1	23
478.986	1	14
480.179	1	25
481.371	1	16
482.564	1	19
483.756	1	33
484.948	1	21
486.141	1	21
487.333	1	33
488.525	1	28
489.718	1	36
490.910	1	36
492.102	1	33
493.294	1	52
494.486	1	53
495.678	1	51
496.870	1	52
498.062	1	53
499.254	1	53
500.446	1	71
501.638	1	76
502.829	1	77
504.021	1	93
505.213	1	83
506.404	1	95
507.596	1	97
508.788	1	92
509.979	1	102
511.171	1	111
512.362	1	109
513.553	1	111
514.745	1	138
515.936	1	127
517.127	1	134
518.319	1	138
519.510	1	135
520.701	1	139
521.892	1	140
523.083	1	156
524.274	1	148
525.465	1	157
526.656	1	167
527.847	1	152
529.038	1	167
530.229	1	173
531.419	1	184
532.610	1	184
533.801	1	171
534.991	1	158
536.182	1	153
537.373	1	148
538.563	1	165
539.754	1	153
540.944	1	151
542.134	1	151
543.325	1	142
544.515	1	140
545.705	1	139
546.896	1	142
548.086	1	141
549.276	1	141
550.466	1	136
551.656	1	124
552.846	1	146
554.036	1	123
555.226	1	120
556.416	1	123
557.606	1	116
558.796	1	113
559.986	1	101
561.175	1	103
562.365	1	101
563.555	1	109
564.744	1	100
565.934	1	90
567.123	1	105
568.313	1	78
569.502	1	77
570.692	1	84
571.881	1	78
573.070	1	84
574.260	1	64
575.449	1	75
576.638	1	66
577.827	1	74
579.016	1	72
580.205	1	63
581.394	1	50
582.583	1	55
583.772	1	60
584.961	1	62
586.150	1	65
587.339	1	51
588.528	1	55
589.717	1	54
590.905	1	48
592.094	1	50
593.283	1	55
594.471	1	46
595.660	1	31
596.848	1	53
598.037	1	38
599.225	1	41
600.413	1	41
601.602	1	36
602.790	1	32
603.978	1	36
605.166	1	18
606.355	1	37
607.543	1	22
608.731	1	27
609.919	1	28
611.107	1	39
612.295	1	31
613.483	1	40
614.671	1	16
615.858	1	37
617.046	1	26
618.234	1	20
619.422	1	20
620.609	1	23
621.797	1	17
622.985	1	20
624.172	1	30
625.360	1	13
626.547	1	22
627.735	1	21
628.922	1	19
630.109	1	12
631.297	1	9
632.484	1	19
633.671	1	21
634.858	1	25
636.045	1	23
637.232	1	12
638.419	1	23
639.606	1	32
640.793	1	20
641.980	1	12
643.167	1	23
644.354	1	15
645.541	1	12
646.728	1	23
647.914	1	9
649.101	1	9
650.288	1	11
651.474	1	10
652.661	1	24
653.847	1	13
655.034	1	14
656.220	1	18
657.406	1	13
658.593	1	6
659.779	1	11
660.965	1	13
662.152	1	13
663.338	1	7
664.524	1	2
665.710	1	9
666.896	1	12
668.082	1	4
669.268	1	11
670.454	1	17
671.640	1	-1
672.826	1	-6
674.011	1	16
675.197	1	6
676.383	1	7
677.569	1	13
678.754	1	8
679.940	1	12
681.125	1	11
682.311	1	15
683.496	1	9
684.682	1	23
685.867	1	15
687.053	1	8
688.238	1	23
688.746	1	17

File: GaN_sample E_spot4_UVVIS_68 K_200um_200 ms 2x2mm1_126.txt
340.368	1	5
341.565	1	4
342.763	1	4
343.960	1	4
345.157	1	7
346.354	1	9
347.552	1	5
348.749	1	12
349.946	1	9
351.143	1	-8
352.340	1	8
353.537	1	2
354.734	1	5
355.931	1	24
357.127	1	16
358.324	1	25
359.521	1	30
360.718	1	42
361.914	1	68
363.111	1	106
364.308	1	149
365.504	1	212
366.701	1	264
367.897	1	241
369.093	1	215
370.290	1	161
371.486	1	142
372.682	1	108
373.879	1	99
375.075	1	104
376.271	1	68
377.467	1	66
378.663	1	49
379.859	1	60
381.055	1	85
382.251	1	120
383.447	1	175
384.643	1	240
385.839	1	310
387.035	1	340
388.230	1	336
389.426	1	336
390.622	1	318
391.817	1	286
393.013	1	281
394.208	1	279
395.404	1	272
396.599	1	307
397.795	1	316
398.990	1	313
400.186	1	288
401.381	1	251
402.576	1	223
403.771	1	209
404.967	1	204
406.162	1	204
407.357	1	189
408.552	1	191
409.747	1	177
410.942	1	167
412.137	1	152
413.332	1	136
414.526	1	134
415.721	1	112
416.916	1	111
418.111	1	106
419.305	1	103
420.500	1	96
421.695	1	95
422.889	1	92
424.084	1	86
425.278	1	66
426.472	1	71
427.667	1	75
428.861	1	50
430.055	1	66
431.250	1	46
432.444	1	58
433.638	1	45
434.832	1	45
436.026	1	53
437.220	1	49
438.414	1	52
439.608	1	46
440.802	1	42
441.996	1	35
443.190	1	34
444.384	1	36
445.578	1	39
446.771	1	23
447.965	1	22
449.159	1	23
450.352	1	33
451.546	1	23
452.739	1	23
453.933	1	24
455.126	1	24
456.320	1	30
457.513	1	35
458.706	1	32
459.899	1	28
461.093	1	33
462.286	1	28
463.479	1	26
464.672	1	14
465.865	1	16
467.058	1	28
468.251	1	15
469.444	1	14
470.637	1	32
471.830	1	28
473.023	1	15
474.215	1	14
475.408	1	22
476.601	1	17
477.793	1	19
478.986	1	18
480.179	1	28
481.371	1	24
482.564	1	14
483.756	1	28
484.948	1	7
486.141	1	25
487.333	1	29
488.525	1	34
489.718	1	23
490.910	1	26
492.102	1	38
493.294	1	44
494.486	1	54
495.678	1	46
496.870	1	44
498.062	1	44
499.254	1	58
500.446	1	73
501.638	1	54
502.829	1	55
504.021	1	91
505.213	1	73
506.404	1	71
507.596	1	90
508.788	1	99
509.979	1	89
511.171	1	107
512.362	1	111
513.553	1	106
514.745	1	104
515.936	1	106
517.127	1	121
518.319	1	128
519.510	1	126
520.701	1	143
521.892	1	115
523.083	1	134
524.274	1	135
525.465	1	129
526.656	1	151
527.847	1	135
529.038	1	158
530.229	1	155
531.419	1	159
532.610	1	149
533.801	1	144
534.991	1	148
536.182	1	142
537.373	1	142
538.563	1	131
539.754	1	120
540.944	1	120
542.134	1	140
543.325	1	131
544.515	1	130
545.705	1	133
546.896	1	126
548.086	1	131
549.276	1	129
550.466	1	107
551.656	1	104
552.846	1	122
554.036	1	116
555.226	1	105
556.416	1	108
557.606	1	95
558.796	1	90
559.986	1	87
561.175	1	84
562.365	1	83
563.555	1	94
564.744	1	78
565.934	1	82
567.123	1	81
568.313	1	77
569.502	1	73
570.692	1	75
571.881	1	62
573.070	1	69
574.260	1	69
575.449	1	68
576.638	1	62
577.827	1	70
579.016	1	69
580.205	1	48
581.394	1	41
582.583	1	41
583.772	1	53
584.961	1	56
586.150	1	42
587.339	1	39
588.528	1	58
589.717	1	42
590.905	1	41
592.094	1	50
593.283	1	30
594.471	1	38
595.660	1	31
596.848	1	44
598.037	1	34
599.225	1	38
600.413	1	26
601.602	1	24
602.790	1	19
603.978	1	22
605.166	1	22
606.355	1	30
607.543	1	15
608.731	1	25
609.919	1	17
611.107	1	35
612.295	1	20
613.483	1	29
614.671	1	34
615.858	1	22
617.046	1	18
618.234	1	19
619.422	1	22
620.609	1	19
621.797	1	17
622.985	1	15
624.172	1	27
625.360	1	10
626.547	1	21
627.735	1	18
628.922	1	15
630.109	1	15
631.297	1	2
632.484	1	19
633.671	1	7
634.858	1	26
636.045	1	10
637.232	1	19
638.419	1	27
639.606	1	23
640.793	1	21
641.980	1	8
643.167	1	17
644.354	1	21
645.541	1	6
646.728	1	17
647.914	1	8
649.101	1	20
650.288	1	12
651.474	1	11
652.661	1	13
653.847	1	18
655.034	1	11
656.220	1	7
657.406	1	22
658.593	1	-4
659.779	1	-5
660.965	1	14
662.152	1	5
663.338	1	10
664.524	1	-2
665.710	1	-1
666.896	1	4
668.082	1	9
669.268	1	17
670.454	1	11
671.640	1	-5
672.826	1	-2
674.011	1	11
675.197	1	13
676.383	1	15
677.569	1	10
678.754	1	5
679.940	1	3
681.125	1	14
682.311	1	12
683.496	1	2
684.682	1	26
685.867	1	12
687.053	1	15
688.238	1	10
688.746	1	7

File: GaN_sample E_spot4_UVVIS_68 K_200um_200 ms 2x2mm1_128.txt
340.368	1	6
341.565	1	2
342.763	1	10
343.960	1	2
345.157	1	11
346.354	1	5
347.552	1	6
348.749	1	11
349.946	1	15
351.143	1	3
352.340	1	7
353.537	1	9
354.734	1	8
355.931	1	18
357.127	1	20
358.324	1	13
359.521	1	35
360.718	1	35
361.914	1	68
363.111	1	101
364.308	1	133
365.504	1	182
366.701	1	219
367.897	1	233
369.093	1	200
370.290	1	148
371.486	1	125
372.682	1	110
373.879	1	97
375.075	1	79
376.271	1	77
377.467	1	56
378.663	1	47
379.859	1	53
381.055	1	68
382.251	1	100
383.447	1	141
384.643	1	210
385.839	1	250
387.035	1	287
388.230	1	297
389.426	1	273
390.622	1	248
391.817	1	239
393.013	1	237
394.208	1	233
395.404	1	236
396.599	1	246
397.795	1	266
398.990	1	257
400.186	1	237
401.381	1	202
402.576	1	190
403.771	1	180
404.967	1	158
406.162	1	167
407.357	1	162
408.552	1	154
409.747	1	139
410.942	1	134
412.137	1	130
413.332	1	111
414.526	1	96
415.721	1	97
416.916	1	95
418.111	1	94
419.305	1	92
420.500	1	83
421.695	1	88
422.889	1	73
424.084	1	72
425.278	1	48
426.472	1	64
427.667	1	69
428.861	1	56
430.055	1	56
431.250	1	36
432.444	1	53
433.638	1	39
434.832	1	28
436.026	1	35
437.220	1	52
438.414	1	33
439.608	1	38
440.802	1	42
441.996	1	29
443.190	1	18
444.384	1	35
445.578	1	30
446.771	1	17
447.965	1	13
449.159	1	24
450.352	1	28
451.546	1	28
452.739	1	23
453.933	1	22
455.126	1	23
456.320	1	19
457.513	1	28
458.706	1	22
459.899	1	28
461.093	1	20
462.286	1	22
463.479	1	29
464.672	1	14
465.865	1	18
467.058	1	28
468.251	1	7
469.444	1	20
470.637	1	22
471.830	1	27
473.023	1	12
474.215	1	21
475.408	1	17
476.601	1	21
477.793	1	27
478.986	1	17
480.179	1	24
481.371	1	25
482.564	1	16
483.756	1	27
484.948	1	18
486.141	1	18
487.333	1	28
488.525	1	19
489.718	1	25
490.910	1	26
492.102	1	36
493.294	1	41
494.486	1	41
495.678	1	42
496.870	1	34
498.062	1	45
499.254	1	59
500.446	1	57
501.638	1	57
502.829	1	61
504.021	1	74
505.213	1	67
506.404	1	70
507.596	1	88
508.788	1	79
509.979	1	79
511.171	1	87
512.362	1	84
513.553	1	79
514.745	1	96
515.936	1	105
517.127	1	99
518.319	1	116
519.510	1	114
520.701	1	122
521.892	1	111
523.083	1	126
524.274	1	110
525.465	1	123
526.656	1	145
527.847	1	128
529.038	1	127
530.229	1	125
531.419	1	139
532.610	1	148
533.801	1	138
534.991	1	132
536.182	1	121
537.373	1	116
538.563	1	118
539.754	1	128
540.944	1	113
542.134	1	128
543.325	1	108
544.515	1	109
545.705	1	113
546.896	1	116
548.086	1	104
549.276	1	120
550.466	1	104
551.656	1	96
552.846	1	110
554.036	1	108
555.226	1	90
556.416	1	96
557.606	1	73
558.796	1	91
559.986	1	78
561.175	1	77
562.365	1	79
563.555	1	77
564.744	1	74
565.934	1	72
567.123	1	80
568.313	1	59
569.502	1	69
570.692	1	59
571.881	1	73
573.070	1	66
574.260	1	60
575.449	1	62
576.638	1	57
577.827	1	57
579.016	1	66
580.205	1	51
581.394	1	44
582.583	1	42
583.772	1	46
584.961	1	37
586.150	1	38
587.339	1	51
588.528	1	41
589.717	1	41
590.905	1	43
592.094	1	31
593.283	1	34
594.471	1	29
595.660	1	31
596.848	1	31
598.037	1	26
599.225	1	24
600.413	1	21
601.602	1	38
602.790	1	25
603.978	1	21
605.166	1	16
606.355	1	27
607.543	1	16
608.731	1	17
609.919	1	16
611.107	1	33
612.295	1	26
613.483	1	25
614.671	1	22
615.858	1	24
617.046	1	21
618.234	1	19
619.422	1	15
620.609	1	18
621.797	1	15
622.985	1	19
624.172	1	20
625.360	1	4
626.547	1	18
627.735	1	18
628.922	1	13
630.109	1	4
631.297	1	13
632.484	1	14
633.671	1	13
634.858	1	15
636.045	1	11
637.232	1	11
638.419	1	20
639.606	1	26
640.793	1	23
641.980	1	5
643.167	1	17
644.354	1	13
645.541	1	-9
646.728	1	16
647.914	1	12
649.101	1	14
650.288	1	14
651.474	1	14
652.661	1	14
653.847	1	9
655.034	1	8
656.220	1	17
657.406	1	10
658.593	1	-3
659.779	1	6
660.965	1	12
662.152	1	10
663.338	1	9
664.524	1	3
665.710	1	-1
666.896	1	3
668.082	1	3
669.268	1	11
670.454	1	11
671.640	1	-5
672.826	1	2
674.011	1	16
675.197	1	2
676.383	1	17
677.569	1	0
678.754	1	12
679.940	1	8
681.125	1	18
682.311	1	10
683.496	1	3
684.682	1	13
685.867	1	13
687.053	1	19
688.238	1	22
688.746	1	22

File: GaN_sample E_spot4_UVVIS_68 K_200um_200 ms 2x2mm1_136.txt
340.368	1	2
341.565	1	-7
342.763	1	1
343.960	1	-2
345.157	1	8
346.354	1	7
347.552	1	5
348.749	1	5
349.946	1	9
351.143	1	-3
352.340	1	8
353.537	1	3
354.734	1	11
355.931	1	17
357.127	1	7
358.324	1	19
359.521	1	21
360.718	1	21
361.914	1	37
363.111	1	69
364.308	1	73
365.504	1	99
366.701	1	107
367.897	1	113
369.093	1	104
370.290	1	81
371.486	1	81
372.682	1	69
373.879	1	67
375.075	1	56
376.271	1	40
377.467	1	37
378.663	1	45
379.859	1	40
381.055	1	39
382.251	1	57
383.447	1	80
384.643	1	109
385.839	1	122
387.035	1	128
388.230	1	139
389.426	1	138
390.622	1	118
391.817	1	110
393.013	1	115
394.208	1	102
395.404	1	115
396.599	1	117
397.795	1	125
398.990	1	127
400.186	1	116
401.381	1	103
402.576	1	102
403.771	1	83
404.967	1	88
406.162	1	76
407.357	1	70
408.552	1	68
409.747	1	72
410.942	1	70
412.137	1	74
413.332	1	62
414.526	1	54
415.721	1	47
416.916	1	44
418.111	1	45
419.305	1	45
420.500	1	46
421.695	1	44
422.889	1	40
424.084	1	40
425.278	1	28
426.472	1	17
427.667	1	45
428.861	1	39
430.055	1	20
431.250	1	20
432.444	1	28
433.638	1	20
434.832	1	17
436.026	1	18
437.220	1	24
438.414	1	21
439.608	1	17
440.802	1	26
441.996	1	11
443.190	1	12
444.384	1	21
445.578	1	24
446.771	1	26
447.965	1	10
449.159	1	14
450.352	1	19
451.546	1	12
452.739	1	15
453.933	1	12
455.126	1	17
456.320	1	10
457.513	1	23
458.706	1	12
459.899	1	30
461.093	1	21
462.286	1	14
463.479	1	11
464.672	1	12
465.865	1	6
467.058	1	21
468.251	1	9
469.444	1	10
470.637	1	20
471.830	1	32
473.023	1	5
474.215	1	7
475.408	1	4
476.601	1	14
477.793	1	27
478.986	1	11
480.179	1	26
481.371	1	15
482.564	1	1
483.756	1	23
484.948	1	12
486.141	1	1
487.333	1	27
488.525	1	12
489.718	1	15
490.910	1	17
492.102	1	15
493.294	1	27
494.486	1	21
495.678	1	24
496.870	1	28
498.062	1	36
499.254	1	36
500.446	1	38
501.638	1	44
502.829	1	38
504.021	1	65
505.213	1	47
506.404	1	37
507.596	1	66
508.788	1	49
509.979	1	51
511.171	1	67
512.362	1	53
513.553	1	58
514.745	1	64
515.936	1	70
517.127	1	75
518.319	1	65
519.510	1	84
520.701	1	78
521.892	1	70
523.083	1	76
524.274	1	74
525.465	1	79
526.656	1	101
527.847	1	71
529.038	1	79
530.229	1	82
531.419	1	90
532.610	1	88
533.801	1	88
534.991	1	79
536.182	1	83
537.373	1	84
538.563	1	81
539.754	1	77
540.944	1	74
542.134	1	85
543.325	1	79
544.515	1	68
545.705	1	75
546.896	1	64
548.086	1	71
549.276	1	74
550.466	1	70
551.656	1	68
552.846	1	65
554.036	1	61
555.226	1	57
556.416	1	59
557.606	1	48
558.796	1	42
559.986	1	40
561.175	1	56
562.365	1	45
563.555	1	56
564.744	1	54
565.934	1	45
567.123	1	65
568.313	1	39
569.502	1	34
570.692	1	41
571.881	1	46
573.070	1	45
574.260	1	25
575.449	1	43
576.638	1	26
577.827	1	29
579.016	1	42
580.205	1	25
581.394	1	22
582.583	1	21
583.772	1	26
584.961	1	35
586.150	1	18
587.339	1	19
588.528	1	23
589.717	1	19
590.905	1	26
592.094	1	18
593.283	1	28
594.471	1	12
595.660	1	19
596.848	1	25
598.037	1	17
599.225	1	17
600.413	1	23
601.602	1	18
602.790	1	17
603.978	1	7
605.166	1	6
606.355	1	22
607.543	1	2
608.731	1	9
609.919	1	9
611.107	1	23
612.295	1	17
613.483	1	21
614.671	1	19
615.858	1	19
617.046	1	13
618.234	1	12
619.422	1	15
620.609	1	11
621.797	1	17
622.985	1	9
624.172	1	24
625.360	1	-5
626.547	1	5
627.735	1	18
628.922	1	8
630.109	1	4
631.297	1	12
632.484	1	1
633.671	1	9
634.858	1	8
636.045	1	4
637.232	1	2
638.419	1	13
639.606	1	19
640.793	1	11
641.980	1	14
643.167	1	13
644.354	1	7
645.541	1	2
646.728	1	13
647.914	1	7
649.101	1	6
650.288	1	-3
651.474	1	18
652.661	1	-3
653.847	1	7
655.034	1	3
656.220	1	6
657.406	1	8
658.593	1	-1
659.779	1	0
660.965	1	9
662.152	1	2
663.338	1	-2
664.524	1	2
665.710	1	-2
666.896	1	6
668.082	1	11
669.268	1	7
670.454	1	3
671.640	1	-1
672.826	1	-5
674.011	1	15
675.197	1	2
676.383	1	2
677.569	1	-3
678.754	1	1
679.940	1	12
681.125	1	10
682.311	1	6
683.496	1	5
684.682	1	12
685.867	1	6
687.053	1	15
688.238	1	18
688.746	1	6

File: GaN_sample E_spot4_UVVIS_68 K_200um_200 ms 2x2mm1_139.txt
340.368	1	-1
341.565	1	-11
342.763	1	4
343.960	1	3
345.157	1	8
346.354	1	1
347.552	1	7
348.749	1	17
349.946	1	13
351.143	1	0
352.340	1	6
353.537	1	4
354.734	1	13
355.931	1	13
357.127	1	13
358.324	1	21
359.521	1	19
360.718	1	22
361.914	1	30
363.111	1	57
364.308	1	61
365.504	1	79
366.701	1	104
367.897	1	109
369.093	1	104
370.290	1	85
371.486	1	75
372.682	1	50
373.879	1	63
375.075	1	51
376.271	1	41
377.467	1	39
378.663	1	40
379.859	1	33
381.055	1	42
382.251	1	60
383.447	1	85
384.643	1	98
385.839	1	131
387.035	1	136
388.230	1	118
389.426	1	128
390.622	1	121
391.817	1	120
393.013	1	109
394.208	1	113
395.404	1	118
396.599	1	114
397.795	1	124
398.990	1	121
400.186	1	118
401.381	1	107
402.576	1	89
403.771	1	79
404.967	1	87
406.162	1	84
407.357	1	77
408.552	1	74
409.747	1	80
410.942	1	65
412.137	1	81
413.332	1	49
414.526	1	60
415.721	1	51
416.916	1	50
418.111	1	52
419.305	1	46
420.500	1	42
421.695	1	42
422.889	1	37
424.084	1	45
425.278	1	32
426.472	1	33
427.667	1	34
428.861	1	30
430.055	1	25
431.250	1	10
432.444	1	34
433.638	1	22
434.832	1	13
436.026	1	18
437.220	1	31
438.414	1	20
439.608	1	8
440.802	1	26
441.996	1	15
443.190	1	1
444.384	1	24
445.578	1	27
446.771	1	15
447.965	1	2
449.159	1	7
450.352	1	25
451.546	1	11
452.739	1	5
453.933	1	17
455.126	1	8
456.320	1	15
457.513	1	18
458.706	1	4
459.899	1	15
461.093	1	20
462.286	1	17
463.479	1	12
464.672	1	12
465.865	1	6
467.058	1	25
468.251	1	12
469.444	1	6
470.637	1	13
471.830	1	30
473.023	1	12
474.215	1	0
475.408	1	15
476.601	1	12
477.793	1	18
478.986	1	12
480.179	1	13
481.371	1	24
482.564	1	10
483.756	1	22
484.948	1	18
486.141	1	8
487.333	1	21
488.525	1	7
489.718	1	15
490.910	1	11
492.102	1	23
493.294	1	30
494.486	1	19
495.678	1	20
496.870	1	20
498.062	1	22
499.254	1	29
500.446	1	22
501.638	1	34
502.829	1	45
504.021	1	45
505.213	1	36
506.404	1	44
507.596	1	50
508.788	1	36
509.979	1	48
511.171	1	66
512.362	1	56
513.553	1	52
514.745	1	60
515.936	1	71
517.127	1	63
518.319	1	66
519.510	1	73
520.701	1	66
521.892	1	62
523.083	1	68
524.274	1	63
525.465	1	69
526.656	1	95
527.847	1	67
529.038	1	82
530.229	1	75
531.419	1	90
532.610	1	82
533.801	1	86
534.991	1	84
536.182	1	75
537.373	1	89
538.563	1	76
539.754	1	70
540.944	1	77
542.134	1	85
543.325	1	74
544.515	1	61
545.705	1	71
546.896	1	72
548.086	1	72
549.276	1	74
550.466	1	62
551.656	1	59
552.846	1	63
554.036	1	61
555.226	1	55
556.416	1	53
557.606	1	48
558.796	1	57
559.986	1	51
561.175	1	41
562.365	1	42
563.555	1	48
564.744	1	55
565.934	1	50
567.123	1	58
568.313	1	35
569.502	1	41
570.692	1	37
571.881	1	34
573.070	1	33
574.260	1	30
575.449	1	34
576.638	1	30
577.827	1	35
579.016	1	52
580.205	1	26
581.394	1	17
582.583	1	15
583.772	1	13
584.961	1	17
586.150	1	26
587.339	1	22
588.528	1	27
589.717	1	28
590.905	1	18
592.094	1	29
593.283	1	23
594.471	1	18
595.660	1	16
596.848	1	22
598.037	1	17
599.225	1	25
600.413	1	17
601.602	1	19
602.790	1	20
603.978	1	19
605.166	1	9
606.355	1	21
607.543	1	2
608.731	1	5
609.919	1	14
611.107	1	14
612.295	1	16
613.483	1	16
614.671	1	7
615.858	1	12
617.046	1	14
618.234	1	14
619.422	1	15
620.609	1	23
621.797	1	15
622.985	1	16
624.172	1	29
625.360	1	4
626.547	1	13
627.735	1	15
628.922	1	1
630.109	1	5
631.297	1	12
632.484	1	15
633.671	1	4
634.858	1	15
636.045	1	5
637.232	1	5
638.419	1	12
639.606	1	11
640.793	1	15
641.980	1	-1
643.167	1	7
644.354	1	7
645.541	1	6
646.728	1	15
647.914	1	-3
649.101	1	3
650.288	1	9
651.474	1	15
652.661	1	15
653.847	1	14
655.034	1	12
656.220	1	10
657.406	1	9
658.593	1	-2
659.779	1	2
660.965	1	7
662.152	1	2
663.338	1	4
664.524	1	-6
665.710	1	1
666.896	1	9
668.082	1	-1
669.268	1	8
670.454	1	2
671.640	1	-1
672.826	1	1
674.011	1	8
675.197	1	-2
676.383	1	4
677.569	1	1
678.754	1	1
679.940	1	-1
681.125	1	4
682.311	1	15
683.496	1	4
684.682	1	18
685.867	1	16
687.053	1	11
688.238	1	11
688.746	1	14

File: GaN_sample E_spot4_UVVIS_68 K_200um_200 ms 2x2mm1_140.txt
340.368	1	7
341.565	1	1
342.763	1	5
343.960	1	1
345.157	1	2
346.354	1	5
347.552	1	6
348.749	1	7
349.946	1	7
351.143	1	-6
352.340	1	10
353.537	1	-1
354.734	1	6
355.931	1	15
357.127	1	12
358.324	1	18
359.521	1	22
360.718	1	21
361.914	1	38
363.111	1	64
364.308	1	62
365.504	1	73
366.701	1	82
367.897	1	103
369.093	1	84
370.290	1	69
371.486	1	70
372.682	1	52
373.879	1	46
375.075	1	46
376.271	1	29
377.467	1	28
378.663	1	20
379.859	1	31
381.055	1	34
382.251	1	43
383.447	1	64
384.643	1	70
385.839	1	96
387.035	1	103
388.230	1	90
389.426	1	103
390.622	1	87
391.817	1	84
393.013	1	82
394.208	1	87
395.404	1	95
396.599	1	83
397.795	1	100
398.990	1	102
400.186	1	81
401.381	1	81
402.576	1	66
403.771	1	74
404.967	1	69
406.162	1	54
407.357	1	60
408.552	1	64
409.747	1	51
410.942	1	51
412.137	1	54
413.332	1	53
414.526	1	47
415.721	1	46
416.916	1	28
418.111	1	37
419.305	1	39
420.500	1	33
421.695	1	24
422.889	1	50
424.084	1	28
425.278	1	26
426.472	1	21
427.667	1	32
428.861	1	23
430.055	1	22
431.250	1	17
432.444	1	19
433.638	1	20
434.832	1	9
436.026	1	13
437.220	1	24
438.414	1	21
439.608	1	17
440.802	1	24
441.996	1	10
443.190	1	3
444.384	1	13
445.578	1	21
446.771	1	10
447.965	1	7
449.159	1	6
450.352	1	19
451.546	1	11
452.739	1	20
453.933	1	23
455.126	1	23
456.320	1	15
457.513	1	19
458.706	1	21
459.899	1	14
461.093	1	8
462.286	1	19
463.479	1	20
464.672	1	7
465.865	1	16
467.058	1	17
468.251	1	9
469.444	1	7
470.637	1	16
471.830	1	15
473.023	1	3
474.215	1	8
475.408	1	14
476.601	1	6
477.793	1	19
478.986	1	21
480.179	1	9
481.371	1	10
482.564	1	4
483.756	1	24
484.948	1	9
486.141	1	5
487.333	1	14
488.525	1	11
489.718	1	11
490.910	1	12
492.102	1	10
493.294	1	21
494.486	1	22
495.678	1	32
496.870	1	17
498.062	1	24
499.254	1	27
500.446	1	28
501.638	1	27
502.829	1	36
504.021	1	55
505.213	1	35
506.404	1	40
507.596	1	42
508.788	1	45
509.979	1	52
511.171	1	60
512.362	1	45
513.553	1	47
514.745	1	53
515.936	1	56
517.127	1	55
518.319	1	59
519.510	1	61
520.701	1	59
521.892	1	51
523.083	1	61
524.274	1	66
525.465	1	56
526.656	1	71
527.847	1	61
529.038	1	77
530.229	1	63
531.419	1	67
532.610	1	72
533.801	1	66
534.991	1	73
536.182	1	69
537.373	1	66
538.563	1	65
539.754	1	57
540.944	1	57
542.134	1	55
543.325	1	51
544.515	1	68
545.705	1	67
546.896	1	73
548.086	1	66
549.276	1	64
550.466	1	51
551.656	1	48
552.846	1	62
554.036	1	63
555.226	1	45
556.416	1	45
557.606	1	40
558.796	1	44
559.986	1	40
561.175	1	42
562.365	1	46
563.555	1	49
564.744	1	35
565.934	1	46
567.123	1	51
568.313	1	30
569.502	1	39
570.692	1	31
571.881	1	39
573.070	1	34
574.260	1	27
575.449	1	28
576.638	1	24
577.827	1	35
579.016	1	35
580.205	1	20
581.394	1	23
582.583	1	11
583.772	1	19
584.961	1	21
586.150	1	21
587.339	1	27
588.528	1	15
589.717	1	18
590.905	1	23
592.094	1	12
593.283	1	13
594.471	1	20
595.660	1	11
596.848	1	21
598.037	1	21
599.225	1	19
600.413	1	12
601.602	1	21
602.790	1	11
603.978	1	16
605.166	1	-8
606.355	1	21
607.543	1	4
608.731	1	2
609.919	1	7
611.107	1	11
612.295	1	15
613.483	1	18
614.671	1	9
615.858	1	19
617.046	1	5
618.234	1	12
619.422	1	3
620.609	1	16
621.797	1	12
622.985	1	7
624.172	1	22
625.360	1	1
626.547	1	17
627.735	1	9
628.922	1	3
630.109	1	14
631.297	1	8
632.484	1	-4
633.671	1	10
634.858	1	12
636.045	1	-3
637.232	1	14
638.419	1	12
639.606	1	20
640.793	1	13
641.980	1	7
643.167	1	17
644.354	1	6
645.541	1	-2
646.728	1	18
647.914	1	0
649.101	1	6
650.288	1	-6
651.474	1	14
652.661	1	11
653.847	1	9
655.034	1	10
656.220	1	13
657.406	1	7
658.593	1	5
659.779	1	-4
660.965	1	6
662.152	1	-1
663.338	1	-3
664.524	1	-4
665.710	1	-6
666.896	1	3
668.082	1	6
669.268	1	3
670.454	1	11
671.640	1	-3
672.826	1	-2
674.011	1	10
675.197	1	2
676.383	1	7
677.569	1	3
678.754	1	-2
679.940	1	0
681.125	1	15
682.311	1	19
683.496	1	2
684.682	1	16
685.867	1	-1
687.053	1	8
688.238	1	10
688.746	1	3