Folder: cryo-il_analysis/Analysis/GaN_68K_200ms (part 23)

File: GaN_sample E_spot4_UVVIS_68 K_200um_200 ms 2x2mm1_471.txt
340.368	1	1
341.565	1	-1
342.763	1	13
343.960	1	0
345.157	1	6
346.354	1	-2
347.552	1	1
348.749	1	6
349.946	1	0
351.143	1	-10
352.340	1	-5
353.537	1	3
354.734	1	-1
355.931	1	1
357.127	1	3
358.324	1	-5
359.521	1	4
360.718	1	-1
361.914	1	3
363.111	1	7
364.308	1	-3
365.504	1	-8
366.701	1	-4
367.897	1	2
369.093	1	4
370.290	1	-2
371.486	1	9
372.682	1	0
373.879	1	7
375.075	1	13
376.271	1	-2
377.467	1	-6
378.663	1	2
379.859	1	-10
381.055	1	-4
382.251	1	6
383.447	1	13
384.643	1	1
385.839	1	8
387.035	1	2
388.230	1	-3
389.426	1	9
390.622	1	-1
391.817	1	-1
393.013	1	7
394.208	1	6
395.404	1	12
396.599	1	9
397.795	1	4
398.990	1	9
400.186	1	18
401.381	1	4
402.576	1	14
403.771	1	-1
404.967	1	13
406.162	1	-6
407.357	1	5
408.552	1	3
409.747	1	-3
410.942	1	9
412.137	1	3
413.332	1	6
414.526	1	5
415.721	1	5
416.916	1	-4
418.111	1	7
419.305	1	0
420.500	1	17
421.695	1	7
422.889	1	3
424.084	1	8
425.278	1	-11
426.472	1	-6
427.667	1	13
428.861	1	2
430.055	1	10
431.250	1	-9
432.444	1	-3
433.638	1	1
434.832	1	-1
436.026	1	0
437.220	1	8
438.414	1	-1
439.608	1	-1
440.802	1	7
441.996	1	-7
443.190	1	-6
444.384	1	-4
445.578	1	5
446.771	1	3
447.965	1	-10
449.159	1	0
450.352	1	4
451.546	1	3
452.739	1	2
453.933	1	8
455.126	1	2
456.320	1	-5
457.513	1	8
458.706	1	10
459.899	1	13
461.093	1	-1
462.286	1	10
463.479	1	16
464.672	1	4
465.865	1	0
467.058	1	7
468.251	1	1
469.444	1	-7
470.637	1	7
471.830	1	16
473.023	1	-10
474.215	1	-7
475.408	1	2
476.601	1	-5
477.793	1	8
478.986	1	2
480.179	1	1
481.371	1	8
482.564	1	-7
483.756	1	9
484.948	1	0
486.141	1	-10
487.333	1	8
488.525	1	-3
489.718	1	-5
490.910	1	9
492.102	1	-1
493.294	1	5
494.486	1	3
495.678	1	12
496.870	1	-6
498.062	1	-6
499.254	1	4
500.446	1	6
501.638	1	-6
502.829	1	8
504.021	1	10
505.213	1	-4
506.404	1	-5
507.596	1	6
508.788	1	6
509.979	1	6
511.171	1	13
512.362	1	0
513.553	1	-14
514.745	1	-3
515.936	1	14
517.127	1	8
518.319	1	-3
519.510	1	1
520.701	1	13
521.892	1	-5
523.083	1	-1
524.274	1	-5
525.465	1	7
526.656	1	13
527.847	1	-5
529.038	1	5
530.229	1	10
531.419	1	2
532.610	1	5
533.801	1	0
534.991	1	7
536.182	1	1
537.373	1	-7
538.563	1	6
539.754	1	0
540.944	1	-3
542.134	1	4
543.325	1	1
544.515	1	-4
545.705	1	8
546.896	1	1
548.086	1	-2
549.276	1	12
550.466	1	4
551.656	1	-8
552.846	1	7
554.036	1	-5
555.226	1	-6
556.416	1	0
557.606	1	-5
558.796	1	-3
559.986	1	-3
561.175	1	-1
562.365	1	12
563.555	1	11
564.744	1	-2
565.934	1	-5
567.123	1	11
568.313	1	-10
569.502	1	9
570.692	1	8
571.881	1	7
573.070	1	4
574.260	1	3
575.449	1	1
576.638	1	-5
577.827	1	5
579.016	1	12
580.205	1	11
581.394	1	-4
582.583	1	-5
583.772	1	4
584.961	1	2
586.150	1	4
587.339	1	2
588.528	1	0
589.717	1	1
590.905	1	8
592.094	1	0
593.283	1	3
594.471	1	-3
595.660	1	1
596.848	1	7
598.037	1	4
599.225	1	0
600.413	1	-7
601.602	1	7
602.790	1	4
603.978	1	-2
605.166	1	-6
606.355	1	16
607.543	1	-8
608.731	1	-3
609.919	1	-1
611.107	1	7
612.295	1	4
613.483	1	14
614.671	1	6
615.858	1	5
617.046	1	5
618.234	1	4
619.422	1	0
620.609	1	3
621.797	1	3
622.985	1	3
624.172	1	12
625.360	1	-6
626.547	1	5
627.735	1	3
628.922	1	-6
630.109	1	-2
631.297	1	-3
632.484	1	-4
633.671	1	0
634.858	1	3
636.045	1	1
637.232	1	3
638.419	1	4
639.606	1	9
640.793	1	12
641.980	1	2
643.167	1	15
644.354	1	-1
645.541	1	-10
646.728	1	3
647.914	1	2
649.101	1	6
650.288	1	0
651.474	1	5
652.661	1	-3
653.847	1	13
655.034	1	-1
656.220	1	5
657.406	1	7
658.593	1	-3
659.779	1	0
660.965	1	2
662.152	1	-3
663.338	1	-14
664.524	1	2
665.710	1	-9
666.896	1	-12
668.082	1	2
669.268	1	-5
670.454	1	3
671.640	1	-10
672.826	1	-8
674.011	1	6
675.197	1	8
676.383	1	-4
677.569	1	-4
678.754	1	9
679.940	1	5
681.125	1	-5
682.311	1	0
683.496	1	5
684.682	1	7
685.867	1	-1
687.053	1	0
688.238	1	2
688.746	1	-3

File: GaN_sample E_spot4_UVVIS_68 K_200um_200 ms 2x2mm1_490.txt
340.368	1	2
341.565	1	-8
342.763	1	-3
343.960	1	-5
345.157	1	9
346.354	1	2
347.552	1	1
348.749	1	8
349.946	1	17
351.143	1	-2
352.340	1	-2
353.537	1	7
354.734	1	-2
355.931	1	3
357.127	1	11
358.324	1	5
359.521	1	1
360.718	1	8
361.914	1	4
363.111	1	14
364.308	1	-12
365.504	1	1
366.701	1	-2
367.897	1	7
369.093	1	0
370.290	1	4
371.486	1	11
372.682	1	-1
373.879	1	13
375.075	1	3
376.271	1	-1
377.467	1	-1
378.663	1	1
379.859	1	-6
381.055	1	5
382.251	1	8
383.447	1	11
384.643	1	3
385.839	1	10
387.035	1	1
388.230	1	1
389.426	1	9
390.622	1	3
391.817	1	7
393.013	1	13
394.208	1	7
395.404	1	5
396.599	1	14
397.795	1	9
398.990	1	8
400.186	1	6
401.381	1	10
402.576	1	9
403.771	1	2
404.967	1	4
406.162	1	1
407.357	1	5
408.552	1	5
409.747	1	0
410.942	1	0
412.137	1	10
413.332	1	-2
414.526	1	5
415.721	1	-5
416.916	1	0
418.111	1	4
419.305	1	4
420.500	1	7
421.695	1	-5
422.889	1	7
424.084	1	2
425.278	1	-5
426.472	1	3
427.667	1	4
428.861	1	-1
430.055	1	2
431.250	1	-3
432.444	1	5
433.638	1	-8
434.832	1	-5
436.026	1	9
437.220	1	8
438.414	1	8
439.608	1	8
440.802	1	3
441.996	1	1
443.190	1	-12
444.384	1	9
445.578	1	6
446.771	1	-1
447.965	1	-9
449.159	1	-9
450.352	1	8
451.546	1	3
452.739	1	4
453.933	1	2
455.126	1	3
456.320	1	-2
457.513	1	14
458.706	1	10
459.899	1	12
461.093	1	8
462.286	1	5
463.479	1	12
464.672	1	2
465.865	1	1
467.058	1	12
468.251	1	-1
469.444	1	2
470.637	1	21
471.830	1	18
473.023	1	-3
474.215	1	-1
475.408	1	1
476.601	1	-3
477.793	1	10
478.986	1	2
480.179	1	14
481.371	1	3
482.564	1	-7
483.756	1	4
484.948	1	-8
486.141	1	-6
487.333	1	3
488.525	1	-3
489.718	1	-8
490.910	1	-9
492.102	1	4
493.294	1	2
494.486	1	11
495.678	1	13
496.870	1	2
498.062	1	2
499.254	1	-2
500.446	1	5
501.638	1	-3
502.829	1	5
504.021	1	15
505.213	1	1
506.404	1	-6
507.596	1	9
508.788	1	4
509.979	1	10
511.171	1	4
512.362	1	2
513.553	1	6
514.745	1	2
515.936	1	0
517.127	1	0
518.319	1	-6
519.510	1	10
520.701	1	1
521.892	1	-2
523.083	1	9
524.274	1	-5
525.465	1	3
526.656	1	11
527.847	1	-6
529.038	1	5
530.229	1	3
531.419	1	10
532.610	1	13
533.801	1	-1
534.991	1	2
536.182	1	9
537.373	1	1
538.563	1	1
539.754	1	0
540.944	1	4
542.134	1	10
543.325	1	-5
544.515	1	4
545.705	1	9
546.896	1	-6
548.086	1	7
549.276	1	16
550.466	1	-4
551.656	1	-8
552.846	1	4
554.036	1	11
555.226	1	-5
556.416	1	4
557.606	1	1
558.796	1	-6
559.986	1	-6
561.175	1	-4
562.365	1	-3
563.555	1	10
564.744	1	3
565.934	1	0
567.123	1	14
568.313	1	-5
569.502	1	9
570.692	1	3
571.881	1	6
573.070	1	5
574.260	1	-7
575.449	1	-2
576.638	1	2
577.827	1	11
579.016	1	17
580.205	1	8
581.394	1	-20
582.583	1	-4
583.772	1	0
584.961	1	5
586.150	1	1
587.339	1	9
588.528	1	4
589.717	1	4
590.905	1	2
592.094	1	3
593.283	1	2
594.471	1	1
595.660	1	-6
596.848	1	5
598.037	1	-3
599.225	1	4
600.413	1	-1
601.602	1	4
602.790	1	6
603.978	1	7
605.166	1	2
606.355	1	1
607.543	1	-5
608.731	1	-4
609.919	1	-10
611.107	1	1
612.295	1	-4
613.483	1	9
614.671	1	8
615.858	1	5
617.046	1	6
618.234	1	-3
619.422	1	10
620.609	1	-2
621.797	1	7
622.985	1	-4
624.172	1	5
625.360	1	2
626.547	1	-1
627.735	1	4
628.922	1	1
630.109	1	-7
631.297	1	0
632.484	1	0
633.671	1	3
634.858	1	7
636.045	1	0
637.232	1	2
638.419	1	-1
639.606	1	19
640.793	1	7
641.980	1	-2
643.167	1	9
644.354	1	1
645.541	1	-9
646.728	1	6
647.914	1	-1
649.101	1	12
650.288	1	3
651.474	1	6
652.661	1	6
653.847	1	6
655.034	1	4
656.220	1	8
657.406	1	12
658.593	1	-7
659.779	1	-6
660.965	1	7
662.152	1	-7
663.338	1	-9
664.524	1	-13
665.710	1	2
666.896	1	-1
668.082	1	-1
669.268	1	8
670.454	1	4
671.640	1	-22
672.826	1	-7
674.011	1	3
675.197	1	-12
676.383	1	-3
677.569	1	-1
678.754	1	-1
679.940	1	-2
681.125	1	6
682.311	1	2
683.496	1	-5
684.682	1	9
685.867	1	0
687.053	1	1
688.238	1	-1
688.746	1	4

File: GaN_sample E_spot4_UVVIS_68 K_200um_200 ms 2x2mm1_492.txt
340.368	1	7
341.565	1	-7
342.763	1	-3
343.960	1	-3
345.157	1	9
346.354	1	2
347.552	1	-5
348.749	1	11
349.946	1	11
351.143	1	-2
352.340	1	-2
353.537	1	-1
354.734	1	-7
355.931	1	-1
357.127	1	7
358.324	1	3
359.521	1	2
360.718	1	-6
361.914	1	0
363.111	1	8
364.308	1	-6
365.504	1	3
366.701	1	-9
367.897	1	0
369.093	1	11
370.290	1	1
371.486	1	11
372.682	1	0
373.879	1	12
375.075	1	11
376.271	1	-2
377.467	1	-11
378.663	1	-1
379.859	1	1
381.055	1	5
382.251	1	8
383.447	1	13
384.643	1	6
385.839	1	5
387.035	1	4
388.230	1	3
389.426	1	4
390.622	1	1
391.817	1	5
393.013	1	12
394.208	1	7
395.404	1	7
396.599	1	7
397.795	1	6
398.990	1	10
400.186	1	13
401.381	1	3
402.576	1	9
403.771	1	12
404.967	1	6
406.162	1	4
407.357	1	2
408.552	1	2
409.747	1	-3
410.942	1	11
412.137	1	11
413.332	1	8
414.526	1	12
415.721	1	-7
416.916	1	-5
418.111	1	4
419.305	1	7
420.500	1	13
421.695	1	0
422.889	1	9
424.084	1	2
425.278	1	-15
426.472	1	-7
427.667	1	12
428.861	1	1
430.055	1	3
431.250	1	-16
432.444	1	6
433.638	1	-2
434.832	1	-8
436.026	1	6
437.220	1	7
438.414	1	-7
439.608	1	0
440.802	1	3
441.996	1	0
443.190	1	-7
444.384	1	5
445.578	1	5
446.771	1	2
447.965	1	-4
449.159	1	-10
450.352	1	6
451.546	1	7
452.739	1	1
453.933	1	6
455.126	1	-3
456.320	1	2
457.513	1	2
458.706	1	4
459.899	1	13
461.093	1	11
462.286	1	7
463.479	1	8
464.672	1	5
465.865	1	-2
467.058	1	5
468.251	1	3
469.444	1	-1
470.637	1	13
471.830	1	13
473.023	1	-8
474.215	1	1
475.408	1	5
476.601	1	-3
477.793	1	10
478.986	1	0
480.179	1	7
481.371	1	0
482.564	1	-6
483.756	1	18
484.948	1	-12
486.141	1	-6
487.333	1	4
488.525	1	-6
489.718	1	-4
490.910	1	-4
492.102	1	-1
493.294	1	10
494.486	1	5
495.678	1	7
496.870	1	4
498.062	1	6
499.254	1	4
500.446	1	10
501.638	1	8
502.829	1	4
504.021	1	13
505.213	1	-6
506.404	1	2
507.596	1	9
508.788	1	10
509.979	1	1
511.171	1	8
512.362	1	9
513.553	1	-8
514.745	1	2
515.936	1	3
517.127	1	-3
518.319	1	5
519.510	1	3
520.701	1	-2
521.892	1	-2
523.083	1	-3
524.274	1	-10
525.465	1	4
526.656	1	16
527.847	1	0
529.038	1	7
530.229	1	9
531.419	1	4
532.610	1	13
533.801	1	7
534.991	1	3
536.182	1	-2
537.373	1	-4
538.563	1	3
539.754	1	-2
540.944	1	8
542.134	1	2
543.325	1	-3
544.515	1	1
545.705	1	5
546.896	1	1
548.086	1	3
549.276	1	12
550.466	1	-3
551.656	1	-3
552.846	1	11
554.036	1	-1
555.226	1	-9
556.416	1	-2
557.606	1	-5
558.796	1	-1
559.986	1	-5
561.175	1	10
562.365	1	8
563.555	1	10
564.744	1	14
565.934	1	14
567.123	1	14
568.313	1	-3
569.502	1	4
570.692	1	6
571.881	1	-1
573.070	1	-2
574.260	1	3
575.449	1	9
576.638	1	-6
577.827	1	4
579.016	1	13
580.205	1	1
581.394	1	-4
582.583	1	-9
583.772	1	-5
584.961	1	3
586.150	1	-1
587.339	1	6
588.528	1	3
589.717	1	-3
590.905	1	13
592.094	1	-1
593.283	1	1
594.471	1	5
595.660	1	-3
596.848	1	-6
598.037	1	5
599.225	1	-8
600.413	1	5
601.602	1	8
602.790	1	2
603.978	1	9
605.166	1	5
606.355	1	13
607.543	1	-4
608.731	1	-1
609.919	1	-5
611.107	1	6
612.295	1	4
613.483	1	7
614.671	1	7
615.858	1	10
617.046	1	-1
618.234	1	4
619.422	1	7
620.609	1	-5
621.797	1	0
622.985	1	-3
624.172	1	12
625.360	1	-7
626.547	1	4
627.735	1	-1
628.922	1	-9
630.109	1	-2
631.297	1	0
632.484	1	3
633.671	1	1
634.858	1	15
636.045	1	6
637.232	1	-2
638.419	1	2
639.606	1	9
640.793	1	-2
641.980	1	2
643.167	1	9
644.354	1	2
645.541	1	-14
646.728	1	7
647.914	1	-5
649.101	1	5
650.288	1	-6
651.474	1	8
652.661	1	-3
653.847	1	4
655.034	1	-3
656.220	1	4
657.406	1	-1
658.593	1	-8
659.779	1	-5
660.965	1	13
662.152	1	2
663.338	1	2
664.524	1	-4
665.710	1	-2
666.896	1	-4
668.082	1	-6
669.268	1	5
670.454	1	-3
671.640	1	-12
672.826	1	-7
674.011	1	10
675.197	1	1
676.383	1	-6
677.569	1	-4
678.754	1	-1
679.940	1	2
681.125	1	-1
682.311	1	4
683.496	1	-11
684.682	1	-4
685.867	1	1
687.053	1	5
688.238	1	1
688.746	1	-2

File: GaN_sample E_spot4_UVVIS_68 K_200um_200 ms 2x2mm1_493.txt
340.368	1	4
341.565	1	-7
342.763	1	-4
343.960	1	3
345.157	1	1
346.354	1	-2
347.552	1	6
348.749	1	8
349.946	1	7
351.143	1	-10
352.340	1	-5
353.537	1	-1
354.734	1	0
355.931	1	7
357.127	1	1
358.324	1	4
359.521	1	-3
360.718	1	-9
361.914	1	6
363.111	1	9
364.308	1	-3
365.504	1	-3
366.701	1	-2
367.897	1	-1
369.093	1	8
370.290	1	-5
371.486	1	9
372.682	1	0
373.879	1	11
375.075	1	6
376.271	1	0
377.467	1	1
378.663	1	0
379.859	1	-4
381.055	1	-1
382.251	1	4
383.447	1	8
384.643	1	3
385.839	1	6
387.035	1	6
388.230	1	4
389.426	1	6
390.622	1	-7
391.817	1	2
393.013	1	16
394.208	1	10
395.404	1	-2
396.599	1	6
397.795	1	4
398.990	1	7
400.186	1	17
401.381	1	8
402.576	1	17
403.771	1	10
404.967	1	3
406.162	1	3
407.357	1	0
408.552	1	3
409.747	1	9
410.942	1	8
412.137	1	23
413.332	1	5
414.526	1	-1
415.721	1	-2
416.916	1	-1
418.111	1	9
419.305	1	3
420.500	1	5
421.695	1	6
422.889	1	2
424.084	1	5
425.278	1	-5
426.472	1	-8
427.667	1	7
428.861	1	1
430.055	1	-3
431.250	1	-9
432.444	1	1
433.638	1	-9
434.832	1	-5
436.026	1	2
437.220	1	8
438.414	1	-1
439.608	1	0
440.802	1	2
441.996	1	2
443.190	1	-3
444.384	1	10
445.578	1	7
446.771	1	-2
447.965	1	-8
449.159	1	-4
450.352	1	7
451.546	1	8
452.739	1	3
453.933	1	15
455.126	1	0
456.320	1	3
457.513	1	14
458.706	1	4
459.899	1	19
461.093	1	16
462.286	1	12
463.479	1	13
464.672	1	-3
465.865	1	7
467.058	1	2
468.251	1	-2
469.444	1	6
470.637	1	14
471.830	1	12
473.023	1	-12
474.215	1	4
475.408	1	5
476.601	1	5
477.793	1	7
478.986	1	1
480.179	1	7
481.371	1	5
482.564	1	-2
483.756	1	13
484.948	1	-7
486.141	1	-1
487.333	1	4
488.525	1	-8
489.718	1	-5
490.910	1	-7
492.102	1	2
493.294	1	12
494.486	1	7
495.678	1	9
496.870	1	7
498.062	1	7
499.254	1	8
500.446	1	1
501.638	1	1
502.829	1	-1
504.021	1	19
505.213	1	1
506.404	1	-3
507.596	1	9
508.788	1	-8
509.979	1	2
511.171	1	12
512.362	1	-7
513.553	1	-11
514.745	1	-5
515.936	1	8
517.127	1	3
518.319	1	3
519.510	1	-6
520.701	1	4
521.892	1	-11
523.083	1	5
524.274	1	1
525.465	1	-2
526.656	1	13
527.847	1	1
529.038	1	5
530.229	1	3
531.419	1	10
532.610	1	10
533.801	1	13
534.991	1	2
536.182	1	-3
537.373	1	5
538.563	1	2
539.754	1	-6
540.944	1	-1
542.134	1	5
543.325	1	-3
544.515	1	-2
545.705	1	14
546.896	1	-5
548.086	1	4
549.276	1	12
550.466	1	-10
551.656	1	-5
552.846	1	4
554.036	1	5
555.226	1	-4
556.416	1	0
557.606	1	-17
558.796	1	-3
559.986	1	-7
561.175	1	-2
562.365	1	-3
563.555	1	12
564.744	1	-1
565.934	1	3
567.123	1	13
568.313	1	-3
569.502	1	2
570.692	1	-2
571.881	1	-3
573.070	1	4
574.260	1	3
575.449	1	3
576.638	1	-6
577.827	1	10
579.016	1	15
580.205	1	11
581.394	1	-6
582.583	1	-6
583.772	1	-5
584.961	1	2
586.150	1	1
587.339	1	-1
588.528	1	6
589.717	1	-1
590.905	1	8
592.094	1	6
593.283	1	12
594.471	1	5
595.660	1	5
596.848	1	1
598.037	1	-2
599.225	1	11
600.413	1	2
601.602	1	-3
602.790	1	6
603.978	1	-2
605.166	1	3
606.355	1	11
607.543	1	-5
608.731	1	-6
609.919	1	-6
611.107	1	14
612.295	1	-2
613.483	1	4
614.671	1	4
615.858	1	7
617.046	1	8
618.234	1	4
619.422	1	-4
620.609	1	8
621.797	1	4
622.985	1	0
624.172	1	5
625.360	1	-1
626.547	1	3
627.735	1	-2
628.922	1	-2
630.109	1	3
631.297	1	-10
632.484	1	-1
633.671	1	1
634.858	1	13
636.045	1	-2
637.232	1	-2
638.419	1	4
639.606	1	11
640.793	1	-2
641.980	1	-4
643.167	1	13
644.354	1	0
645.541	1	-9
646.728	1	2
647.914	1	-2
649.101	1	-2
650.288	1	-3
651.474	1	-2
652.661	1	3
653.847	1	-6
655.034	1	2
656.220	1	4
657.406	1	9
658.593	1	0
659.779	1	-7
660.965	1	4
662.152	1	7
663.338	1	-4
664.524	1	-11
665.710	1	-5
666.896	1	3
668.082	1	-10
669.268	1	-1
670.454	1	-2
671.640	1	-7
672.826	1	-10
674.011	1	6
675.197	1	-6
676.383	1	-1
677.569	1	-1
678.754	1	0
679.940	1	-1
681.125	1	0
682.311	1	0
683.496	1	3
684.682	1	0
685.867	1	3
687.053	1	3
688.238	1	8
688.746	1	4

File: GaN_sample E_spot4_UVVIS_68 K_200um_200 ms 2x2mm1_498.txt
340.368	1	-2
341.565	1	-6
342.763	1	-4
343.960	1	2
345.157	1	6
346.354	1	8
347.552	1	-5
348.749	1	-2
349.946	1	7
351.143	1	-12
352.340	1	-6
353.537	1	2
354.734	1	8
355.931	1	2
357.127	1	-9
358.324	1	-2
359.521	1	-3
360.718	1	1
361.914	1	-1
363.111	1	10
364.308	1	0
365.504	1	7
366.701	1	-9
367.897	1	0
369.093	1	0
370.290	1	2
371.486	1	14
372.682	1	3
373.879	1	12
375.075	1	2
376.271	1	-6
377.467	1	-6
378.663	1	3
379.859	1	-4
381.055	1	6
382.251	1	9
383.447	1	10
384.643	1	14
385.839	1	6
387.035	1	-1
388.230	1	4
389.426	1	8
390.622	1	9
391.817	1	2
393.013	1	7
394.208	1	14
395.404	1	10
396.599	1	9
397.795	1	2
398.990	1	8
400.186	1	14
401.381	1	17
402.576	1	5
403.771	1	8
404.967	1	4
406.162	1	-1
407.357	1	3
408.552	1	5
409.747	1	-9
410.942	1	-1
412.137	1	6
413.332	1	-2
414.526	1	7
415.721	1	3
416.916	1	-5
418.111	1	1
419.305	1	7
420.500	1	6
421.695	1	7
422.889	1	14
424.084	1	2
425.278	1	3
426.472	1	-5
427.667	1	8
428.861	1	-2
430.055	1	-3
431.250	1	-4
432.444	1	7
433.638	1	4
434.832	1	0
436.026	1	3
437.220	1	7
438.414	1	4
439.608	1	0
440.802	1	2
441.996	1	-2
443.190	1	-9
444.384	1	0
445.578	1	-1
446.771	1	-10
447.965	1	-1
449.159	1	-9
450.352	1	11
451.546	1	2
452.739	1	-8
453.933	1	13
455.126	1	-3
456.320	1	1
457.513	1	3
458.706	1	6
459.899	1	3
461.093	1	5
462.286	1	12
463.479	1	8
464.672	1	5
465.865	1	-6
467.058	1	8
468.251	1	-2
469.444	1	1
470.637	1	8
471.830	1	16
473.023	1	-1
474.215	1	-8
475.408	1	12
476.601	1	-2
477.793	1	4
478.986	1	-2
480.179	1	7
481.371	1	3
482.564	1	-8
483.756	1	19
484.948	1	-4
486.141	1	-8
487.333	1	-3
488.525	1	5
489.718	1	-4
490.910	1	-8
492.102	1	-3
493.294	1	7
494.486	1	8
495.678	1	5
496.870	1	-10
498.062	1	-3
499.254	1	8
500.446	1	9
501.638	1	6
502.829	1	2
504.021	1	25
505.213	1	-6
506.404	1	3
507.596	1	0
508.788	1	7
509.979	1	-2
511.171	1	13
512.362	1	-1
513.553	1	-1
514.745	1	-9
515.936	1	2
517.127	1	2
518.319	1	6
519.510	1	-3
520.701	1	5
521.892	1	-1
523.083	1	1
524.274	1	5
525.465	1	4
526.656	1	17
527.847	1	-2
529.038	1	11
530.229	1	4
531.419	1	14
532.610	1	7
533.801	1	3
534.991	1	0
536.182	1	3
537.373	1	-10
538.563	1	3
539.754	1	-6
540.944	1	-3
542.134	1	10
543.325	1	-1
544.515	1	-4
545.705	1	7
546.896	1	-3
548.086	1	12
549.276	1	4
550.466	1	-1
551.656	1	-17
552.846	1	7
554.036	1	8
555.226	1	-11
556.416	1	5
557.606	1	-8
558.796	1	1
559.986	1	-4
561.175	1	6
562.365	1	5
563.555	1	29
564.744	1	5
565.934	1	7
567.123	1	15
568.313	1	0
569.502	1	11
570.692	1	2
571.881	1	12
573.070	1	11
574.260	1	-6
575.449	1	8
576.638	1	0
577.827	1	4
579.016	1	10
580.205	1	1
581.394	1	-8
582.583	1	2
583.772	1	-1
584.961	1	-2
586.150	1	6
587.339	1	3
588.528	1	5
589.717	1	3
590.905	1	6
592.094	1	-5
593.283	1	3
594.471	1	2
595.660	1	-8
596.848	1	7
598.037	1	2
599.225	1	1
600.413	1	9
601.602	1	4
602.790	1	-3
603.978	1	1
605.166	1	3
606.355	1	0
607.543	1	2
608.731	1	-5
609.919	1	-7
611.107	1	3
612.295	1	6
613.483	1	8
614.671	1	5
615.858	1	3
617.046	1	2
618.234	1	-1
619.422	1	-3
620.609	1	2
621.797	1	-5
622.985	1	3
624.172	1	16
625.360	1	-4
626.547	1	-3
627.735	1	7
628.922	1	3
630.109	1	5
631.297	1	-4
632.484	1	-5
633.671	1	2
634.858	1	10
636.045	1	-7
637.232	1	8
638.419	1	8
639.606	1	12
640.793	1	4
641.980	1	-1
643.167	1	1
644.354	1	11
645.541	1	-7
646.728	1	-1
647.914	1	-2
649.101	1	-9
650.288	1	-5
651.474	1	3
652.661	1	8
653.847	1	5
655.034	1	5
656.220	1	2
657.406	1	6
658.593	1	-14
659.779	1	-7
660.965	1	12
662.152	1	-11
663.338	1	3
664.524	1	-11
665.710	1	-6
666.896	1	0
668.082	1	6
669.268	1	8
670.454	1	3
671.640	1	-11
672.826	1	-11
674.011	1	8
675.197	1	0
676.383	1	-3
677.569	1	-5
678.754	1	-2
679.940	1	1
681.125	1	7
682.311	1	-5
683.496	1	-10
684.682	1	10
685.867	1	2
687.053	1	-3
688.238	1	2
688.746	1	-6

File: GaN_sample E_spot4_UVVIS_68 K_200um_200 ms 2x2mm1_500.txt
340.368	1	-3
341.565	1	-8
342.763	1	-1
343.960	1	-2
345.157	1	-5
346.354	1	1
347.552	1	-7
348.749	1	5
349.946	1	10
351.143	1	-10
352.340	1	-5
353.537	1	2
354.734	1	0
355.931	1	6
357.127	1	-7
358.324	1	-1
359.521	1	2
360.718	1	0
361.914	1	1
363.111	1	8
364.308	1	1
365.504	1	0
366.701	1	-5
367.897	1	0
369.093	1	-4
370.290	1	-8
371.486	1	1
372.682	1	-1
373.879	1	6
375.075	1	0
376.271	1	-4
377.467	1	-4
378.663	1	-5
379.859	1	-4
381.055	1	-2
382.251	1	2
383.447	1	8
384.643	1	4
385.839	1	-1
387.035	1	-4
388.230	1	10
389.426	1	2
390.622	1	-1
391.817	1	1
393.013	1	14
394.208	1	10
395.404	1	9
396.599	1	17
397.795	1	11
398.990	1	5
400.186	1	13
401.381	1	5
402.576	1	5
403.771	1	-2
404.967	1	17
406.162	1	0
407.357	1	1
408.552	1	9
409.747	1	-6
410.942	1	2
412.137	1	15
413.332	1	-1
414.526	1	2
415.721	1	-2
416.916	1	0
418.111	1	10
419.305	1	2
420.500	1	-1
421.695	1	0
422.889	1	4
424.084	1	6
425.278	1	-9
426.472	1	-4
427.667	1	3
428.861	1	-8
430.055	1	5
431.250	1	-13
432.444	1	7
433.638	1	2
434.832	1	-4
436.026	1	9
437.220	1	13
438.414	1	7
439.608	1	8
440.802	1	8
441.996	1	5
443.190	1	-10
444.384	1	3
445.578	1	16
446.771	1	1
447.965	1	-5
449.159	1	-6
450.352	1	2
451.546	1	-1
452.739	1	6
453.933	1	7
455.126	1	3
456.320	1	0
457.513	1	6
458.706	1	0
459.899	1	6
461.093	1	5
462.286	1	10
463.479	1	12
464.672	1	7
465.865	1	3
467.058	1	12
468.251	1	-4
469.444	1	4
470.637	1	6
471.830	1	9
473.023	1	-6
474.215	1	1
475.408	1	7
476.601	1	2
477.793	1	4
478.986	1	2
480.179	1	4
481.371	1	-4
482.564	1	-12
483.756	1	11
484.948	1	-4
486.141	1	-6
487.333	1	7
488.525	1	-2
489.718	1	-4
490.910	1	3
492.102	1	-6
493.294	1	1
494.486	1	2
495.678	1	4
496.870	1	1
498.062	1	-9
499.254	1	8
500.446	1	14
501.638	1	0
502.829	1	4
504.021	1	10
505.213	1	7
506.404	1	-1
507.596	1	13
508.788	1	2
509.979	1	-1
511.171	1	16
512.362	1	-2
513.553	1	-7
514.745	1	4
515.936	1	12
517.127	1	12
518.319	1	-2
519.510	1	-1
520.701	1	4
521.892	1	-7
523.083	1	-2
524.274	1	-5
525.465	1	7
526.656	1	15
527.847	1	-8
529.038	1	8
530.229	1	11
531.419	1	14
532.610	1	8
533.801	1	0
534.991	1	14
536.182	1	2
537.373	1	-5
538.563	1	-8
539.754	1	-7
540.944	1	-1
542.134	1	15
543.325	1	-3
544.515	1	13
545.705	1	11
546.896	1	5
548.086	1	8
549.276	1	7
550.466	1	-4
551.656	1	-13
552.846	1	11
554.036	1	3
555.226	1	3
556.416	1	-3
557.606	1	4
558.796	1	7
559.986	1	-4
561.175	1	4
562.365	1	5
563.555	1	13
564.744	1	7
565.934	1	9
567.123	1	12
568.313	1	-2
569.502	1	1
570.692	1	3
571.881	1	-1
573.070	1	-1
574.260	1	-5
575.449	1	4
576.638	1	0
577.827	1	0
579.016	1	6
580.205	1	1
581.394	1	-14
582.583	1	-4
583.772	1	8
584.961	1	0
586.150	1	-4
587.339	1	7
588.528	1	2
589.717	1	5
590.905	1	9
592.094	1	3
593.283	1	-5
594.471	1	-1
595.660	1	4
596.848	1	4
598.037	1	4
599.225	1	-3
600.413	1	1
601.602	1	14
602.790	1	6
603.978	1	-6
605.166	1	3
606.355	1	8
607.543	1	-3
608.731	1	-6
609.919	1	-6
611.107	1	12
612.295	1	-7
613.483	1	-1
614.671	1	2
615.858	1	9
617.046	1	8
618.234	1	-6
619.422	1	-4
620.609	1	-7
621.797	1	-3
622.985	1	5
624.172	1	1
625.360	1	-5
626.547	1	14
627.735	1	2
628.922	1	2
630.109	1	2
631.297	1	1
632.484	1	5
633.671	1	-2
634.858	1	14
636.045	1	3
637.232	1	0
638.419	1	2
639.606	1	8
640.793	1	7
641.980	1	-7
643.167	1	19
644.354	1	-4
645.541	1	-6
646.728	1	3
647.914	1	9
649.101	1	-2
650.288	1	-11
651.474	1	-3
652.661	1	-3
653.847	1	9
655.034	1	-1
656.220	1	2
657.406	1	-2
658.593	1	-10
659.779	1	0
660.965	1	3
662.152	1	9
663.338	1	-1
664.524	1	-6
665.710	1	2
666.896	1	0
668.082	1	-13
669.268	1	4
670.454	1	2
671.640	1	-16
672.826	1	-11
674.011	1	7
675.197	1	1
676.383	1	1
677.569	1	6
678.754	1	9
679.940	1	2
681.125	1	6
682.311	1	4
683.496	1	-9
684.682	1	4
685.867	1	-2
687.053	1	5
688.238	1	9
688.746	1	12