Folder: cryo-il_analysis/Analysis/GaN_68K_200ms (part 33)

File: GaN_sample E_spot4_UVVIS_68 K_200um_200 ms 2x2mm1_766.txt
340.368	1	4
341.565	1	-17
342.763	1	5
343.960	1	5
345.157	1	7
346.354	1	-2
347.552	1	2
348.749	1	-5
349.946	1	0
351.143	1	-1
352.340	1	-1
353.537	1	-11
354.734	1	-5
355.931	1	5
357.127	1	-1
358.324	1	-4
359.521	1	-3
360.718	1	-3
361.914	1	-1
363.111	1	5
364.308	1	7
365.504	1	-7
366.701	1	-6
367.897	1	9
369.093	1	2
370.290	1	2
371.486	1	11
372.682	1	-5
373.879	1	9
375.075	1	4
376.271	1	1
377.467	1	-4
378.663	1	-4
379.859	1	-6
381.055	1	1
382.251	1	5
383.447	1	2
384.643	1	5
385.839	1	9
387.035	1	1
388.230	1	4
389.426	1	5
390.622	1	3
391.817	1	3
393.013	1	6
394.208	1	12
395.404	1	3
396.599	1	1
397.795	1	10
398.990	1	14
400.186	1	14
401.381	1	2
402.576	1	11
403.771	1	13
404.967	1	8
406.162	1	-8
407.357	1	5
408.552	1	-1
409.747	1	-18
410.942	1	-2
412.137	1	14
413.332	1	-3
414.526	1	-4
415.721	1	-1
416.916	1	-1
418.111	1	-7
419.305	1	-4
420.500	1	-4
421.695	1	3
422.889	1	10
424.084	1	-3
425.278	1	-3
426.472	1	-7
427.667	1	12
428.861	1	8
430.055	1	-3
431.250	1	-12
432.444	1	6
433.638	1	1
434.832	1	-2
436.026	1	3
437.220	1	7
438.414	1	-4
439.608	1	0
440.802	1	2
441.996	1	0
443.190	1	-1
444.384	1	13
445.578	1	0
446.771	1	0
447.965	1	3
449.159	1	-16
450.352	1	5
451.546	1	-4
452.739	1	-3
453.933	1	-3
455.126	1	-3
456.320	1	6
457.513	1	9
458.706	1	0
459.899	1	16
461.093	1	-5
462.286	1	2
463.479	1	11
464.672	1	1
465.865	1	-7
467.058	1	6
468.251	1	-1
469.444	1	-10
470.637	1	5
471.830	1	14
473.023	1	-3
474.215	1	-6
475.408	1	-9
476.601	1	0
477.793	1	-1
478.986	1	-6
480.179	1	6
481.371	1	-3
482.564	1	-8
483.756	1	3
484.948	1	-10
486.141	1	-8
487.333	1	-5
488.525	1	-5
489.718	1	-3
490.910	1	-2
492.102	1	3
493.294	1	12
494.486	1	0
495.678	1	4
496.870	1	-1
498.062	1	-2
499.254	1	11
500.446	1	-3
501.638	1	6
502.829	1	0
504.021	1	16
505.213	1	-7
506.404	1	0
507.596	1	3
508.788	1	1
509.979	1	1
511.171	1	11
512.362	1	-1
513.553	1	-3
514.745	1	5
515.936	1	4
517.127	1	-3
518.319	1	-1
519.510	1	-13
520.701	1	0
521.892	1	-8
523.083	1	3
524.274	1	-9
525.465	1	3
526.656	1	4
527.847	1	-4
529.038	1	11
530.229	1	1
531.419	1	11
532.610	1	1
533.801	1	4
534.991	1	5
536.182	1	4
537.373	1	-8
538.563	1	-3
539.754	1	5
540.944	1	-4
542.134	1	10
543.325	1	5
544.515	1	-1
545.705	1	5
546.896	1	0
548.086	1	1
549.276	1	10
550.466	1	-11
551.656	1	-1
552.846	1	5
554.036	1	1
555.226	1	-13
556.416	1	-2
557.606	1	-5
558.796	1	4
559.986	1	-6
561.175	1	4
562.365	1	5
563.555	1	-3
564.744	1	2
565.934	1	0
567.123	1	22
568.313	1	-6
569.502	1	5
570.692	1	1
571.881	1	3
573.070	1	-4
574.260	1	0
575.449	1	5
576.638	1	2
577.827	1	0
579.016	1	6
580.205	1	0
581.394	1	-11
582.583	1	-9
583.772	1	-1
584.961	1	0
586.150	1	3
587.339	1	6
588.528	1	11
589.717	1	4
590.905	1	5
592.094	1	3
593.283	1	0
594.471	1	-2
595.660	1	-5
596.848	1	4
598.037	1	-4
599.225	1	2
600.413	1	-3
601.602	1	1
602.790	1	4
603.978	1	-7
605.166	1	-5
606.355	1	16
607.543	1	-11
608.731	1	-4
609.919	1	-10
611.107	1	6
612.295	1	0
613.483	1	1
614.671	1	3
615.858	1	4
617.046	1	-5
618.234	1	0
619.422	1	4
620.609	1	-2
621.797	1	-6
622.985	1	3
624.172	1	8
625.360	1	-4
626.547	1	-6
627.735	1	3
628.922	1	-8
630.109	1	-9
631.297	1	-6
632.484	1	-2
633.671	1	-2
634.858	1	-3
636.045	1	-1
637.232	1	-4
638.419	1	0
639.606	1	12
640.793	1	4
641.980	1	-8
643.167	1	7
644.354	1	2
645.541	1	-9
646.728	1	-3
647.914	1	-2
649.101	1	-11
650.288	1	-11
651.474	1	7
652.661	1	-3
653.847	1	1
655.034	1	6
656.220	1	-3
657.406	1	3
658.593	1	0
659.779	1	-3
660.965	1	1
662.152	1	8
663.338	1	-14
664.524	1	-12
665.710	1	1
666.896	1	0
668.082	1	-8
669.268	1	1
670.454	1	7
671.640	1	-14
672.826	1	-15
674.011	1	0
675.197	1	-9
676.383	1	-9
677.569	1	-9
678.754	1	-4
679.940	1	-10
681.125	1	4
682.311	1	4
683.496	1	-1
684.682	1	7
685.867	1	-3
687.053	1	11
688.238	1	0
688.746	1	-4

File: GaN_sample E_spot4_UVVIS_68 K_200um_200 ms 2x2mm1_768.txt
340.368	1	2
341.565	1	-14
342.763	1	0
343.960	1	-4
345.157	1	-1
346.354	1	-3
347.552	1	-1
348.749	1	-3
349.946	1	3
351.143	1	-1
352.340	1	1
353.537	1	-1
354.734	1	-4
355.931	1	9
357.127	1	4
358.324	1	4
359.521	1	-1
360.718	1	1
361.914	1	2
363.111	1	12
364.308	1	-4
365.504	1	1
366.701	1	1
367.897	1	-3
369.093	1	-3
370.290	1	-11
371.486	1	2
372.682	1	-9
373.879	1	9
375.075	1	4
376.271	1	-5
377.467	1	-5
378.663	1	-6
379.859	1	-2
381.055	1	2
382.251	1	4
383.447	1	6
384.643	1	2
385.839	1	3
387.035	1	-5
388.230	1	0
389.426	1	8
390.622	1	-4
391.817	1	-3
393.013	1	6
394.208	1	5
395.404	1	7
396.599	1	1
397.795	1	5
398.990	1	4
400.186	1	11
401.381	1	-3
402.576	1	14
403.771	1	4
404.967	1	7
406.162	1	-12
407.357	1	4
408.552	1	2
409.747	1	-4
410.942	1	2
412.137	1	2
413.332	1	-4
414.526	1	-4
415.721	1	3
416.916	1	-9
418.111	1	0
419.305	1	-3
420.500	1	-6
421.695	1	0
422.889	1	3
424.084	1	7
425.278	1	-1
426.472	1	-9
427.667	1	22
428.861	1	-3
430.055	1	-2
431.250	1	-9
432.444	1	-2
433.638	1	-4
434.832	1	-5
436.026	1	6
437.220	1	10
438.414	1	-1
439.608	1	5
440.802	1	5
441.996	1	4
443.190	1	-5
444.384	1	-4
445.578	1	12
446.771	1	0
447.965	1	-7
449.159	1	-10
450.352	1	4
451.546	1	-3
452.739	1	4
453.933	1	5
455.126	1	0
456.320	1	-5
457.513	1	16
458.706	1	-2
459.899	1	4
461.093	1	2
462.286	1	10
463.479	1	11
464.672	1	-5
465.865	1	-2
467.058	1	10
468.251	1	5
469.444	1	-10
470.637	1	8
471.830	1	10
473.023	1	-2
474.215	1	2
475.408	1	2
476.601	1	-4
477.793	1	4
478.986	1	-7
480.179	1	-4
481.371	1	2
482.564	1	-13
483.756	1	8
484.948	1	-2
486.141	1	-12
487.333	1	-2
488.525	1	-1
489.718	1	0
490.910	1	-6
492.102	1	-8
493.294	1	0
494.486	1	3
495.678	1	10
496.870	1	1
498.062	1	2
499.254	1	6
500.446	1	-2
501.638	1	2
502.829	1	4
504.021	1	13
505.213	1	-6
506.404	1	6
507.596	1	-1
508.788	1	0
509.979	1	0
511.171	1	10
512.362	1	-1
513.553	1	-8
514.745	1	-2
515.936	1	4
517.127	1	1
518.319	1	8
519.510	1	0
520.701	1	3
521.892	1	-12
523.083	1	-2
524.274	1	-7
525.465	1	1
526.656	1	6
527.847	1	-7
529.038	1	1
530.229	1	15
531.419	1	1
532.610	1	-4
533.801	1	4
534.991	1	-4
536.182	1	-3
537.373	1	-4
538.563	1	2
539.754	1	-2
540.944	1	-2
542.134	1	2
543.325	1	-10
544.515	1	-6
545.705	1	12
546.896	1	-5
548.086	1	7
549.276	1	2
550.466	1	5
551.656	1	-5
552.846	1	6
554.036	1	-8
555.226	1	-11
556.416	1	-6
557.606	1	-14
558.796	1	-2
559.986	1	-4
561.175	1	4
562.365	1	0
563.555	1	7
564.744	1	-5
565.934	1	7
567.123	1	17
568.313	1	0
569.502	1	0
570.692	1	1
571.881	1	7
573.070	1	-3
574.260	1	-1
575.449	1	4
576.638	1	11
577.827	1	4
579.016	1	2
580.205	1	-5
581.394	1	-5
582.583	1	-3
583.772	1	1
584.961	1	1
586.150	1	6
587.339	1	10
588.528	1	5
589.717	1	-4
590.905	1	8
592.094	1	-1
593.283	1	2
594.471	1	6
595.660	1	-10
596.848	1	10
598.037	1	2
599.225	1	2
600.413	1	-2
601.602	1	5
602.790	1	3
603.978	1	-5
605.166	1	-10
606.355	1	1
607.543	1	-7
608.731	1	-7
609.919	1	-16
611.107	1	5
612.295	1	-8
613.483	1	-6
614.671	1	-3
615.858	1	-3
617.046	1	0
618.234	1	6
619.422	1	-4
620.609	1	-2
621.797	1	1
622.985	1	7
624.172	1	4
625.360	1	-7
626.547	1	3
627.735	1	8
628.922	1	2
630.109	1	-7
631.297	1	2
632.484	1	-13
633.671	1	-3
634.858	1	-7
636.045	1	-5
637.232	1	-3
638.419	1	10
639.606	1	0
640.793	1	0
641.980	1	-5
643.167	1	2
644.354	1	-1
645.541	1	-5
646.728	1	12
647.914	1	1
649.101	1	-6
650.288	1	-10
651.474	1	2
652.661	1	5
653.847	1	-1
655.034	1	3
656.220	1	4
657.406	1	5
658.593	1	-7
659.779	1	-2
660.965	1	-6
662.152	1	-2
663.338	1	-2
664.524	1	-10
665.710	1	-10
666.896	1	-3
668.082	1	-6
669.268	1	-1
670.454	1	6
671.640	1	-11
672.826	1	-18
674.011	1	8
675.197	1	-6
676.383	1	-7
677.569	1	-2
678.754	1	-2
679.940	1	-2
681.125	1	-5
682.311	1	-2
683.496	1	-5
684.682	1	-1
685.867	1	9
687.053	1	5
688.238	1	-2
688.746	1	4

File: GaN_sample E_spot4_UVVIS_68 K_200um_200 ms 2x2mm1_771.txt
340.368	1	-1
341.565	1	-8
342.763	1	-6
343.960	1	-10
345.157	1	4
346.354	1	0
347.552	1	-4
348.749	1	5
349.946	1	4
351.143	1	-7
352.340	1	-8
353.537	1	0
354.734	1	1
355.931	1	-1
357.127	1	-3
358.324	1	-5
359.521	1	-2
360.718	1	-11
361.914	1	-1
363.111	1	7
364.308	1	-5
365.504	1	-10
366.701	1	-3
367.897	1	0
369.093	1	6
370.290	1	-4
371.486	1	13
372.682	1	-3
373.879	1	2
375.075	1	6
376.271	1	-4
377.467	1	0
378.663	1	-8
379.859	1	-5
381.055	1	-5
382.251	1	-4
383.447	1	10
384.643	1	-1
385.839	1	3
387.035	1	-6
388.230	1	5
389.426	1	-1
390.622	1	-11
391.817	1	-6
393.013	1	9
394.208	1	0
395.404	1	10
396.599	1	4
397.795	1	3
398.990	1	10
400.186	1	11
401.381	1	-2
402.576	1	9
403.771	1	0
404.967	1	1
406.162	1	-3
407.357	1	7
408.552	1	11
409.747	1	-3
410.942	1	3
412.137	1	8
413.332	1	-5
414.526	1	-3
415.721	1	-2
416.916	1	-4
418.111	1	7
419.305	1	6
420.500	1	-2
421.695	1	-2
422.889	1	7
424.084	1	5
425.278	1	-14
426.472	1	4
427.667	1	5
428.861	1	1
430.055	1	-5
431.250	1	-9
432.444	1	13
433.638	1	-2
434.832	1	-2
436.026	1	0
437.220	1	1
438.414	1	3
439.608	1	5
440.802	1	-1
441.996	1	5
443.190	1	-18
444.384	1	5
445.578	1	14
446.771	1	0
447.965	1	-8
449.159	1	-1
450.352	1	5
451.546	1	-4
452.739	1	-5
453.933	1	3
455.126	1	-2
456.320	1	9
457.513	1	6
458.706	1	8
459.899	1	17
461.093	1	3
462.286	1	9
463.479	1	3
464.672	1	-1
465.865	1	-4
467.058	1	10
468.251	1	-2
469.444	1	-4
470.637	1	18
471.830	1	4
473.023	1	-12
474.215	1	-8
475.408	1	3
476.601	1	-9
477.793	1	6
478.986	1	-8
480.179	1	2
481.371	1	15
482.564	1	-9
483.756	1	10
484.948	1	-9
486.141	1	-6
487.333	1	0
488.525	1	-8
489.718	1	-1
490.910	1	-5
492.102	1	2
493.294	1	-3
494.486	1	4
495.678	1	10
496.870	1	2
498.062	1	-5
499.254	1	7
500.446	1	6
501.638	1	2
502.829	1	0
504.021	1	15
505.213	1	4
506.404	1	-7
507.596	1	7
508.788	1	0
509.979	1	-2
511.171	1	2
512.362	1	4
513.553	1	-4
514.745	1	6
515.936	1	11
517.127	1	6
518.319	1	1
519.510	1	-1
520.701	1	3
521.892	1	-5
523.083	1	6
524.274	1	-3
525.465	1	3
526.656	1	15
527.847	1	0
529.038	1	6
530.229	1	10
531.419	1	10
532.610	1	13
533.801	1	-5
534.991	1	1
536.182	1	-2
537.373	1	-10
538.563	1	-1
539.754	1	-6
540.944	1	-1
542.134	1	-3
543.325	1	-9
544.515	1	-1
545.705	1	0
546.896	1	5
548.086	1	0
549.276	1	6
550.466	1	-9
551.656	1	-14
552.846	1	2
554.036	1	1
555.226	1	-7
556.416	1	2
557.606	1	-6
558.796	1	5
559.986	1	-16
561.175	1	-5
562.365	1	8
563.555	1	9
564.744	1	6
565.934	1	5
567.123	1	10
568.313	1	-1
569.502	1	-2
570.692	1	6
571.881	1	-1
573.070	1	7
574.260	1	-3
575.449	1	4
576.638	1	1
577.827	1	3
579.016	1	8
580.205	1	-4
581.394	1	-4
582.583	1	-9
583.772	1	4
584.961	1	0
586.150	1	7
587.339	1	2
588.528	1	5
589.717	1	0
590.905	1	2
592.094	1	2
593.283	1	0
594.471	1	3
595.660	1	-9
596.848	1	10
598.037	1	-4
599.225	1	2
600.413	1	-2
601.602	1	4
602.790	1	1
603.978	1	-4
605.166	1	-1
606.355	1	6
607.543	1	-6
608.731	1	-6
609.919	1	-10
611.107	1	8
612.295	1	-3
613.483	1	3
614.671	1	10
615.858	1	3
617.046	1	-1
618.234	1	6
619.422	1	5
620.609	1	2
621.797	1	2
622.985	1	6
624.172	1	10
625.360	1	-7
626.547	1	-3
627.735	1	9
628.922	1	-1
630.109	1	-2
631.297	1	5
632.484	1	-7
633.671	1	-7
634.858	1	11
636.045	1	1
637.232	1	-4
638.419	1	8
639.606	1	9
640.793	1	6
641.980	1	-11
643.167	1	-2
644.354	1	-5
645.541	1	-7
646.728	1	5
647.914	1	-9
649.101	1	-1
650.288	1	-6
651.474	1	6
652.661	1	-2
653.847	1	0
655.034	1	-5
656.220	1	-3
657.406	1	6
658.593	1	-2
659.779	1	-8
660.965	1	-4
662.152	1	-7
663.338	1	4
664.524	1	-4
665.710	1	-6
666.896	1	-7
668.082	1	-8
669.268	1	8
670.454	1	-4
671.640	1	-16
672.826	1	-11
674.011	1	0
675.197	1	0
676.383	1	1
677.569	1	-4
678.754	1	8
679.940	1	2
681.125	1	9
682.311	1	-7
683.496	1	-10
684.682	1	6
685.867	1	-12
687.053	1	-2
688.238	1	-7
688.746	1	-2

File: GaN_sample E_spot4_UVVIS_68 K_200um_200 ms 2x2mm1_785.txt
340.368	1	2
341.565	1	-5
342.763	1	0
343.960	1	-1
345.157	1	8
346.354	1	-1
347.552	1	4
348.749	1	6
349.946	1	-1
351.143	1	-8
352.340	1	-1
353.537	1	-7
354.734	1	0
355.931	1	-2
357.127	1	2
358.324	1	-7
359.521	1	-2
360.718	1	5
361.914	1	-4
363.111	1	9
364.308	1	4
365.504	1	-3
366.701	1	0
367.897	1	3
369.093	1	-2
370.290	1	-1
371.486	1	6
372.682	1	-6
373.879	1	6
375.075	1	4
376.271	1	-8
377.467	1	2
378.663	1	-8
379.859	1	-3
381.055	1	4
382.251	1	1
383.447	1	5
384.643	1	11
385.839	1	-2
387.035	1	0
388.230	1	3
389.426	1	6
390.622	1	-10
391.817	1	1
393.013	1	7
394.208	1	3
395.404	1	7
396.599	1	0
397.795	1	-1
398.990	1	9
400.186	1	5
401.381	1	4
402.576	1	14
403.771	1	1
404.967	1	6
406.162	1	-8
407.357	1	-4
408.552	1	-3
409.747	1	-7
410.942	1	-2
412.137	1	-1
413.332	1	-8
414.526	1	-2
415.721	1	4
416.916	1	-9
418.111	1	-7
419.305	1	0
420.500	1	5
421.695	1	3
422.889	1	5
424.084	1	5
425.278	1	-1
426.472	1	0
427.667	1	-1
428.861	1	-4
430.055	1	-2
431.250	1	-10
432.444	1	14
433.638	1	-2
434.832	1	-6
436.026	1	1
437.220	1	8
438.414	1	2
439.608	1	6
440.802	1	2
441.996	1	4
443.190	1	-13
444.384	1	4
445.578	1	0
446.771	1	-5
447.965	1	-8
449.159	1	-6
450.352	1	7
451.546	1	4
452.739	1	-6
453.933	1	2
455.126	1	-4
456.320	1	2
457.513	1	5
458.706	1	2
459.899	1	11
461.093	1	4
462.286	1	13
463.479	1	12
464.672	1	-10
465.865	1	-7
467.058	1	6
468.251	1	-4
469.444	1	-5
470.637	1	9
471.830	1	20
473.023	1	-5
474.215	1	-4
475.408	1	2
476.601	1	4
477.793	1	14
478.986	1	-2
480.179	1	4
481.371	1	-3
482.564	1	-8
483.756	1	13
484.948	1	-6
486.141	1	-4
487.333	1	6
488.525	1	4
489.718	1	4
490.910	1	3
492.102	1	0
493.294	1	2
494.486	1	-1
495.678	1	4
496.870	1	4
498.062	1	1
499.254	1	1
500.446	1	7
501.638	1	-4
502.829	1	-3
504.021	1	15
505.213	1	-2
506.404	1	-3
507.596	1	4
508.788	1	7
509.979	1	0
511.171	1	9
512.362	1	2
513.553	1	-4
514.745	1	1
515.936	1	3
517.127	1	3
518.319	1	3
519.510	1	4
520.701	1	7
521.892	1	-15
523.083	1	-7
524.274	1	-12
525.465	1	-2
526.656	1	14
527.847	1	-9
529.038	1	8
530.229	1	6
531.419	1	9
532.610	1	4
533.801	1	8
534.991	1	-5
536.182	1	2
537.373	1	-8
538.563	1	9
539.754	1	-2
540.944	1	-2
542.134	1	3
543.325	1	0
544.515	1	-3
545.705	1	-3
546.896	1	-1
548.086	1	6
549.276	1	3
550.466	1	-2
551.656	1	-1
552.846	1	6
554.036	1	3
555.226	1	-12
556.416	1	-4
557.606	1	-14
558.796	1	-2
559.986	1	3
561.175	1	-4
562.365	1	3
563.555	1	8
564.744	1	6
565.934	1	-4
567.123	1	5
568.313	1	3
569.502	1	-5
570.692	1	0
571.881	1	1
573.070	1	6
574.260	1	7
575.449	1	-5
576.638	1	6
577.827	1	5
579.016	1	9
580.205	1	1
581.394	1	-5
582.583	1	-7
583.772	1	0
584.961	1	-1
586.150	1	-4
587.339	1	8
588.528	1	-2
589.717	1	8
590.905	1	2
592.094	1	0
593.283	1	8
594.471	1	2
595.660	1	-5
596.848	1	0
598.037	1	8
599.225	1	-9
600.413	1	-1
601.602	1	9
602.790	1	0
603.978	1	3
605.166	1	-1
606.355	1	9
607.543	1	-23
608.731	1	-1
609.919	1	-11
611.107	1	-7
612.295	1	12
613.483	1	3
614.671	1	7
615.858	1	11
617.046	1	2
618.234	1	-2
619.422	1	7
620.609	1	-4
621.797	1	0
622.985	1	4
624.172	1	12
625.360	1	-10
626.547	1	-1
627.735	1	6
628.922	1	-1
630.109	1	-4
631.297	1	-6
632.484	1	-5
633.671	1	-4
634.858	1	4
636.045	1	0
637.232	1	-1
638.419	1	11
639.606	1	-1
640.793	1	7
641.980	1	6
643.167	1	5
644.354	1	-7
645.541	1	-5
646.728	1	1
647.914	1	4
649.101	1	-2
650.288	1	-3
651.474	1	-4
652.661	1	0
653.847	1	5
655.034	1	0
656.220	1	5
657.406	1	5
658.593	1	-3
659.779	1	3
660.965	1	-3
662.152	1	-2
663.338	1	-5
664.524	1	-20
665.710	1	-5
666.896	1	2
668.082	1	-3
669.268	1	3
670.454	1	6
671.640	1	-8
672.826	1	-15
674.011	1	4
675.197	1	-1
676.383	1	-3
677.569	1	-4
678.754	1	-11
679.940	1	-3
681.125	1	0
682.311	1	2
683.496	1	-3
684.682	1	5
685.867	1	1
687.053	1	-6
688.238	1	-4
688.746	1	4

File: GaN_sample E_spot4_UVVIS_68 K_200um_200 ms 2x2mm1_786.txt
340.368	1	2
341.565	1	-9
342.763	1	0
343.960	1	3
345.157	1	3
346.354	1	-1
347.552	1	3
348.749	1	5
349.946	1	2
351.143	1	-10
352.340	1	-13
353.537	1	-2
354.734	1	-5
355.931	1	-3
357.127	1	-1
358.324	1	-3
359.521	1	-4
360.718	1	-2
361.914	1	-11
363.111	1	5
364.308	1	3
365.504	1	-5
366.701	1	-13
367.897	1	2
369.093	1	-3
370.290	1	-7
371.486	1	10
372.682	1	-5
373.879	1	6
375.075	1	4
376.271	1	-14
377.467	1	-5
378.663	1	-10
379.859	1	0
381.055	1	0
382.251	1	1
383.447	1	0
384.643	1	12
385.839	1	4
387.035	1	-9
388.230	1	0
389.426	1	6
390.622	1	-6
391.817	1	-13
393.013	1	9
394.208	1	4
395.404	1	8
396.599	1	5
397.795	1	8
398.990	1	-4
400.186	1	-3
401.381	1	4
402.576	1	6
403.771	1	9
404.967	1	2
406.162	1	-3
407.357	1	4
408.552	1	0
409.747	1	0
410.942	1	0
412.137	1	15
413.332	1	0
414.526	1	-1
415.721	1	-3
416.916	1	-5
418.111	1	-1
419.305	1	5
420.500	1	-4
421.695	1	-3
422.889	1	-1
424.084	1	0
425.278	1	-5
426.472	1	-4
427.667	1	7
428.861	1	-1
430.055	1	-2
431.250	1	-7
432.444	1	4
433.638	1	6
434.832	1	-5
436.026	1	0
437.220	1	0
438.414	1	3
439.608	1	-7
440.802	1	2
441.996	1	-5
443.190	1	-13
444.384	1	7
445.578	1	9
446.771	1	-6
447.965	1	2
449.159	1	-5
450.352	1	10
451.546	1	5
452.739	1	0
453.933	1	6
455.126	1	0
456.320	1	2
457.513	1	9
458.706	1	1
459.899	1	9
461.093	1	8
462.286	1	5
463.479	1	6
464.672	1	4
465.865	1	-3
467.058	1	11
468.251	1	-5
469.444	1	-9
470.637	1	6
471.830	1	15
473.023	1	-9
474.215	1	4
475.408	1	3
476.601	1	1
477.793	1	14
478.986	1	-3
480.179	1	-2
481.371	1	-2
482.564	1	-5
483.756	1	3
484.948	1	-4
486.141	1	-4
487.333	1	-1
488.525	1	-3
489.718	1	-2
490.910	1	-10
492.102	1	-6
493.294	1	13
494.486	1	-2
495.678	1	8
496.870	1	1
498.062	1	-8
499.254	1	-4
500.446	1	10
501.638	1	-2
502.829	1	-10
504.021	1	14
505.213	1	-6
506.404	1	-8
507.596	1	9
508.788	1	3
509.979	1	-1
511.171	1	13
512.362	1	-1
513.553	1	-9
514.745	1	-12
515.936	1	-2
517.127	1	2
518.319	1	-9
519.510	1	-1
520.701	1	5
521.892	1	-7
523.083	1	-6
524.274	1	-14
525.465	1	-7
526.656	1	26
527.847	1	-8
529.038	1	5
530.229	1	6
531.419	1	10
532.610	1	0
533.801	1	2
534.991	1	11
536.182	1	-9
537.373	1	-1
538.563	1	-2
539.754	1	-4
540.944	1	-7
542.134	1	4
543.325	1	-5
544.515	1	-6
545.705	1	11
546.896	1	-1
548.086	1	5
549.276	1	4
550.466	1	-1
551.656	1	-4
552.846	1	2
554.036	1	3
555.226	1	-13
556.416	1	-2
557.606	1	-10
558.796	1	5
559.986	1	-6
561.175	1	8
562.365	1	-3
563.555	1	8
564.744	1	-1
565.934	1	8
567.123	1	14
568.313	1	-5
569.502	1	1
570.692	1	4
571.881	1	1
573.070	1	13
574.260	1	-3
575.449	1	5
576.638	1	-5
577.827	1	3
579.016	1	5
580.205	1	-4
581.394	1	-1
582.583	1	-5
583.772	1	-1
584.961	1	-4
586.150	1	-2
587.339	1	-4
588.528	1	6
589.717	1	2
590.905	1	9
592.094	1	1
593.283	1	1
594.471	1	-7
595.660	1	3
596.848	1	8
598.037	1	7
599.225	1	4
600.413	1	-8
601.602	1	2
602.790	1	1
603.978	1	-3
605.166	1	-6
606.355	1	7
607.543	1	-9
608.731	1	-8
609.919	1	-7
611.107	1	5
612.295	1	2
613.483	1	-5
614.671	1	1
615.858	1	-3
617.046	1	13
618.234	1	-1
619.422	1	0
620.609	1	-3
621.797	1	-5
622.985	1	-2
624.172	1	9
625.360	1	-10
626.547	1	2
627.735	1	4
628.922	1	-6
630.109	1	-4
631.297	1	-6
632.484	1	-3
633.671	1	3
634.858	1	3
636.045	1	-2
637.232	1	2
638.419	1	5
639.606	1	1
640.793	1	4
641.980	1	3
643.167	1	6
644.354	1	-5
645.541	1	-12
646.728	1	11
647.914	1	-13
649.101	1	5
650.288	1	-1
651.474	1	5
652.661	1	3
653.847	1	3
655.034	1	-2
656.220	1	5
657.406	1	4
658.593	1	-11
659.779	1	-5
660.965	1	6
662.152	1	-7
663.338	1	2
664.524	1	-8
665.710	1	-9
666.896	1	-1
668.082	1	1
669.268	1	-5
670.454	1	-5
671.640	1	-16
672.826	1	-7
674.011	1	4
675.197	1	-4
676.383	1	-2
677.569	1	-8
678.754	1	-10
679.940	1	2
681.125	1	6
682.311	1	2
683.496	1	2
684.682	1	7
685.867	1	-5
687.053	1	-5
688.238	1	-2
688.746	1	1

File: GaN_sample E_spot4_UVVIS_68 K_200um_200 ms 2x2mm1_797.txt
340.368	1	4
341.565	1	-8
342.763	1	2
343.960	1	6
345.157	1	-1
346.354	1	-3
347.552	1	-1
348.749	1	-4
349.946	1	3
351.143	1	-20
352.340	1	1
353.537	1	-6
354.734	1	-8
355.931	1	1
357.127	1	2
358.324	1	-2
359.521	1	-3
360.718	1	1
361.914	1	-4
363.111	1	-1
364.308	1	-7
365.504	1	-9
366.701	1	-5
367.897	1	0
369.093	1	-1
370.290	1	-1
371.486	1	7
372.682	1	-4
373.879	1	10
375.075	1	4
376.271	1	-3
377.467	1	-1
378.663	1	-9
379.859	1	-3
381.055	1	-7
382.251	1	-4
383.447	1	-2
384.643	1	10
385.839	1	4
387.035	1	4
388.230	1	-4
389.426	1	0
390.622	1	0
391.817	1	-3
393.013	1	7
394.208	1	6
395.404	1	3
396.599	1	2
397.795	1	12
398.990	1	7
400.186	1	12
401.381	1	2
402.576	1	8
403.771	1	0
404.967	1	1
406.162	1	-1
407.357	1	-1
408.552	1	1
409.747	1	-2
410.942	1	3
412.137	1	-9
413.332	1	4
414.526	1	3
415.721	1	0
416.916	1	3
418.111	1	4
419.305	1	-1
420.500	1	12
421.695	1	3
422.889	1	4
424.084	1	1
425.278	1	-11
426.472	1	-8
427.667	1	8
428.861	1	6
430.055	1	-7
431.250	1	-6
432.444	1	4
433.638	1	-5
434.832	1	-6
436.026	1	2
437.220	1	6
438.414	1	8
439.608	1	0
440.802	1	5
441.996	1	1
443.190	1	0
444.384	1	4
445.578	1	4
446.771	1	-6
447.965	1	-4
449.159	1	-13
450.352	1	8
451.546	1	8
452.739	1	-4
453.933	1	12
455.126	1	0
456.320	1	8
457.513	1	8
458.706	1	-1
459.899	1	8
461.093	1	7
462.286	1	7
463.479	1	10
464.672	1	-5
465.865	1	-5
467.058	1	6
468.251	1	-7
469.444	1	6
470.637	1	13
471.830	1	17
473.023	1	-3
474.215	1	1
475.408	1	2
476.601	1	0
477.793	1	11
478.986	1	1
480.179	1	-1
481.371	1	11
482.564	1	-13
483.756	1	11
484.948	1	-2
486.141	1	-11
487.333	1	0
488.525	1	0
489.718	1	0
490.910	1	0
492.102	1	-5
493.294	1	7
494.486	1	10
495.678	1	5
496.870	1	4
498.062	1	-5
499.254	1	0
500.446	1	0
501.638	1	6
502.829	1	-3
504.021	1	10
505.213	1	-3
506.404	1	-15
507.596	1	-2
508.788	1	0
509.979	1	0
511.171	1	16
512.362	1	-4
513.553	1	3
514.745	1	-2
515.936	1	0
517.127	1	0
518.319	1	6
519.510	1	-1
520.701	1	4
521.892	1	-15
523.083	1	-1
524.274	1	-4
525.465	1	8
526.656	1	18
527.847	1	-8
529.038	1	11
530.229	1	6
531.419	1	1
532.610	1	2
533.801	1	2
534.991	1	2
536.182	1	3
537.373	1	1
538.563	1	7
539.754	1	-2
540.944	1	-18
542.134	1	8
543.325	1	-14
544.515	1	-10
545.705	1	4
546.896	1	3
548.086	1	0
549.276	1	5
550.466	1	0
551.656	1	-6
552.846	1	-9
554.036	1	1
555.226	1	-9
556.416	1	-4
557.606	1	-11
558.796	1	-3
559.986	1	-4
561.175	1	2
562.365	1	14
563.555	1	18
564.744	1	2
565.934	1	3
567.123	1	12
568.313	1	-10
569.502	1	5
570.692	1	2
571.881	1	4
573.070	1	4
574.260	1	0
575.449	1	4
576.638	1	-4
577.827	1	6
579.016	1	3
580.205	1	-3
581.394	1	-1
582.583	1	-18
583.772	1	5
584.961	1	0
586.150	1	-2
587.339	1	1
588.528	1	5
589.717	1	9
590.905	1	6
592.094	1	-3
593.283	1	7
594.471	1	7
595.660	1	0
596.848	1	10
598.037	1	2
599.225	1	1
600.413	1	-9
601.602	1	-1
602.790	1	-5
603.978	1	9
605.166	1	-6
606.355	1	4
607.543	1	-3
608.731	1	-16
609.919	1	-2
611.107	1	5
612.295	1	-3
613.483	1	10
614.671	1	8
615.858	1	9
617.046	1	8
618.234	1	-3
619.422	1	6
620.609	1	4
621.797	1	-3
622.985	1	3
624.172	1	13
625.360	1	-4
626.547	1	-1
627.735	1	11
628.922	1	0
630.109	1	-4
631.297	1	-5
632.484	1	-3
633.671	1	-1
634.858	1	6
636.045	1	-4
637.232	1	7
638.419	1	7
639.606	1	11
640.793	1	9
641.980	1	1
643.167	1	-3
644.354	1	1
645.541	1	-4
646.728	1	0
647.914	1	-7
649.101	1	6
650.288	1	-1
651.474	1	5
652.661	1	0
653.847	1	2
655.034	1	-1
656.220	1	6
657.406	1	4
658.593	1	-5
659.779	1	-7
660.965	1	-4
662.152	1	-2
663.338	1	8
664.524	1	-8
665.710	1	-7
666.896	1	1
668.082	1	-3
669.268	1	8
670.454	1	-7
671.640	1	-11
672.826	1	-12
674.011	1	9
675.197	1	-1
676.383	1	-3
677.569	1	-3
678.754	1	-2
679.940	1	-6
681.125	1	10
682.311	1	-2
683.496	1	1
684.682	1	8
685.867	1	-3
687.053	1	3
688.238	1	2
688.746	1	-3