Folder: cryo-il_analysis/Analysis/GaN_68K_200ms (part 4)

File: GaN_sample E_spot4_UVVIS_68 K_200um_200 ms 2x2mm1_116.txt
340.368	1	3
341.565	1	3
342.763	1	7
343.960	1	4
345.157	1	14
346.354	1	2
347.552	1	-3
348.749	1	9
349.946	1	15
351.143	1	0
352.340	1	14
353.537	1	9
354.734	1	5
355.931	1	17
357.127	1	12
358.324	1	23
359.521	1	14
360.718	1	19
361.914	1	30
363.111	1	68
364.308	1	115
365.504	1	222
366.701	1	316
367.897	1	325
369.093	1	197
370.290	1	139
371.486	1	102
372.682	1	89
373.879	1	95
375.075	1	89
376.271	1	79
377.467	1	77
378.663	1	88
379.859	1	124
381.055	1	204
382.251	1	361
383.447	1	706
384.643	1	1276
385.839	1	1862
387.035	1	2244
388.230	1	2274
389.426	1	2136
390.622	1	1954
391.817	1	1781
393.013	1	1587
394.208	1	1501
395.404	1	1604
396.599	1	1828
397.795	1	2016
398.990	1	1988
400.186	1	1792
401.381	1	1529
402.576	1	1377
403.771	1	1260
404.967	1	1185
406.162	1	1155
407.357	1	1119
408.552	1	1098
409.747	1	1049
410.942	1	1017
412.137	1	915
413.332	1	822
414.526	1	731
415.721	1	654
416.916	1	625
418.111	1	630
419.305	1	620
420.500	1	548
421.695	1	513
422.889	1	455
424.084	1	422
425.278	1	387
426.472	1	360
427.667	1	362
428.861	1	343
430.055	1	309
431.250	1	281
432.444	1	261
433.638	1	222
434.832	1	220
436.026	1	200
437.220	1	199
438.414	1	174
439.608	1	164
440.802	1	145
441.996	1	138
443.190	1	122
444.384	1	128
445.578	1	121
446.771	1	100
447.965	1	90
449.159	1	95
450.352	1	102
451.546	1	84
452.739	1	88
453.933	1	69
455.126	1	69
456.320	1	72
457.513	1	72
458.706	1	59
459.899	1	66
461.093	1	60
462.286	1	51
463.479	1	60
464.672	1	41
465.865	1	39
467.058	1	44
468.251	1	32
469.444	1	37
470.637	1	35
471.830	1	51
473.023	1	21
474.215	1	27
475.408	1	25
476.601	1	23
477.793	1	36
478.986	1	30
480.179	1	27
481.371	1	31
482.564	1	15
483.756	1	28
484.948	1	25
486.141	1	16
487.333	1	22
488.525	1	25
489.718	1	20
490.910	1	25
492.102	1	14
493.294	1	27
494.486	1	14
495.678	1	27
496.870	1	17
498.062	1	24
499.254	1	25
500.446	1	29
501.638	1	24
502.829	1	33
504.021	1	49
505.213	1	27
506.404	1	34
507.596	1	34
508.788	1	49
509.979	1	32
511.171	1	54
512.362	1	42
513.553	1	36
514.745	1	37
515.936	1	51
517.127	1	57
518.319	1	60
519.510	1	50
520.701	1	59
521.892	1	52
523.083	1	62
524.274	1	47
525.465	1	59
526.656	1	71
527.847	1	55
529.038	1	80
530.229	1	76
531.419	1	78
532.610	1	80
533.801	1	73
534.991	1	70
536.182	1	75
537.373	1	68
538.563	1	70
539.754	1	71
540.944	1	73
542.134	1	86
543.325	1	70
544.515	1	84
545.705	1	86
546.896	1	75
548.086	1	78
549.276	1	92
550.466	1	73
551.656	1	84
552.846	1	88
554.036	1	91
555.226	1	77
556.416	1	85
557.606	1	83
558.796	1	78
559.986	1	82
561.175	1	90
562.365	1	81
563.555	1	102
564.744	1	87
565.934	1	86
567.123	1	95
568.313	1	80
569.502	1	85
570.692	1	78
571.881	1	77
573.070	1	79
574.260	1	81
575.449	1	90
576.638	1	74
577.827	1	90
579.016	1	90
580.205	1	80
581.394	1	78
582.583	1	71
583.772	1	77
584.961	1	75
586.150	1	86
587.339	1	85
588.528	1	88
589.717	1	80
590.905	1	77
592.094	1	72
593.283	1	77
594.471	1	64
595.660	1	52
596.848	1	67
598.037	1	71
599.225	1	71
600.413	1	67
601.602	1	63
602.790	1	63
603.978	1	68
605.166	1	65
606.355	1	70
607.543	1	54
608.731	1	51
609.919	1	60
611.107	1	60
612.295	1	64
613.483	1	68
614.671	1	53
615.858	1	53
617.046	1	58
618.234	1	56
619.422	1	52
620.609	1	58
621.797	1	49
622.985	1	56
624.172	1	62
625.360	1	38
626.547	1	42
627.735	1	40
628.922	1	49
630.109	1	44
631.297	1	41
632.484	1	42
633.671	1	40
634.858	1	46
636.045	1	40
637.232	1	40
638.419	1	44
639.606	1	48
640.793	1	46
641.980	1	42
643.167	1	49
644.354	1	31
645.541	1	30
646.728	1	28
647.914	1	15
649.101	1	28
650.288	1	31
651.474	1	29
652.661	1	31
653.847	1	29
655.034	1	22
656.220	1	38
657.406	1	24
658.593	1	15
659.779	1	18
660.965	1	33
662.152	1	19
663.338	1	21
664.524	1	10
665.710	1	19
666.896	1	14
668.082	1	19
669.268	1	24
670.454	1	22
671.640	1	13
672.826	1	4
674.011	1	29
675.197	1	13
676.383	1	16
677.569	1	11
678.754	1	18
679.940	1	11
681.125	1	18
682.311	1	17
683.496	1	19
684.682	1	18
685.867	1	23
687.053	1	24
688.238	1	11
688.746	1	29

File: GaN_sample E_spot4_UVVIS_68 K_200um_200 ms 2x2mm1_117.txt
340.368	1	26
341.565	1	16
342.763	1	34
343.960	1	35
345.157	1	39
346.354	1	39
347.552	1	39
348.749	1	38
349.946	1	45
351.143	1	36
352.340	1	49
353.537	1	50
354.734	1	41
355.931	1	51
357.127	1	70
358.324	1	81
359.521	1	100
360.718	1	136
361.914	1	218
363.111	1	414
364.308	1	810
365.504	1	1440
366.701	1	1896
367.897	1	1663
369.093	1	1166
370.290	1	777
371.486	1	614
372.682	1	528
373.879	1	498
375.075	1	446
376.271	1	419
377.467	1	453
378.663	1	505
379.859	1	634
381.055	1	968
382.251	1	1682
383.447	1	3137
384.643	1	5268
385.839	1	7762
387.035	1	9279
388.230	1	9357
389.426	1	8875
390.622	1	8211
391.817	1	7499
393.013	1	6634
394.208	1	6369
395.404	1	6809
396.599	1	7627
397.795	1	8358
398.990	1	8249
400.186	1	7489
401.381	1	6494
402.576	1	5772
403.771	1	5282
404.967	1	4949
406.162	1	4804
407.357	1	4713
408.552	1	4617
409.747	1	4445
410.942	1	4160
412.137	1	3814
413.332	1	3443
414.526	1	3056
415.721	1	2849
416.916	1	2668
418.111	1	2625
419.305	1	2508
420.500	1	2397
421.695	1	2172
422.889	1	1988
424.084	1	1777
425.278	1	1654
426.472	1	1554
427.667	1	1524
428.861	1	1378
430.055	1	1315
431.250	1	1171
432.444	1	1090
433.638	1	1002
434.832	1	907
436.026	1	846
437.220	1	807
438.414	1	754
439.608	1	706
440.802	1	643
441.996	1	592
443.190	1	560
444.384	1	540
445.578	1	530
446.771	1	479
447.965	1	435
449.159	1	418
450.352	1	407
451.546	1	368
452.739	1	335
453.933	1	331
455.126	1	307
456.320	1	307
457.513	1	272
458.706	1	270
459.899	1	256
461.093	1	242
462.286	1	231
463.479	1	224
464.672	1	198
465.865	1	177
467.058	1	192
468.251	1	176
469.444	1	172
470.637	1	161
471.830	1	165
473.023	1	148
474.215	1	140
475.408	1	142
476.601	1	131
477.793	1	152
478.986	1	135
480.179	1	128
481.371	1	123
482.564	1	112
483.756	1	122
484.948	1	124
486.141	1	108
487.333	1	124
488.525	1	131
489.718	1	117
490.910	1	124
492.102	1	134
493.294	1	140
494.486	1	143
495.678	1	153
496.870	1	140
498.062	1	154
499.254	1	166
500.446	1	175
501.638	1	184
502.829	1	201
504.021	1	225
505.213	1	220
506.404	1	229
507.596	1	234
508.788	1	237
509.979	1	235
511.171	1	270
512.362	1	268
513.553	1	268
514.745	1	274
515.936	1	311
517.127	1	347
518.319	1	327
519.510	1	363
520.701	1	367
521.892	1	364
523.083	1	375
524.274	1	384
525.465	1	381
526.656	1	406
527.847	1	396
529.038	1	423
530.229	1	430
531.419	1	445
532.610	1	453
533.801	1	459
534.991	1	444
536.182	1	459
537.373	1	460
538.563	1	431
539.754	1	449
540.944	1	453
542.134	1	444
543.325	1	451
544.515	1	452
545.705	1	448
546.896	1	461
548.086	1	471
549.276	1	477
550.466	1	467
551.656	1	480
552.846	1	479
554.036	1	480
555.226	1	451
556.416	1	445
557.606	1	444
558.796	1	462
559.986	1	433
561.175	1	432
562.365	1	431
563.555	1	450
564.744	1	439
565.934	1	437
567.123	1	443
568.313	1	435
569.502	1	419
570.692	1	416
571.881	1	433
573.070	1	402
574.260	1	399
575.449	1	392
576.638	1	384
577.827	1	405
579.016	1	409
580.205	1	404
581.394	1	380
582.583	1	396
583.772	1	370
584.961	1	380
586.150	1	383
587.339	1	374
588.528	1	362
589.717	1	365
590.905	1	357
592.094	1	347
593.283	1	341
594.471	1	318
595.660	1	313
596.848	1	311
598.037	1	315
599.225	1	320
600.413	1	308
601.602	1	313
602.790	1	297
603.978	1	306
605.166	1	300
606.355	1	311
607.543	1	306
608.731	1	287
609.919	1	301
611.107	1	302
612.295	1	273
613.483	1	281
614.671	1	268
615.858	1	272
617.046	1	242
618.234	1	244
619.422	1	229
620.609	1	224
621.797	1	239
622.985	1	220
624.172	1	219
625.360	1	207
626.547	1	203
627.735	1	220
628.922	1	208
630.109	1	201
631.297	1	189
632.484	1	191
633.671	1	191
634.858	1	193
636.045	1	191
637.232	1	183
638.419	1	168
639.606	1	186
640.793	1	185
641.980	1	176
643.167	1	165
644.354	1	151
645.541	1	145
646.728	1	153
647.914	1	139
649.101	1	148
650.288	1	135
651.474	1	158
652.661	1	136
653.847	1	134
655.034	1	143
656.220	1	142
657.406	1	136
658.593	1	115
659.779	1	118
660.965	1	121
662.152	1	110
663.338	1	108
664.524	1	85
665.710	1	104
666.896	1	107
668.082	1	94
669.268	1	96
670.454	1	90
671.640	1	82
672.826	1	86
674.011	1	104
675.197	1	86
676.383	1	95
677.569	1	95
678.754	1	97
679.940	1	100
681.125	1	97
682.311	1	89
683.496	1	86
684.682	1	99
685.867	1	81
687.053	1	98
688.238	1	90
688.746	1	98

File: GaN_sample E_spot4_UVVIS_68 K_200um_200 ms 2x2mm1_119.txt
340.368	1	7
341.565	1	6
342.763	1	13
343.960	1	12
345.157	1	19
346.354	1	15
347.552	1	19
348.749	1	14
349.946	1	15
351.143	1	13
352.340	1	7
353.537	1	19
354.734	1	26
355.931	1	25
357.127	1	20
358.324	1	33
359.521	1	56
360.718	1	85
361.914	1	137
363.111	1	254
364.308	1	437
365.504	1	689
366.701	1	832
367.897	1	782
369.093	1	602
370.290	1	424
371.486	1	329
372.682	1	278
373.879	1	260
375.075	1	213
376.271	1	184
377.467	1	168
378.663	1	167
379.859	1	226
381.055	1	320
382.251	1	469
383.447	1	808
384.643	1	1279
385.839	1	1775
387.035	1	2062
388.230	1	2069
389.426	1	1945
390.622	1	1852
391.817	1	1727
393.013	1	1578
394.208	1	1496
395.404	1	1557
396.599	1	1768
397.795	1	1886
398.990	1	1823
400.186	1	1662
401.381	1	1484
402.576	1	1320
403.771	1	1213
404.967	1	1141
406.162	1	1124
407.357	1	1081
408.552	1	1049
409.747	1	1015
410.942	1	966
412.137	1	908
413.332	1	786
414.526	1	694
415.721	1	667
416.916	1	614
418.111	1	585
419.305	1	596
420.500	1	540
421.695	1	516
422.889	1	442
424.084	1	419
425.278	1	382
426.472	1	365
427.667	1	363
428.861	1	329
430.055	1	297
431.250	1	282
432.444	1	257
433.638	1	240
434.832	1	230
436.026	1	216
437.220	1	213
438.414	1	197
439.608	1	174
440.802	1	172
441.996	1	148
443.190	1	145
444.384	1	141
445.578	1	149
446.771	1	143
447.965	1	122
449.159	1	113
450.352	1	105
451.546	1	108
452.739	1	101
453.933	1	109
455.126	1	95
456.320	1	94
457.513	1	93
458.706	1	88
459.899	1	91
461.093	1	76
462.286	1	72
463.479	1	76
464.672	1	69
465.865	1	57
467.058	1	70
468.251	1	69
469.444	1	60
470.637	1	76
471.830	1	68
473.023	1	46
474.215	1	51
475.408	1	65
476.601	1	45
477.793	1	63
478.986	1	57
480.179	1	67
481.371	1	55
482.564	1	46
483.756	1	67
484.948	1	55
486.141	1	56
487.333	1	63
488.525	1	62
489.718	1	64
490.910	1	72
492.102	1	83
493.294	1	86
494.486	1	90
495.678	1	99
496.870	1	87
498.062	1	93
499.254	1	104
500.446	1	110
501.638	1	124
502.829	1	129
504.021	1	159
505.213	1	139
506.404	1	150
507.596	1	157
508.788	1	187
509.979	1	183
511.171	1	200
512.362	1	199
513.553	1	208
514.745	1	213
515.936	1	219
517.127	1	242
518.319	1	243
519.510	1	247
520.701	1	256
521.892	1	255
523.083	1	269
524.274	1	261
525.465	1	262
526.656	1	293
527.847	1	281
529.038	1	305
530.229	1	320
531.419	1	315
532.610	1	311
533.801	1	304
534.991	1	315
536.182	1	304
537.373	1	300
538.563	1	293
539.754	1	283
540.944	1	283
542.134	1	298
543.325	1	285
544.515	1	273
545.705	1	279
546.896	1	280
548.086	1	279
549.276	1	278
550.466	1	274
551.656	1	271
552.846	1	267
554.036	1	257
555.226	1	243
556.416	1	230
557.606	1	216
558.796	1	236
559.986	1	205
561.175	1	225
562.365	1	223
563.555	1	214
564.744	1	224
565.934	1	212
567.123	1	216
568.313	1	182
569.502	1	193
570.692	1	189
571.881	1	189
573.070	1	174
574.260	1	156
575.449	1	176
576.638	1	157
577.827	1	161
579.016	1	153
580.205	1	154
581.394	1	139
582.583	1	131
583.772	1	138
584.961	1	140
586.150	1	148
587.339	1	136
588.528	1	129
589.717	1	122
590.905	1	109
592.094	1	115
593.283	1	120
594.471	1	115
595.660	1	102
596.848	1	108
598.037	1	106
599.225	1	96
600.413	1	102
601.602	1	96
602.790	1	105
603.978	1	86
605.166	1	91
606.355	1	108
607.543	1	84
608.731	1	89
609.919	1	87
611.107	1	94
612.295	1	94
613.483	1	87
614.671	1	87
615.858	1	93
617.046	1	83
618.234	1	75
619.422	1	71
620.609	1	72
621.797	1	75
622.985	1	80
624.172	1	78
625.360	1	65
626.547	1	67
627.735	1	67
628.922	1	52
630.109	1	59
631.297	1	55
632.484	1	60
633.671	1	64
634.858	1	64
636.045	1	52
637.232	1	55
638.419	1	57
639.606	1	63
640.793	1	60
641.980	1	50
643.167	1	61
644.354	1	54
645.541	1	40
646.728	1	44
647.914	1	49
649.101	1	48
650.288	1	46
651.474	1	44
652.661	1	42
653.847	1	45
655.034	1	39
656.220	1	48
657.406	1	48
658.593	1	26
659.779	1	29
660.965	1	32
662.152	1	39
663.338	1	30
664.524	1	18
665.710	1	37
666.896	1	23
668.082	1	27
669.268	1	39
670.454	1	36
671.640	1	17
672.826	1	20
674.011	1	36
675.197	1	33
676.383	1	23
677.569	1	23
678.754	1	29
679.940	1	35
681.125	1	34
682.311	1	34
683.496	1	30
684.682	1	35
685.867	1	42
687.053	1	35
688.238	1	41
688.746	1	41

File: GaN_sample E_spot4_UVVIS_68 K_200um_200 ms 2x2mm1_122.txt
340.368	1	3
341.565	1	-5
342.763	1	5
343.960	1	4
345.157	1	5
346.354	1	-3
347.552	1	1
348.749	1	-2
349.946	1	14
351.143	1	-2
352.340	1	11
353.537	1	7
354.734	1	19
355.931	1	18
357.127	1	25
358.324	1	30
359.521	1	36
360.718	1	62
361.914	1	94
363.111	1	162
364.308	1	224
365.504	1	354
366.701	1	440
367.897	1	435
369.093	1	344
370.290	1	258
371.486	1	208
372.682	1	158
373.879	1	168
375.075	1	127
376.271	1	111
377.467	1	103
378.663	1	94
379.859	1	95
381.055	1	155
382.251	1	201
383.447	1	321
384.643	1	476
385.839	1	644
387.035	1	713
388.230	1	728
389.426	1	709
390.622	1	653
391.817	1	626
393.013	1	586
394.208	1	551
395.404	1	580
396.599	1	609
397.795	1	670
398.990	1	657
400.186	1	615
401.381	1	521
402.576	1	484
403.771	1	453
404.967	1	420
406.162	1	401
407.357	1	391
408.552	1	377
409.747	1	365
410.942	1	348
412.137	1	330
413.332	1	278
414.526	1	259
415.721	1	233
416.916	1	231
418.111	1	229
419.305	1	212
420.500	1	211
421.695	1	198
422.889	1	173
424.084	1	166
425.278	1	140
426.472	1	133
427.667	1	138
428.861	1	120
430.055	1	117
431.250	1	103
432.444	1	109
433.638	1	94
434.832	1	81
436.026	1	92
437.220	1	89
438.414	1	71
439.608	1	76
440.802	1	75
441.996	1	63
443.190	1	60
444.384	1	64
445.578	1	59
446.771	1	53
447.965	1	50
449.159	1	41
450.352	1	51
451.546	1	53
452.739	1	49
453.933	1	48
455.126	1	54
456.320	1	49
457.513	1	52
458.706	1	44
459.899	1	51
461.093	1	42
462.286	1	47
463.479	1	46
464.672	1	32
465.865	1	35
467.058	1	38
468.251	1	27
469.444	1	34
470.637	1	34
471.830	1	47
473.023	1	18
474.215	1	24
475.408	1	33
476.601	1	43
477.793	1	46
478.986	1	44
480.179	1	46
481.371	1	41
482.564	1	26
483.756	1	42
484.948	1	34
486.141	1	29
487.333	1	53
488.525	1	42
489.718	1	46
490.910	1	42
492.102	1	46
493.294	1	57
494.486	1	59
495.678	1	71
496.870	1	63
498.062	1	70
499.254	1	74
500.446	1	83
501.638	1	84
502.829	1	86
504.021	1	113
505.213	1	102
506.404	1	102
507.596	1	117
508.788	1	123
509.979	1	129
511.171	1	148
512.362	1	130
513.553	1	135
514.745	1	153
515.936	1	164
517.127	1	164
518.319	1	178
519.510	1	175
520.701	1	185
521.892	1	181
523.083	1	194
524.274	1	176
525.465	1	196
526.656	1	206
527.847	1	205
529.038	1	207
530.229	1	213
531.419	1	218
532.610	1	213
533.801	1	216
534.991	1	208
536.182	1	206
537.373	1	209
538.563	1	212
539.754	1	202
540.944	1	200
542.134	1	205
543.325	1	186
544.515	1	190
545.705	1	188
546.896	1	183
548.086	1	187
549.276	1	183
550.466	1	183
551.656	1	165
552.846	1	167
554.036	1	163
555.226	1	150
556.416	1	148
557.606	1	125
558.796	1	145
559.986	1	120
561.175	1	131
562.365	1	138
563.555	1	134
564.744	1	129
565.934	1	118
567.123	1	123
568.313	1	115
569.502	1	106
570.692	1	109
571.881	1	100
573.070	1	98
574.260	1	95
575.449	1	91
576.638	1	87
577.827	1	93
579.016	1	99
580.205	1	88
581.394	1	76
582.583	1	79
583.772	1	75
584.961	1	72
586.150	1	69
587.339	1	85
588.528	1	73
589.717	1	61
590.905	1	69
592.094	1	57
593.283	1	69
594.471	1	62
595.660	1	58
596.848	1	58
598.037	1	61
599.225	1	60
600.413	1	50
601.602	1	53
602.790	1	51
603.978	1	52
605.166	1	41
606.355	1	53
607.543	1	36
608.731	1	35
609.919	1	31
611.107	1	54
612.295	1	40
613.483	1	50
614.671	1	47
615.858	1	41
617.046	1	32
618.234	1	34
619.422	1	40
620.609	1	29
621.797	1	38
622.985	1	25
624.172	1	50
625.360	1	18
626.547	1	33
627.735	1	42
628.922	1	33
630.109	1	27
631.297	1	19
632.484	1	22
633.671	1	27
634.858	1	33
636.045	1	23
637.232	1	23
638.419	1	33
639.606	1	45
640.793	1	25
641.980	1	18
643.167	1	31
644.354	1	25
645.541	1	12
646.728	1	22
647.914	1	21
649.101	1	26
650.288	1	8
651.474	1	17
652.661	1	26
653.847	1	21
655.034	1	26
656.220	1	25
657.406	1	27
658.593	1	-2
659.779	1	15
660.965	1	18
662.152	1	16
663.338	1	4
664.524	1	6
665.710	1	1
666.896	1	5
668.082	1	12
669.268	1	14
670.454	1	11
671.640	1	9
672.826	1	5
674.011	1	20
675.197	1	14
676.383	1	11
677.569	1	11
678.754	1	14
679.940	1	13
681.125	1	17
682.311	1	23
683.496	1	14
684.682	1	24
685.867	1	22
687.053	1	17
688.238	1	24
688.746	1	24

File: GaN_sample E_spot4_UVVIS_68 K_200um_200 ms 2x2mm1_123.txt
340.368	1	4
341.565	1	1
342.763	1	0
343.960	1	2
345.157	1	7
346.354	1	0
347.552	1	13
348.749	1	14
349.946	1	17
351.143	1	0
352.340	1	6
353.537	1	12
354.734	1	10
355.931	1	15
357.127	1	28
358.324	1	24
359.521	1	31
360.718	1	51
361.914	1	86
363.111	1	152
364.308	1	212
365.504	1	320
366.701	1	393
367.897	1	376
369.093	1	315
370.290	1	243
371.486	1	193
372.682	1	160
373.879	1	147
375.075	1	122
376.271	1	104
377.467	1	85
378.663	1	76
379.859	1	93
381.055	1	108
382.251	1	174
383.447	1	268
384.643	1	397
385.839	1	535
387.035	1	596
388.230	1	596
389.426	1	568
390.622	1	541
391.817	1	493
393.013	1	475
394.208	1	455
395.404	1	488
396.599	1	542
397.795	1	553
398.990	1	540
400.186	1	487
401.381	1	444
402.576	1	402
403.771	1	362
404.967	1	334
406.162	1	333
407.357	1	319
408.552	1	315
409.747	1	297
410.942	1	286
412.137	1	266
413.332	1	241
414.526	1	207
415.721	1	208
416.916	1	192
418.111	1	190
419.305	1	187
420.500	1	169
421.695	1	152
422.889	1	154
424.084	1	131
425.278	1	113
426.472	1	103
427.667	1	115
428.861	1	104
430.055	1	104
431.250	1	84
432.444	1	89
433.638	1	86
434.832	1	75
436.026	1	70
437.220	1	70
438.414	1	314
439.608	1	67
440.802	1	60
441.996	1	67
443.190	1	48
444.384	1	46
445.578	1	54
446.771	1	36
447.965	1	34
449.159	1	30
450.352	1	46
451.546	1	46
452.739	1	38
453.933	1	37
455.126	1	47
456.320	1	35
457.513	1	44
458.706	1	35
459.899	1	37
461.093	1	43
462.286	1	39
463.479	1	31
464.672	1	29
465.865	1	24
467.058	1	38
468.251	1	20
469.444	1	27
470.637	1	35
471.830	1	34
473.023	1	26
474.215	1	23
475.408	1	35
476.601	1	26
477.793	1	30
478.986	1	21
480.179	1	30
481.371	1	41
482.564	1	12
483.756	1	29
484.948	1	28
486.141	1	30
487.333	1	42
488.525	1	38
489.718	1	39
490.910	1	53
492.102	1	33
493.294	1	49
494.486	1	61
495.678	1	55
496.870	1	55
498.062	1	61
499.254	1	71
500.446	1	89
501.638	1	90
502.829	1	96
504.021	1	105
505.213	1	95
506.404	1	96
507.596	1	106
508.788	1	110
509.979	1	112
511.171	1	130
512.362	1	119
513.553	1	120
514.745	1	132
515.936	1	136
517.127	1	135
518.319	1	151
519.510	1	159
520.701	1	191
521.892	1	162
523.083	1	166
524.274	1	178
525.465	1	170
526.656	1	195
527.847	1	183
529.038	1	187
530.229	1	187
531.419	1	204
532.610	1	182
533.801	1	198
534.991	1	199
536.182	1	194
537.373	1	183
538.563	1	175
539.754	1	182
540.944	1	174
542.134	1	184
543.325	1	167
544.515	1	154
545.705	1	164
546.896	1	160
548.086	1	169
549.276	1	163
550.466	1	172
551.656	1	142
552.846	1	168
554.036	1	150
555.226	1	136
556.416	1	136
557.606	1	129
558.796	1	131
559.986	1	119
561.175	1	128
562.365	1	120
563.555	1	127
564.744	1	109
565.934	1	105
567.123	1	117
568.313	1	92
569.502	1	107
570.692	1	88
571.881	1	93
573.070	1	92
574.260	1	85
575.449	1	89
576.638	1	88
577.827	1	73
579.016	1	87
580.205	1	75
581.394	1	62
582.583	1	63
583.772	1	68
584.961	1	68
586.150	1	73
587.339	1	73
588.528	1	62
589.717	1	56
590.905	1	54
592.094	1	56
593.283	1	59
594.471	1	40
595.660	1	41
596.848	1	54
598.037	1	41
599.225	1	46
600.413	1	42
601.602	1	49
602.790	1	41
603.978	1	38
605.166	1	40
606.355	1	48
607.543	1	33
608.731	1	38
609.919	1	29
611.107	1	50
612.295	1	47
613.483	1	44
614.671	1	36
615.858	1	37
617.046	1	32
618.234	1	22
619.422	1	39
620.609	1	21
621.797	1	30
622.985	1	31
624.172	1	30
625.360	1	20
626.547	1	32
627.735	1	26
628.922	1	23
630.109	1	10
631.297	1	10
632.484	1	17
633.671	1	23
634.858	1	24
636.045	1	20
637.232	1	25
638.419	1	27
639.606	1	23
640.793	1	17
641.980	1	22
643.167	1	29
644.354	1	24
645.541	1	23
646.728	1	17
647.914	1	19
649.101	1	29
650.288	1	7
651.474	1	16
652.661	1	12
653.847	1	26
655.034	1	22
656.220	1	24
657.406	1	11
658.593	1	10
659.779	1	13
660.965	1	17
662.152	1	18
663.338	1	13
664.524	1	6
665.710	1	6
666.896	1	15
668.082	1	8
669.268	1	13
670.454	1	11
671.640	1	-1
672.826	1	2
674.011	1	16
675.197	1	14
676.383	1	13
677.569	1	1
678.754	1	13
679.940	1	9
681.125	1	15
682.311	1	19
683.496	1	6
684.682	1	18
685.867	1	12
687.053	1	23
688.238	1	18
688.746	1	16

File: GaN_sample E_spot4_UVVIS_68 K_200um_200 ms 2x2mm1_124.txt
340.368	1	4
341.565	1	-2
342.763	1	11
343.960	1	4
345.157	1	12
346.354	1	8
347.552	1	3
348.749	1	8
349.946	1	13
351.143	1	9
352.340	1	10
353.537	1	10
354.734	1	13
355.931	1	7
357.127	1	21
358.324	1	16
359.521	1	37
360.718	1	46
361.914	1	66
363.111	1	126
364.308	1	181
365.504	1	266
366.701	1	337
367.897	1	314
369.093	1	274
370.290	1	209
371.486	1	175
372.682	1	134
373.879	1	134
375.075	1	106
376.271	1	88
377.467	1	79
378.663	1	77
379.859	1	81
381.055	1	109
382.251	1	145
383.447	1	234
384.643	1	332
385.839	1	418
387.035	1	478
388.230	1	462
389.426	1	442
390.622	1	429
391.817	1	401
393.013	1	390
394.208	1	368
395.404	1	384
396.599	1	402
397.795	1	434
398.990	1	424
400.186	1	386
401.381	1	329
402.576	1	296
403.771	1	282
404.967	1	281
406.162	1	263
407.357	1	261
408.552	1	248
409.747	1	238
410.942	1	215
412.137	1	219
413.332	1	195
414.526	1	166
415.721	1	148
416.916	1	145
418.111	1	144
419.305	1	142
420.500	1	133
421.695	1	133
422.889	1	108
424.084	1	106
425.278	1	89
426.472	1	81
427.667	1	93
428.861	1	85
430.055	1	78
431.250	1	67
432.444	1	69
433.638	1	62
434.832	1	53
436.026	1	70
437.220	1	64
438.414	1	47
439.608	1	45
440.802	1	56
441.996	1	37
443.190	1	30
444.384	1	50
445.578	1	47
446.771	1	38
447.965	1	38
449.159	1	31
450.352	1	34
451.546	1	35
452.739	1	32
453.933	1	40
455.126	1	37
456.320	1	26
457.513	1	33
458.706	1	26
459.899	1	37
461.093	1	39
462.286	1	25
463.479	1	46
464.672	1	25
465.865	1	12
467.058	1	43
468.251	1	21
469.444	1	24
470.637	1	33
471.830	1	38
473.023	1	13
474.215	1	20
475.408	1	16
476.601	1	21
477.793	1	29
478.986	1	11
480.179	1	23
481.371	1	26
482.564	1	17
483.756	1	37
484.948	1	26
486.141	1	22
487.333	1	42
488.525	1	26
489.718	1	44
490.910	1	44
492.102	1	42
493.294	1	51
494.486	1	53
495.678	1	53
496.870	1	56
498.062	1	57
499.254	1	59
500.446	1	80
501.638	1	76
502.829	1	72
504.021	1	97
505.213	1	90
506.404	1	93
507.596	1	89
508.788	1	102
509.979	1	112
511.171	1	137
512.362	1	123
513.553	1	115
514.745	1	119
515.936	1	123
517.127	1	141
518.319	1	141
519.510	1	148
520.701	1	168
521.892	1	138
523.083	1	155
524.274	1	156
525.465	1	161
526.656	1	184
527.847	1	163
529.038	1	183
530.229	1	173
531.419	1	201
532.610	1	160
533.801	1	184
534.991	1	163
536.182	1	175
537.373	1	161
538.563	1	159
539.754	1	146
540.944	1	151
542.134	1	164
543.325	1	137
544.515	1	149
545.705	1	141
546.896	1	138
548.086	1	144
549.276	1	154
550.466	1	140
551.656	1	139
552.846	1	143
554.036	1	142
555.226	1	120
556.416	1	127
557.606	1	116
558.796	1	111
559.986	1	108
561.175	1	108
562.365	1	105
563.555	1	102
564.744	1	109
565.934	1	90
567.123	1	109
568.313	1	73
569.502	1	94
570.692	1	79
571.881	1	90
573.070	1	79
574.260	1	69
575.449	1	73
576.638	1	77
577.827	1	66
579.016	1	73
580.205	1	62
581.394	1	59
582.583	1	53
583.772	1	64
584.961	1	71
586.150	1	58
587.339	1	51
588.528	1	52
589.717	1	53
590.905	1	48
592.094	1	46
593.283	1	51
594.471	1	49
595.660	1	53
596.848	1	49
598.037	1	41
599.225	1	42
600.413	1	29
601.602	1	47
602.790	1	36
603.978	1	42
605.166	1	25
606.355	1	45
607.543	1	28
608.731	1	34
609.919	1	37
611.107	1	29
612.295	1	27
613.483	1	43
614.671	1	30
615.858	1	30
617.046	1	23
618.234	1	17
619.422	1	27
620.609	1	21
621.797	1	22
622.985	1	21
624.172	1	24
625.360	1	18
626.547	1	24
627.735	1	33
628.922	1	22
630.109	1	12
631.297	1	16
632.484	1	12
633.671	1	24
634.858	1	26
636.045	1	16
637.232	1	22
638.419	1	23
639.606	1	26
640.793	1	15
641.980	1	20
643.167	1	20
644.354	1	11
645.541	1	8
646.728	1	15
647.914	1	12
649.101	1	13
650.288	1	7
651.474	1	20
652.661	1	19
653.847	1	17
655.034	1	19
656.220	1	22
657.406	1	10
658.593	1	5
659.779	1	4
660.965	1	10
662.152	1	19
663.338	1	9
664.524	1	10
665.710	1	7
666.896	1	5
668.082	1	3
669.268	1	16
670.454	1	14
671.640	1	-2
672.826	1	5
674.011	1	11
675.197	1	12
676.383	1	18
677.569	1	10
678.754	1	4
679.940	1	11
681.125	1	16
682.311	1	3
683.496	1	7
684.682	1	18
685.867	1	10
687.053	1	18
688.238	1	27
688.746	1	23