Folder: cryo-il_analysis/Analysis/GaN_68K_200ms (part 12)

File: GaN_sample E_spot4_UVVIS_68 K_200um_200 ms 2x2mm1_230.txt
340.368	1	16
341.565	1	0
342.763	1	2
343.960	1	8
345.157	1	11
346.354	1	5
347.552	1	2
348.749	1	4
349.946	1	8
351.143	1	1
352.340	1	9
353.537	1	2
354.734	1	0
355.931	1	4
357.127	1	14
358.324	1	5
359.521	1	0
360.718	1	2
361.914	1	7
363.111	1	20
364.308	1	8
365.504	1	3
366.701	1	12
367.897	1	16
369.093	1	6
370.290	1	5
371.486	1	14
372.682	1	2
373.879	1	15
375.075	1	15
376.271	1	18
377.467	1	4
378.663	1	5
379.859	1	2
381.055	1	1
382.251	1	14
383.447	1	17
384.643	1	13
385.839	1	22
387.035	1	25
388.230	1	13
389.426	1	17
390.622	1	14
391.817	1	12
393.013	1	23
394.208	1	23
395.404	1	23
396.599	1	15
397.795	1	27
398.990	1	18
400.186	1	20
401.381	1	20
402.576	1	29
403.771	1	16
404.967	1	12
406.162	1	10
407.357	1	11
408.552	1	11
409.747	1	15
410.942	1	10
412.137	1	15
413.332	1	2
414.526	1	18
415.721	1	5
416.916	1	11
418.111	1	7
419.305	1	6
420.500	1	7
421.695	1	9
422.889	1	18
424.084	1	11
425.278	1	15
426.472	1	10
427.667	1	15
428.861	1	5
430.055	1	14
431.250	1	-4
432.444	1	12
433.638	1	5
434.832	1	5
436.026	1	6
437.220	1	10
438.414	1	10
439.608	1	5
440.802	1	8
441.996	1	4
443.190	1	-9
444.384	1	9
445.578	1	9
446.771	1	-8
447.965	1	1
449.159	1	6
450.352	1	5
451.546	1	5
452.739	1	3
453.933	1	17
455.126	1	9
456.320	1	10
457.513	1	9
458.706	1	1
459.899	1	15
461.093	1	6
462.286	1	14
463.479	1	11
464.672	1	6
465.865	1	0
467.058	1	17
468.251	1	-3
469.444	1	-3
470.637	1	23
471.830	1	27
473.023	1	4
474.215	1	-2
475.408	1	2
476.601	1	8
477.793	1	13
478.986	1	4
480.179	1	10
481.371	1	4
482.564	1	-8
483.756	1	14
484.948	1	-3
486.141	1	8
487.333	1	6
488.525	1	1
489.718	1	-2
490.910	1	0
492.102	1	9
493.294	1	17
494.486	1	7
495.678	1	10
496.870	1	3
498.062	1	5
499.254	1	9
500.446	1	20
501.638	1	6
502.829	1	13
504.021	1	22
505.213	1	2
506.404	1	5
507.596	1	11
508.788	1	14
509.979	1	14
511.171	1	20
512.362	1	9
513.553	1	1
514.745	1	12
515.936	1	9
517.127	1	7
518.319	1	15
519.510	1	8
520.701	1	7
521.892	1	11
523.083	1	11
524.274	1	4
525.465	1	10
526.656	1	33
527.847	1	1
529.038	1	17
530.229	1	15
531.419	1	23
532.610	1	22
533.801	1	12
534.991	1	11
536.182	1	2
537.373	1	8
538.563	1	9
539.754	1	7
540.944	1	14
542.134	1	15
543.325	1	2
544.515	1	11
545.705	1	9
546.896	1	8
548.086	1	13
549.276	1	10
550.466	1	12
551.656	1	6
552.846	1	12
554.036	1	1
555.226	1	1
556.416	1	8
557.606	1	2
558.796	1	5
559.986	1	8
561.175	1	6
562.365	1	18
563.555	1	10
564.744	1	16
565.934	1	4
567.123	1	15
568.313	1	6
569.502	1	9
570.692	1	11
571.881	1	6
573.070	1	7
574.260	1	-2
575.449	1	20
576.638	1	4
577.827	1	8
579.016	1	17
580.205	1	4
581.394	1	3
582.583	1	4
583.772	1	0
584.961	1	2
586.150	1	6
587.339	1	3
588.528	1	8
589.717	1	5
590.905	1	8
592.094	1	8
593.283	1	9
594.471	1	15
595.660	1	2
596.848	1	17
598.037	1	5
599.225	1	1
600.413	1	3
601.602	1	15
602.790	1	7
603.978	1	4
605.166	1	0
606.355	1	13
607.543	1	-2
608.731	1	-3
609.919	1	-3
611.107	1	10
612.295	1	10
613.483	1	10
614.671	1	11
615.858	1	3
617.046	1	3
618.234	1	12
619.422	1	3
620.609	1	0
621.797	1	5
622.985	1	13
624.172	1	9
625.360	1	-1
626.547	1	4
627.735	1	4
628.922	1	2
630.109	1	-4
631.297	1	1
632.484	1	8
633.671	1	6
634.858	1	10
636.045	1	3
637.232	1	6
638.419	1	10
639.606	1	9
640.793	1	6
641.980	1	-3
643.167	1	6
644.354	1	2
645.541	1	-6
646.728	1	3
647.914	1	-1
649.101	1	6
650.288	1	-8
651.474	1	6
652.661	1	3
653.847	1	10
655.034	1	2
656.220	1	9
657.406	1	6
658.593	1	-11
659.779	1	4
660.965	1	6
662.152	1	13
663.338	1	1
664.524	1	-10
665.710	1	-2
666.896	1	8
668.082	1	-10
669.268	1	14
670.454	1	1
671.640	1	-15
672.826	1	-7
674.011	1	5
675.197	1	9
676.383	1	4
677.569	1	0
678.754	1	-1
679.940	1	-5
681.125	1	11
682.311	1	6
683.496	1	-10
684.682	1	15
685.867	1	-3
687.053	1	7
688.238	1	7
688.746	1	5

File: GaN_sample E_spot4_UVVIS_68 K_200um_200 ms 2x2mm1_232.txt
340.368	1	4
341.565	1	-5
342.763	1	-2
343.960	1	-2
345.157	1	3
346.354	1	0
347.552	1	3
348.749	1	4
349.946	1	10
351.143	1	-3
352.340	1	1
353.537	1	2
354.734	1	3
355.931	1	5
357.127	1	12
358.324	1	6
359.521	1	13
360.718	1	-1
361.914	1	5
363.111	1	12
364.308	1	10
365.504	1	6
366.701	1	10
367.897	1	8
369.093	1	7
370.290	1	11
371.486	1	16
372.682	1	8
373.879	1	14
375.075	1	6
376.271	1	1
377.467	1	-8
378.663	1	12
379.859	1	8
381.055	1	10
382.251	1	4
383.447	1	14
384.643	1	18
385.839	1	15
387.035	1	5
388.230	1	10
389.426	1	17
390.622	1	11
391.817	1	12
393.013	1	33
394.208	1	11
395.404	1	21
396.599	1	11
397.795	1	17
398.990	1	10
400.186	1	15
401.381	1	15
402.576	1	22
403.771	1	12
404.967	1	13
406.162	1	-2
407.357	1	16
408.552	1	9
409.747	1	-4
410.942	1	14
412.137	1	8
413.332	1	6
414.526	1	8
415.721	1	14
416.916	1	4
418.111	1	6
419.305	1	9
420.500	1	3
421.695	1	3
422.889	1	16
424.084	1	13
425.278	1	5
426.472	1	5
427.667	1	13
428.861	1	20
430.055	1	14
431.250	1	0
432.444	1	11
433.638	1	0
434.832	1	4
436.026	1	4
437.220	1	11
438.414	1	2
439.608	1	12
440.802	1	13
441.996	1	2
443.190	1	-2
444.384	1	2
445.578	1	12
446.771	1	4
447.965	1	0
449.159	1	3
450.352	1	10
451.546	1	15
452.739	1	11
453.933	1	11
455.126	1	8
456.320	1	6
457.513	1	11
458.706	1	9
459.899	1	21
461.093	1	13
462.286	1	15
463.479	1	14
464.672	1	-2
465.865	1	3
467.058	1	18
468.251	1	3
469.444	1	3
470.637	1	16
471.830	1	15
473.023	1	-5
474.215	1	1
475.408	1	2
476.601	1	13
477.793	1	12
478.986	1	2
480.179	1	1
481.371	1	0
482.564	1	-1
483.756	1	17
484.948	1	-4
486.141	1	0
487.333	1	2
488.525	1	-3
489.718	1	6
490.910	1	-7
492.102	1	1
493.294	1	12
494.486	1	9
495.678	1	19
496.870	1	-1
498.062	1	4
499.254	1	4
500.446	1	14
501.638	1	4
502.829	1	8
504.021	1	23
505.213	1	1
506.404	1	-3
507.596	1	19
508.788	1	6
509.979	1	18
511.171	1	20
512.362	1	9
513.553	1	0
514.745	1	9
515.936	1	15
517.127	1	5
518.319	1	4
519.510	1	16
520.701	1	16
521.892	1	3
523.083	1	6
524.274	1	7
525.465	1	9
526.656	1	24
527.847	1	-3
529.038	1	10
530.229	1	11
531.419	1	14
532.610	1	12
533.801	1	3
534.991	1	7
536.182	1	14
537.373	1	-1
538.563	1	13
539.754	1	8
540.944	1	7
542.134	1	15
543.325	1	11
544.515	1	8
545.705	1	6
546.896	1	8
548.086	1	4
549.276	1	15
550.466	1	14
551.656	1	3
552.846	1	13
554.036	1	10
555.226	1	3
556.416	1	13
557.606	1	4
558.796	1	8
559.986	1	10
561.175	1	3
562.365	1	9
563.555	1	10
564.744	1	11
565.934	1	12
567.123	1	27
568.313	1	6
569.502	1	3
570.692	1	16
571.881	1	11
573.070	1	5
574.260	1	7
575.449	1	12
576.638	1	9
577.827	1	10
579.016	1	22
580.205	1	4
581.394	1	1
582.583	1	5
583.772	1	7
584.961	1	7
586.150	1	4
587.339	1	2
588.528	1	10
589.717	1	5
590.905	1	7
592.094	1	0
593.283	1	2
594.471	1	-1
595.660	1	0
596.848	1	7
598.037	1	1
599.225	1	-1
600.413	1	7
601.602	1	11
602.790	1	2
603.978	1	7
605.166	1	1
606.355	1	10
607.543	1	-11
608.731	1	2
609.919	1	-9
611.107	1	10
612.295	1	9
613.483	1	7
614.671	1	2
615.858	1	2
617.046	1	10
618.234	1	-1
619.422	1	8
620.609	1	9
621.797	1	5
622.985	1	5
624.172	1	19
625.360	1	1
626.547	1	9
627.735	1	-3
628.922	1	3
630.109	1	2
631.297	1	-7
632.484	1	-4
633.671	1	2
634.858	1	7
636.045	1	2
637.232	1	7
638.419	1	11
639.606	1	17
640.793	1	7
641.980	1	10
643.167	1	10
644.354	1	6
645.541	1	-7
646.728	1	9
647.914	1	-1
649.101	1	-7
650.288	1	-1
651.474	1	13
652.661	1	2
653.847	1	-2
655.034	1	4
656.220	1	5
657.406	1	8
658.593	1	-10
659.779	1	-3
660.965	1	0
662.152	1	7
663.338	1	0
664.524	1	-3
665.710	1	-4
666.896	1	-1
668.082	1	2
669.268	1	5
670.454	1	8
671.640	1	-7
672.826	1	-7
674.011	1	9
675.197	1	-1
676.383	1	3
677.569	1	0
678.754	1	1
679.940	1	-1
681.125	1	8
682.311	1	-2
683.496	1	-7
684.682	1	6
685.867	1	-4
687.053	1	3
688.238	1	2
688.746	1	-3

File: GaN_sample E_spot4_UVVIS_68 K_200um_200 ms 2x2mm1_234.txt
340.368	1	1
341.565	1	-8
342.763	1	3
343.960	1	-3
345.157	1	7
346.354	1	3
347.552	1	1
348.749	1	4
349.946	1	12
351.143	1	-12
352.340	1	-4
353.537	1	4
354.734	1	4
355.931	1	4
357.127	1	8
358.324	1	1
359.521	1	6
360.718	1	0
361.914	1	6
363.111	1	19
364.308	1	6
365.504	1	5
366.701	1	11
367.897	1	7
369.093	1	12
370.290	1	-1
371.486	1	18
372.682	1	3
373.879	1	12
375.075	1	8
376.271	1	2
377.467	1	11
378.663	1	5
379.859	1	1
381.055	1	5
382.251	1	1
383.447	1	13
384.643	1	14
385.839	1	19
387.035	1	16
388.230	1	18
389.426	1	20
390.622	1	8
391.817	1	17
393.013	1	26
394.208	1	21
395.404	1	17
396.599	1	13
397.795	1	14
398.990	1	16
400.186	1	18
401.381	1	12
402.576	1	26
403.771	1	10
404.967	1	13
406.162	1	6
407.357	1	2
408.552	1	14
409.747	1	9
410.942	1	15
412.137	1	16
413.332	1	13
414.526	1	10
415.721	1	17
416.916	1	2
418.111	1	9
419.305	1	12
420.500	1	20
421.695	1	18
422.889	1	17
424.084	1	15
425.278	1	3
426.472	1	3
427.667	1	14
428.861	1	6
430.055	1	11
431.250	1	-1
432.444	1	16
433.638	1	11
434.832	1	3
436.026	1	1
437.220	1	17
438.414	1	5
439.608	1	6
440.802	1	13
441.996	1	4
443.190	1	-3
444.384	1	19
445.578	1	10
446.771	1	-1
447.965	1	4
449.159	1	-4
450.352	1	10
451.546	1	10
452.739	1	5
453.933	1	11
455.126	1	3
456.320	1	5
457.513	1	14
458.706	1	11
459.899	1	19
461.093	1	4
462.286	1	14
463.479	1	18
464.672	1	10
465.865	1	-6
467.058	1	11
468.251	1	0
469.444	1	2
470.637	1	17
471.830	1	11
473.023	1	4
474.215	1	-1
475.408	1	4
476.601	1	1
477.793	1	10
478.986	1	3
480.179	1	5
481.371	1	5
482.564	1	-8
483.756	1	10
484.948	1	5
486.141	1	0
487.333	1	4
488.525	1	7
489.718	1	4
490.910	1	2
492.102	1	-6
493.294	1	9
494.486	1	3
495.678	1	9
496.870	1	10
498.062	1	13
499.254	1	4
500.446	1	6
501.638	1	1
502.829	1	10
504.021	1	20
505.213	1	2
506.404	1	3
507.596	1	12
508.788	1	10
509.979	1	8
511.171	1	18
512.362	1	7
513.553	1	-6
514.745	1	-1
515.936	1	16
517.127	1	7
518.319	1	5
519.510	1	10
520.701	1	13
521.892	1	-4
523.083	1	7
524.274	1	3
525.465	1	10
526.656	1	23
527.847	1	4
529.038	1	17
530.229	1	6
531.419	1	18
532.610	1	8
533.801	1	10
534.991	1	13
536.182	1	15
537.373	1	4
538.563	1	16
539.754	1	2
540.944	1	7
542.134	1	12
543.325	1	5
544.515	1	5
545.705	1	14
546.896	1	13
548.086	1	19
549.276	1	24
550.466	1	7
551.656	1	-4
552.846	1	23
554.036	1	8
555.226	1	-8
556.416	1	7
557.606	1	-5
558.796	1	-1
559.986	1	0
561.175	1	8
562.365	1	12
563.555	1	12
564.744	1	9
565.934	1	14
567.123	1	17
568.313	1	6
569.502	1	2
570.692	1	12
571.881	1	13
573.070	1	7
574.260	1	7
575.449	1	7
576.638	1	9
577.827	1	13
579.016	1	13
580.205	1	5
581.394	1	-2
582.583	1	-5
583.772	1	11
584.961	1	-1
586.150	1	10
587.339	1	7
588.528	1	10
589.717	1	9
590.905	1	8
592.094	1	5
593.283	1	17
594.471	1	-1
595.660	1	1
596.848	1	7
598.037	1	10
599.225	1	8
600.413	1	1
601.602	1	7
602.790	1	10
603.978	1	2
605.166	1	-2
606.355	1	12
607.543	1	2
608.731	1	9
609.919	1	0
611.107	1	15
612.295	1	13
613.483	1	5
614.671	1	8
615.858	1	6
617.046	1	6
618.234	1	7
619.422	1	1
620.609	1	3
621.797	1	3
622.985	1	10
624.172	1	21
625.360	1	-5
626.547	1	3
627.735	1	8
628.922	1	2
630.109	1	-1
631.297	1	-7
632.484	1	-4
633.671	1	2
634.858	1	10
636.045	1	7
637.232	1	-8
638.419	1	15
639.606	1	13
640.793	1	6
641.980	1	0
643.167	1	9
644.354	1	10
645.541	1	-13
646.728	1	13
647.914	1	1
649.101	1	6
650.288	1	4
651.474	1	10
652.661	1	2
653.847	1	1
655.034	1	-1
656.220	1	11
657.406	1	9
658.593	1	-7
659.779	1	5
660.965	1	1
662.152	1	8
663.338	1	-5
664.524	1	-11
665.710	1	3
666.896	1	-3
668.082	1	-6
669.268	1	-3
670.454	1	-4
671.640	1	-21
672.826	1	-3
674.011	1	4
675.197	1	9
676.383	1	5
677.569	1	6
678.754	1	1
679.940	1	7
681.125	1	14
682.311	1	5
683.496	1	-1
684.682	1	3
685.867	1	0
687.053	1	8
688.238	1	2
688.746	1	3

File: GaN_sample E_spot4_UVVIS_68 K_200um_200 ms 2x2mm1_238.txt
340.368	1	4
341.565	1	-8
342.763	1	-3
343.960	1	-7
345.157	1	14
346.354	1	-7
347.552	1	5
348.749	1	11
349.946	1	13
351.143	1	4
352.340	1	0
353.537	1	-2
354.734	1	0
355.931	1	-1
357.127	1	7
358.324	1	7
359.521	1	7
360.718	1	5
361.914	1	11
363.111	1	14
364.308	1	4
365.504	1	7
366.701	1	10
367.897	1	9
369.093	1	10
370.290	1	6
371.486	1	15
372.682	1	11
373.879	1	18
375.075	1	22
376.271	1	7
377.467	1	5
378.663	1	-6
379.859	1	7
381.055	1	2
382.251	1	13
383.447	1	18
384.643	1	22
385.839	1	14
387.035	1	14
388.230	1	21
389.426	1	26
390.622	1	10
391.817	1	10
393.013	1	22
394.208	1	17
395.404	1	17
396.599	1	19
397.795	1	7
398.990	1	23
400.186	1	24
401.381	1	17
402.576	1	21
403.771	1	5
404.967	1	11
406.162	1	8
407.357	1	12
408.552	1	19
409.747	1	3
410.942	1	12
412.137	1	11
413.332	1	12
414.526	1	17
415.721	1	12
416.916	1	7
418.111	1	9
419.305	1	3
420.500	1	11
421.695	1	12
422.889	1	15
424.084	1	12
425.278	1	-3
426.472	1	1
427.667	1	15
428.861	1	5
430.055	1	5
431.250	1	-2
432.444	1	12
433.638	1	-1
434.832	1	4
436.026	1	14
437.220	1	9
438.414	1	-1
439.608	1	6
440.802	1	6
441.996	1	3
443.190	1	-3
444.384	1	9
445.578	1	16
446.771	1	2
447.965	1	-3
449.159	1	2
450.352	1	7
451.546	1	10
452.739	1	11
453.933	1	17
455.126	1	-5
456.320	1	-3
457.513	1	18
458.706	1	5
459.899	1	23
461.093	1	10
462.286	1	10
463.479	1	13
464.672	1	1
465.865	1	-6
467.058	1	11
468.251	1	0
469.444	1	3
470.637	1	13
471.830	1	9
473.023	1	-4
474.215	1	-1
475.408	1	2
476.601	1	7
477.793	1	3
478.986	1	-4
480.179	1	7
481.371	1	10
482.564	1	-6
483.756	1	13
484.948	1	1
486.141	1	-10
487.333	1	0
488.525	1	8
489.718	1	-2
490.910	1	3
492.102	1	2
493.294	1	15
494.486	1	10
495.678	1	17
496.870	1	-4
498.062	1	6
499.254	1	-10
500.446	1	9
501.638	1	13
502.829	1	5
504.021	1	24
505.213	1	6
506.404	1	-4
507.596	1	14
508.788	1	4
509.979	1	13
511.171	1	23
512.362	1	11
513.553	1	0
514.745	1	4
515.936	1	10
517.127	1	12
518.319	1	8
519.510	1	3
520.701	1	16
521.892	1	10
523.083	1	9
524.274	1	6
525.465	1	12
526.656	1	23
527.847	1	1
529.038	1	3
530.229	1	8
531.419	1	18
532.610	1	12
533.801	1	11
534.991	1	19
536.182	1	14
537.373	1	3
538.563	1	4
539.754	1	10
540.944	1	3
542.134	1	18
543.325	1	11
544.515	1	9
545.705	1	14
546.896	1	7
548.086	1	11
549.276	1	19
550.466	1	12
551.656	1	1
552.846	1	14
554.036	1	10
555.226	1	3
556.416	1	2
557.606	1	-3
558.796	1	4
559.986	1	2
561.175	1	2
562.365	1	11
563.555	1	14
564.744	1	9
565.934	1	10
567.123	1	21
568.313	1	8
569.502	1	5
570.692	1	10
571.881	1	12
573.070	1	11
574.260	1	11
575.449	1	9
576.638	1	9
577.827	1	7
579.016	1	20
580.205	1	10
581.394	1	-8
582.583	1	1
583.772	1	7
584.961	1	4
586.150	1	7
587.339	1	4
588.528	1	12
589.717	1	8
590.905	1	1
592.094	1	1
593.283	1	10
594.471	1	3
595.660	1	0
596.848	1	11
598.037	1	8
599.225	1	1
600.413	1	2
601.602	1	4
602.790	1	6
603.978	1	0
605.166	1	0
606.355	1	11
607.543	1	-5
608.731	1	-8
609.919	1	-1
611.107	1	7
612.295	1	9
613.483	1	18
614.671	1	10
615.858	1	15
617.046	1	6
618.234	1	9
619.422	1	0
620.609	1	7
621.797	1	2
622.985	1	5
624.172	1	11
625.360	1	-5
626.547	1	10
627.735	1	9
628.922	1	2
630.109	1	-4
631.297	1	-6
632.484	1	5
633.671	1	2
634.858	1	9
636.045	1	10
637.232	1	9
638.419	1	8
639.606	1	17
640.793	1	9
641.980	1	3
643.167	1	9
644.354	1	5
645.541	1	-14
646.728	1	13
647.914	1	-1
649.101	1	6
650.288	1	-1
651.474	1	4
652.661	1	4
653.847	1	13
655.034	1	2
656.220	1	2
657.406	1	7
658.593	1	-8
659.779	1	-5
660.965	1	1
662.152	1	4
663.338	1	0
664.524	1	-7
665.710	1	0
666.896	1	0
668.082	1	0
669.268	1	0
670.454	1	6
671.640	1	-8
672.826	1	-16
674.011	1	10
675.197	1	-1
676.383	1	-5
677.569	1	-6
678.754	1	0
679.940	1	0
681.125	1	-1
682.311	1	-2
683.496	1	6
684.682	1	1
685.867	1	-2
687.053	1	5
688.238	1	-1
688.746	1	2

File: GaN_sample E_spot4_UVVIS_68 K_200um_200 ms 2x2mm1_240.txt
340.368	1	1
341.565	1	-9
342.763	1	4
343.960	1	-7
345.157	1	10
346.354	1	3
347.552	1	-2
348.749	1	-1
349.946	1	13
351.143	1	3
352.340	1	5
353.537	1	1
354.734	1	-3
355.931	1	5
357.127	1	3
358.324	1	5
359.521	1	13
360.718	1	2
361.914	1	8
363.111	1	12
364.308	1	7
365.504	1	-1
366.701	1	8
367.897	1	10
369.093	1	14
370.290	1	8
371.486	1	18
372.682	1	2
373.879	1	19
375.075	1	8
376.271	1	3
377.467	1	5
378.663	1	-6
379.859	1	0
381.055	1	6
382.251	1	13
383.447	1	9
384.643	1	19
385.839	1	21
387.035	1	14
388.230	1	12
389.426	1	21
390.622	1	7
391.817	1	25
393.013	1	20
394.208	1	16
395.404	1	18
396.599	1	18
397.795	1	16
398.990	1	16
400.186	1	20
401.381	1	19
402.576	1	24
403.771	1	12
404.967	1	8
406.162	1	6
407.357	1	13
408.552	1	25
409.747	1	5
410.942	1	10
412.137	1	19
413.332	1	12
414.526	1	12
415.721	1	13
416.916	1	8
418.111	1	13
419.305	1	3
420.500	1	9
421.695	1	10
422.889	1	12
424.084	1	17
425.278	1	0
426.472	1	-6
427.667	1	17
428.861	1	1
430.055	1	0
431.250	1	3
432.444	1	14
433.638	1	7
434.832	1	2
436.026	1	5
437.220	1	15
438.414	1	5
439.608	1	7
440.802	1	-1
441.996	1	2
443.190	1	1
444.384	1	8
445.578	1	13
446.771	1	9
447.965	1	-6
449.159	1	2
450.352	1	6
451.546	1	7
452.739	1	-1
453.933	1	14
455.126	1	2
456.320	1	13
457.513	1	12
458.706	1	6
459.899	1	14
461.093	1	11
462.286	1	13
463.479	1	4
464.672	1	0
465.865	1	12
467.058	1	10
468.251	1	11
469.444	1	-2
470.637	1	11
471.830	1	16
473.023	1	-5
474.215	1	-1
475.408	1	13
476.601	1	5
477.793	1	20
478.986	1	-1
480.179	1	2
481.371	1	6
482.564	1	3
483.756	1	13
484.948	1	-1
486.141	1	-4
487.333	1	9
488.525	1	0
489.718	1	1
490.910	1	-4
492.102	1	-6
493.294	1	11
494.486	1	7
495.678	1	17
496.870	1	-4
498.062	1	2
499.254	1	4
500.446	1	3
501.638	1	10
502.829	1	18
504.021	1	25
505.213	1	8
506.404	1	2
507.596	1	11
508.788	1	6
509.979	1	6
511.171	1	17
512.362	1	6
513.553	1	-6
514.745	1	4
515.936	1	8
517.127	1	8
518.319	1	16
519.510	1	3
520.701	1	11
521.892	1	3
523.083	1	2
524.274	1	3
525.465	1	7
526.656	1	21
527.847	1	1
529.038	1	10
530.229	1	21
531.419	1	17
532.610	1	13
533.801	1	8
534.991	1	17
536.182	1	5
537.373	1	-1
538.563	1	6
539.754	1	11
540.944	1	5
542.134	1	19
543.325	1	6
544.515	1	10
545.705	1	6
546.896	1	9
548.086	1	10
549.276	1	1
550.466	1	3
551.656	1	2
552.846	1	14
554.036	1	16
555.226	1	-3
556.416	1	8
557.606	1	-4
558.796	1	9
559.986	1	4
561.175	1	16
562.365	1	8
563.555	1	9
564.744	1	8
565.934	1	12
567.123	1	18
568.313	1	5
569.502	1	2
570.692	1	11
571.881	1	11
573.070	1	4
574.260	1	3
575.449	1	1
576.638	1	5
577.827	1	12
579.016	1	11
580.205	1	5
581.394	1	6
582.583	1	-12
583.772	1	7
584.961	1	16
586.150	1	6
587.339	1	6
588.528	1	14
589.717	1	7
590.905	1	9
592.094	1	9
593.283	1	6
594.471	1	5
595.660	1	0
596.848	1	9
598.037	1	3
599.225	1	12
600.413	1	0
601.602	1	11
602.790	1	0
603.978	1	-7
605.166	1	1
606.355	1	12
607.543	1	-3
608.731	1	-3
609.919	1	-4
611.107	1	15
612.295	1	1
613.483	1	15
614.671	1	11
615.858	1	11
617.046	1	8
618.234	1	6
619.422	1	1
620.609	1	9
621.797	1	3
622.985	1	5
624.172	1	14
625.360	1	-7
626.547	1	3
627.735	1	4
628.922	1	3
630.109	1	0
631.297	1	-6
632.484	1	3
633.671	1	3
634.858	1	11
636.045	1	-7
637.232	1	7
638.419	1	6
639.606	1	13
640.793	1	6
641.980	1	-3
643.167	1	8
644.354	1	10
645.541	1	-14
646.728	1	5
647.914	1	-5
649.101	1	2
650.288	1	0
651.474	1	7
652.661	1	3
653.847	1	8
655.034	1	-2
656.220	1	10
657.406	1	2
658.593	1	-4
659.779	1	-5
660.965	1	7
662.152	1	7
663.338	1	-4
664.524	1	-9
665.710	1	3
666.896	1	-1
668.082	1	8
669.268	1	1
670.454	1	13
671.640	1	-9
672.826	1	-8
674.011	1	7
675.197	1	5
676.383	1	-1
677.569	1	4
678.754	1	7
679.940	1	-4
681.125	1	9
682.311	1	-2
683.496	1	-4
684.682	1	11
685.867	1	3
687.053	1	10
688.238	1	-5
688.746	1	13

File: GaN_sample E_spot4_UVVIS_68 K_200um_200 ms 2x2mm1_242.txt
340.368	1	-4
341.565	1	-9
342.763	1	3
343.960	1	-3
345.157	1	10
346.354	1	-5
347.552	1	6
348.749	1	4
349.946	1	13
351.143	1	0
352.340	1	-4
353.537	1	1
354.734	1	-4
355.931	1	6
357.127	1	7
358.324	1	3
359.521	1	3
360.718	1	-2
361.914	1	5
363.111	1	13
364.308	1	3
365.504	1	1
366.701	1	-4
367.897	1	13
369.093	1	20
370.290	1	7
371.486	1	15
372.682	1	10
373.879	1	15
375.075	1	2
376.271	1	4
377.467	1	3
378.663	1	4
379.859	1	1
381.055	1	-1
382.251	1	16
383.447	1	15
384.643	1	13
385.839	1	18
387.035	1	13
388.230	1	23
389.426	1	17
390.622	1	4
391.817	1	15
393.013	1	30
394.208	1	21
395.404	1	22
396.599	1	6
397.795	1	12
398.990	1	18
400.186	1	17
401.381	1	9
402.576	1	23
403.771	1	13
404.967	1	19
406.162	1	11
407.357	1	2
408.552	1	16
409.747	1	0
410.942	1	13
412.137	1	25
413.332	1	8
414.526	1	9
415.721	1	3
416.916	1	12
418.111	1	13
419.305	1	5
420.500	1	16
421.695	1	11
422.889	1	8
424.084	1	10
425.278	1	-7
426.472	1	-5
427.667	1	9
428.861	1	-2
430.055	1	1
431.250	1	3
432.444	1	18
433.638	1	8
434.832	1	-2
436.026	1	2
437.220	1	5
438.414	1	7
439.608	1	13
440.802	1	4
441.996	1	9
443.190	1	3
444.384	1	6
445.578	1	4
446.771	1	-3
447.965	1	4
449.159	1	3
450.352	1	15
451.546	1	0
452.739	1	4
453.933	1	7
455.126	1	0
456.320	1	13
457.513	1	9
458.706	1	10
459.899	1	15
461.093	1	16
462.286	1	6
463.479	1	15
464.672	1	10
465.865	1	5
467.058	1	15
468.251	1	0
469.444	1	7
470.637	1	16
471.830	1	22
473.023	1	7
474.215	1	-2
475.408	1	6
476.601	1	7
477.793	1	8
478.986	1	10
480.179	1	5
481.371	1	7
482.564	1	-9
483.756	1	9
484.948	1	-4
486.141	1	-7
487.333	1	11
488.525	1	2
489.718	1	1
490.910	1	0
492.102	1	3
493.294	1	13
494.486	1	6
495.678	1	8
496.870	1	1
498.062	1	-2
499.254	1	1
500.446	1	20
501.638	1	12
502.829	1	15
504.021	1	28
505.213	1	3
506.404	1	4
507.596	1	15
508.788	1	1
509.979	1	7
511.171	1	18
512.362	1	12
513.553	1	7
514.745	1	7
515.936	1	9
517.127	1	7
518.319	1	10
519.510	1	14
520.701	1	14
521.892	1	3
523.083	1	12
524.274	1	7
525.465	1	13
526.656	1	17
527.847	1	2
529.038	1	22
530.229	1	12
531.419	1	15
532.610	1	13
533.801	1	17
534.991	1	0
536.182	1	12
537.373	1	2
538.563	1	9
539.754	1	-2
540.944	1	0
542.134	1	17
543.325	1	7
544.515	1	15
545.705	1	8
546.896	1	6
548.086	1	15
549.276	1	14
550.466	1	1
551.656	1	6
552.846	1	11
554.036	1	10
555.226	1	1
556.416	1	6
557.606	1	1
558.796	1	20
559.986	1	7
561.175	1	6
562.365	1	11
563.555	1	8
564.744	1	13
565.934	1	13
567.123	1	24
568.313	1	3
569.502	1	9
570.692	1	9
571.881	1	18
573.070	1	6
574.260	1	4
575.449	1	5
576.638	1	13
577.827	1	15
579.016	1	22
580.205	1	6
581.394	1	-2
582.583	1	-5
583.772	1	6
584.961	1	10
586.150	1	2
587.339	1	15
588.528	1	9
589.717	1	7
590.905	1	2
592.094	1	4
593.283	1	14
594.471	1	11
595.660	1	1
596.848	1	8
598.037	1	6
599.225	1	7
600.413	1	4
601.602	1	11
602.790	1	9
603.978	1	-1
605.166	1	0
606.355	1	4
607.543	1	7
608.731	1	-8
609.919	1	-5
611.107	1	4
612.295	1	3
613.483	1	10
614.671	1	-1
615.858	1	15
617.046	1	5
618.234	1	11
619.422	1	6
620.609	1	3
621.797	1	8
622.985	1	3
624.172	1	17
625.360	1	-2
626.547	1	7
627.735	1	8
628.922	1	5
630.109	1	-3
631.297	1	3
632.484	1	1
633.671	1	6
634.858	1	12
636.045	1	9
637.232	1	10
638.419	1	8
639.606	1	17
640.793	1	8
641.980	1	9
643.167	1	14
644.354	1	2
645.541	1	0
646.728	1	4
647.914	1	4
649.101	1	8
650.288	1	-7
651.474	1	1
652.661	1	11
653.847	1	6
655.034	1	5
656.220	1	5
657.406	1	9
658.593	1	-5
659.779	1	-3
660.965	1	2
662.152	1	4
663.338	1	-7
664.524	1	-2
665.710	1	-3
666.896	1	-1
668.082	1	1
669.268	1	18
670.454	1	5
671.640	1	-12
672.826	1	-5
674.011	1	3
675.197	1	-4
676.383	1	-3
677.569	1	-1
678.754	1	6
679.940	1	5
681.125	1	9
682.311	1	5
683.496	1	1
684.682	1	9
685.867	1	-1
687.053	1	4
688.238	1	4
688.746	1	8