Folder: cryo-il_analysis/Analysis/GaN_68K_200ms (part 6)

File: GaN_sample E_spot4_UVVIS_68 K_200um_200 ms 2x2mm1_142.txt
340.368	1	2
341.565	1	-6
342.763	1	-6
343.960	1	-3
345.157	1	10
346.354	1	5
347.552	1	12
348.749	1	10
349.946	1	0
351.143	1	-2
352.340	1	6
353.537	1	14
354.734	1	4
355.931	1	13
357.127	1	13
358.324	1	18
359.521	1	16
360.718	1	14
361.914	1	33
363.111	1	61
364.308	1	65
365.504	1	76
366.701	1	78
367.897	1	92
369.093	1	89
370.290	1	71
371.486	1	68
372.682	1	48
373.879	1	52
375.075	1	49
376.271	1	40
377.467	1	32
378.663	1	29
379.859	1	27
381.055	1	35
382.251	1	41
383.447	1	69
384.643	1	87
385.839	1	120
387.035	1	117
388.230	1	115
389.426	1	113
390.622	1	100
391.817	1	99
393.013	1	105
394.208	1	103
395.404	1	104
396.599	1	106
397.795	1	118
398.990	1	105
400.186	1	110
401.381	1	88
402.576	1	86
403.771	1	74
404.967	1	72
406.162	1	65
407.357	1	61
408.552	1	68
409.747	1	59
410.942	1	56
412.137	1	59
413.332	1	57
414.526	1	49
415.721	1	41
416.916	1	47
418.111	1	40
419.305	1	43
420.500	1	48
421.695	1	37
422.889	1	33
424.084	1	32
425.278	1	25
426.472	1	25
427.667	1	27
428.861	1	36
430.055	1	28
431.250	1	11
432.444	1	28
433.638	1	14
434.832	1	15
436.026	1	21
437.220	1	24
438.414	1	24
439.608	1	20
440.802	1	27
441.996	1	16
443.190	1	9
444.384	1	20
445.578	1	18
446.771	1	5
447.965	1	9
449.159	1	5
450.352	1	21
451.546	1	10
452.739	1	15
453.933	1	11
455.126	1	8
456.320	1	7
457.513	1	17
458.706	1	12
459.899	1	24
461.093	1	10
462.286	1	21
463.479	1	10
464.672	1	1
465.865	1	5
467.058	1	20
468.251	1	3
469.444	1	0
470.637	1	22
471.830	1	15
473.023	1	7
474.215	1	11
475.408	1	12
476.601	1	13
477.793	1	8
478.986	1	7
480.179	1	16
481.371	1	21
482.564	1	-1
483.756	1	27
484.948	1	5
486.141	1	-11
487.333	1	24
488.525	1	5
489.718	1	10
490.910	1	13
492.102	1	16
493.294	1	20
494.486	1	17
495.678	1	31
496.870	1	23
498.062	1	23
499.254	1	24
500.446	1	31
501.638	1	34
502.829	1	31
504.021	1	48
505.213	1	41
506.404	1	39
507.596	1	45
508.788	1	45
509.979	1	40
511.171	1	56
512.362	1	54
513.553	1	40
514.745	1	48
515.936	1	53
517.127	1	57
518.319	1	59
519.510	1	65
520.701	1	75
521.892	1	52
523.083	1	64
524.274	1	62
525.465	1	63
526.656	1	80
527.847	1	69
529.038	1	73
530.229	1	76
531.419	1	74
532.610	1	66
533.801	1	74
534.991	1	73
536.182	1	73
537.373	1	60
538.563	1	75
539.754	1	60
540.944	1	59
542.134	1	75
543.325	1	50
544.515	1	58
545.705	1	61
546.896	1	62
548.086	1	64
549.276	1	61
550.466	1	52
551.656	1	49
552.846	1	54
554.036	1	58
555.226	1	48
556.416	1	51
557.606	1	38
558.796	1	43
559.986	1	41
561.175	1	41
562.365	1	46
563.555	1	47
564.744	1	48
565.934	1	48
567.123	1	40
568.313	1	36
569.502	1	40
570.692	1	34
571.881	1	29
573.070	1	35
574.260	1	19
575.449	1	32
576.638	1	31
577.827	1	31
579.016	1	33
580.205	1	24
581.394	1	18
582.583	1	16
583.772	1	25
584.961	1	23
586.150	1	22
587.339	1	15
588.528	1	23
589.717	1	18
590.905	1	21
592.094	1	23
593.283	1	25
594.471	1	20
595.660	1	6
596.848	1	15
598.037	1	9
599.225	1	13
600.413	1	15
601.602	1	15
602.790	1	12
603.978	1	9
605.166	1	17
606.355	1	22
607.543	1	5
608.731	1	3
609.919	1	3
611.107	1	12
612.295	1	11
613.483	1	21
614.671	1	9
615.858	1	20
617.046	1	6
618.234	1	7
619.422	1	0
620.609	1	3
621.797	1	13
622.985	1	6
624.172	1	23
625.360	1	-4
626.547	1	18
627.735	1	9
628.922	1	9
630.109	1	6
631.297	1	2
632.484	1	10
633.671	1	7
634.858	1	19
636.045	1	8
637.232	1	7
638.419	1	8
639.606	1	24
640.793	1	16
641.980	1	10
643.167	1	21
644.354	1	7
645.541	1	-6
646.728	1	9
647.914	1	3
649.101	1	7
650.288	1	11
651.474	1	2
652.661	1	14
653.847	1	10
655.034	1	8
656.220	1	11
657.406	1	10
658.593	1	8
659.779	1	4
660.965	1	8
662.152	1	3
663.338	1	2
664.524	1	-8
665.710	1	2
666.896	1	12
668.082	1	0
669.268	1	7
670.454	1	8
671.640	1	-4
672.826	1	-5
674.011	1	14
675.197	1	2
676.383	1	1
677.569	1	2
678.754	1	3
679.940	1	1
681.125	1	15
682.311	1	7
683.496	1	-1
684.682	1	16
685.867	1	3
687.053	1	12
688.238	1	15
688.746	1	23

File: GaN_sample E_spot4_UVVIS_68 K_200um_200 ms 2x2mm1_149.txt
340.368	1	10
341.565	1	-2
342.763	1	-4
343.960	1	1
345.157	1	7
346.354	1	-10
347.552	1	11
348.749	1	2
349.946	1	10
351.143	1	-4
352.340	1	12
353.537	1	8
354.734	1	1
355.931	1	16
357.127	1	9
358.324	1	13
359.521	1	15
360.718	1	8
361.914	1	23
363.111	1	33
364.308	1	40
365.504	1	45
366.701	1	60
367.897	1	59
369.093	1	60
370.290	1	52
371.486	1	50
372.682	1	42
373.879	1	45
375.075	1	34
376.271	1	23
377.467	1	18
378.663	1	18
379.859	1	15
381.055	1	21
382.251	1	28
383.447	1	47
384.643	1	64
385.839	1	71
387.035	1	61
388.230	1	61
389.426	1	78
390.622	1	66
391.817	1	50
393.013	1	64
394.208	1	67
395.404	1	51
396.599	1	55
397.795	1	66
398.990	1	60
400.186	1	70
401.381	1	59
402.576	1	61
403.771	1	53
404.967	1	51
406.162	1	35
407.357	1	45
408.552	1	47
409.747	1	34
410.942	1	37
412.137	1	40
413.332	1	34
414.526	1	29
415.721	1	32
416.916	1	27
418.111	1	21
419.305	1	23
420.500	1	37
421.695	1	22
422.889	1	21
424.084	1	20
425.278	1	9
426.472	1	17
427.667	1	20
428.861	1	20
430.055	1	18
431.250	1	9
432.444	1	24
433.638	1	17
434.832	1	5
436.026	1	18
437.220	1	19
438.414	1	14
439.608	1	10
440.802	1	22
441.996	1	16
443.190	1	3
444.384	1	11
445.578	1	16
446.771	1	10
447.965	1	10
449.159	1	8
450.352	1	12
451.546	1	14
452.739	1	12
453.933	1	20
455.126	1	10
456.320	1	8
457.513	1	13
458.706	1	8
459.899	1	22
461.093	1	15
462.286	1	23
463.479	1	12
464.672	1	13
465.865	1	6
467.058	1	19
468.251	1	6
469.444	1	6
470.637	1	18
471.830	1	25
473.023	1	5
474.215	1	-1
475.408	1	8
476.601	1	7
477.793	1	16
478.986	1	5
480.179	1	15
481.371	1	11
482.564	1	5
483.756	1	18
484.948	1	5
486.141	1	7
487.333	1	18
488.525	1	6
489.718	1	1
490.910	1	5
492.102	1	2
493.294	1	18
494.486	1	10
495.678	1	16
496.870	1	10
498.062	1	12
499.254	1	15
500.446	1	22
501.638	1	25
502.829	1	26
504.021	1	38
505.213	1	28
506.404	1	16
507.596	1	34
508.788	1	25
509.979	1	21
511.171	1	41
512.362	1	34
513.553	1	33
514.745	1	41
515.936	1	44
517.127	1	43
518.319	1	39
519.510	1	50
520.701	1	55
521.892	1	26
523.083	1	57
524.274	1	52
525.465	1	52
526.656	1	54
527.847	1	43
529.038	1	51
530.229	1	59
531.419	1	65
532.610	1	50
533.801	1	49
534.991	1	56
536.182	1	43
537.373	1	44
538.563	1	49
539.754	1	51
540.944	1	41
542.134	1	56
543.325	1	45
544.515	1	45
545.705	1	46
546.896	1	37
548.086	1	32
549.276	1	50
550.466	1	35
551.656	1	36
552.846	1	41
554.036	1	36
555.226	1	36
556.416	1	39
557.606	1	25
558.796	1	35
559.986	1	29
561.175	1	26
562.365	1	44
563.555	1	35
564.744	1	30
565.934	1	26
567.123	1	38
568.313	1	19
569.502	1	24
570.692	1	31
571.881	1	20
573.070	1	27
574.260	1	17
575.449	1	18
576.638	1	19
577.827	1	21
579.016	1	28
580.205	1	25
581.394	1	15
582.583	1	9
583.772	1	18
584.961	1	12
586.150	1	18
587.339	1	19
588.528	1	18
589.717	1	20
590.905	1	19
592.094	1	16
593.283	1	14
594.471	1	9
595.660	1	10
596.848	1	22
598.037	1	13
599.225	1	12
600.413	1	12
601.602	1	13
602.790	1	9
603.978	1	6
605.166	1	2
606.355	1	11
607.543	1	5
608.731	1	7
609.919	1	0
611.107	1	9
612.295	1	13
613.483	1	17
614.671	1	9
615.858	1	12
617.046	1	13
618.234	1	19
619.422	1	12
620.609	1	14
621.797	1	2
622.985	1	13
624.172	1	21
625.360	1	-1
626.547	1	7
627.735	1	7
628.922	1	7
630.109	1	4
631.297	1	-5
632.484	1	0
633.671	1	2
634.858	1	8
636.045	1	5
637.232	1	7
638.419	1	13
639.606	1	18
640.793	1	10
641.980	1	9
643.167	1	16
644.354	1	0
645.541	1	1
646.728	1	9
647.914	1	1
649.101	1	10
650.288	1	12
651.474	1	7
652.661	1	9
653.847	1	18
655.034	1	8
656.220	1	12
657.406	1	17
658.593	1	-2
659.779	1	-6
660.965	1	6
662.152	1	4
663.338	1	3
664.524	1	-4
665.710	1	-2
666.896	1	4
668.082	1	2
669.268	1	12
670.454	1	8
671.640	1	-8
672.826	1	-8
674.011	1	3
675.197	1	1
676.383	1	8
677.569	1	1
678.754	1	2
679.940	1	-5
681.125	1	15
682.311	1	18
683.496	1	3
684.682	1	19
685.867	1	9
687.053	1	0
688.238	1	14
688.746	1	12

File: GaN_sample E_spot4_UVVIS_68 K_200um_200 ms 2x2mm1_154.txt
340.368	1	-2
341.565	1	-1
342.763	1	-1
343.960	1	3
345.157	1	11
346.354	1	7
347.552	1	1
348.749	1	7
349.946	1	17
351.143	1	-1
352.340	1	9
353.537	1	10
354.734	1	8
355.931	1	4
357.127	1	4
358.324	1	8
359.521	1	12
360.718	1	11
361.914	1	17
363.111	1	27
364.308	1	35
365.504	1	43
366.701	1	67
367.897	1	50
369.093	1	54
370.290	1	41
371.486	1	45
372.682	1	40
373.879	1	39
375.075	1	37
376.271	1	31
377.467	1	12
378.663	1	24
379.859	1	14
381.055	1	19
382.251	1	30
383.447	1	50
384.643	1	54
385.839	1	55
387.035	1	61
388.230	1	60
389.426	1	65
390.622	1	68
391.817	1	56
393.013	1	52
394.208	1	58
395.404	1	53
396.599	1	62
397.795	1	65
398.990	1	67
400.186	1	58
401.381	1	50
402.576	1	54
403.771	1	48
404.967	1	49
406.162	1	39
407.357	1	42
408.552	1	44
409.747	1	35
410.942	1	36
412.137	1	34
413.332	1	30
414.526	1	33
415.721	1	40
416.916	1	16
418.111	1	22
419.305	1	30
420.500	1	25
421.695	1	28
422.889	1	31
424.084	1	24
425.278	1	14
426.472	1	12
427.667	1	23
428.861	1	12
430.055	1	19
431.250	1	7
432.444	1	24
433.638	1	16
434.832	1	16
436.026	1	14
437.220	1	15
438.414	1	19
439.608	1	9
440.802	1	22
441.996	1	11
443.190	1	4
444.384	1	6
445.578	1	11
446.771	1	-3
447.965	1	1
449.159	1	11
450.352	1	17
451.546	1	11
452.739	1	10
453.933	1	17
455.126	1	8
456.320	1	9
457.513	1	11
458.706	1	9
459.899	1	22
461.093	1	9
462.286	1	23
463.479	1	17
464.672	1	10
465.865	1	7
467.058	1	19
468.251	1	7
469.444	1	4
470.637	1	20
471.830	1	16
473.023	1	-1
474.215	1	3
475.408	1	6
476.601	1	13
477.793	1	22
478.986	1	10
480.179	1	17
481.371	1	12
482.564	1	-3
483.756	1	13
484.948	1	7
486.141	1	-5
487.333	1	1
488.525	1	6
489.718	1	7
490.910	1	7
492.102	1	9
493.294	1	33
494.486	1	19
495.678	1	17
496.870	1	17
498.062	1	13
499.254	1	15
500.446	1	31
501.638	1	20
502.829	1	20
504.021	1	27
505.213	1	22
506.404	1	14
507.596	1	28
508.788	1	29
509.979	1	33
511.171	1	35
512.362	1	34
513.553	1	25
514.745	1	32
515.936	1	44
517.127	1	37
518.319	1	26
519.510	1	45
520.701	1	39
521.892	1	34
523.083	1	34
524.274	1	46
525.465	1	45
526.656	1	60
527.847	1	37
529.038	1	44
530.229	1	40
531.419	1	56
532.610	1	44
533.801	1	51
534.991	1	40
536.182	1	47
537.373	1	40
538.563	1	50
539.754	1	34
540.944	1	50
542.134	1	44
543.325	1	33
544.515	1	34
545.705	1	44
546.896	1	36
548.086	1	40
549.276	1	47
550.466	1	20
551.656	1	20
552.846	1	29
554.036	1	34
555.226	1	30
556.416	1	34
557.606	1	18
558.796	1	29
559.986	1	24
561.175	1	35
562.365	1	25
563.555	1	30
564.744	1	26
565.934	1	26
567.123	1	34
568.313	1	19
569.502	1	24
570.692	1	25
571.881	1	15
573.070	1	30
574.260	1	21
575.449	1	26
576.638	1	17
577.827	1	17
579.016	1	31
580.205	1	16
581.394	1	7
582.583	1	6
583.772	1	24
584.961	1	3
586.150	1	18
587.339	1	6
588.528	1	11
589.717	1	17
590.905	1	18
592.094	1	15
593.283	1	18
594.471	1	10
595.660	1	7
596.848	1	13
598.037	1	16
599.225	1	18
600.413	1	7
601.602	1	10
602.790	1	16
603.978	1	5
605.166	1	3
606.355	1	20
607.543	1	3
608.731	1	10
609.919	1	3
611.107	1	13
612.295	1	18
613.483	1	7
614.671	1	10
615.858	1	-2
617.046	1	8
618.234	1	4
619.422	1	9
620.609	1	4
621.797	1	11
622.985	1	8
624.172	1	11
625.360	1	2
626.547	1	4
627.735	1	19
628.922	1	4
630.109	1	0
631.297	1	-3
632.484	1	14
633.671	1	10
634.858	1	6
636.045	1	14
637.232	1	4
638.419	1	12
639.606	1	14
640.793	1	7
641.980	1	-1
643.167	1	20
644.354	1	7
645.541	1	-9
646.728	1	11
647.914	1	6
649.101	1	-3
650.288	1	1
651.474	1	10
652.661	1	4
653.847	1	8
655.034	1	7
656.220	1	12
657.406	1	8
658.593	1	-2
659.779	1	3
660.965	1	8
662.152	1	7
663.338	1	9
664.524	1	-1
665.710	1	3
666.896	1	0
668.082	1	12
669.268	1	2
670.454	1	8
671.640	1	-11
672.826	1	-3
674.011	1	11
675.197	1	1
676.383	1	7
677.569	1	2
678.754	1	-1
679.940	1	1
681.125	1	11
682.311	1	5
683.496	1	-1
684.682	1	17
685.867	1	11
687.053	1	9
688.238	1	17
688.746	1	13

File: GaN_sample E_spot4_UVVIS_68 K_200um_200 ms 2x2mm1_156.txt
340.368	1	0
341.565	1	4
342.763	1	4
343.960	1	9
345.157	1	0
346.354	1	9
347.552	1	-2
348.749	1	12
349.946	1	11
351.143	1	3
352.340	1	3
353.537	1	1
354.734	1	7
355.931	1	13
357.127	1	4
358.324	1	13
359.521	1	13
360.718	1	9
361.914	1	15
363.111	1	38
364.308	1	33
365.504	1	37
366.701	1	58
367.897	1	58
369.093	1	62
370.290	1	35
371.486	1	50
372.682	1	27
373.879	1	37
375.075	1	18
376.271	1	27
377.467	1	14
378.663	1	14
379.859	1	13
381.055	1	19
382.251	1	26
383.447	1	32
384.643	1	44
385.839	1	57
387.035	1	56
388.230	1	58
389.426	1	58
390.622	1	46
391.817	1	46
393.013	1	52
394.208	1	60
395.404	1	54
396.599	1	55
397.795	1	55
398.990	1	66
400.186	1	56
401.381	1	48
402.576	1	60
403.771	1	44
404.967	1	36
406.162	1	36
407.357	1	31
408.552	1	43
409.747	1	33
410.942	1	34
412.137	1	38
413.332	1	27
414.526	1	20
415.721	1	25
416.916	1	22
418.111	1	27
419.305	1	20
420.500	1	28
421.695	1	23
422.889	1	13
424.084	1	20
425.278	1	7
426.472	1	8
427.667	1	30
428.861	1	14
430.055	1	11
431.250	1	0
432.444	1	20
433.638	1	16
434.832	1	13
436.026	1	15
437.220	1	21
438.414	1	21
439.608	1	15
440.802	1	16
441.996	1	8
443.190	1	-1
444.384	1	13
445.578	1	10
446.771	1	6
447.965	1	-2
449.159	1	3
450.352	1	15
451.546	1	10
452.739	1	13
453.933	1	22
455.126	1	2
456.320	1	6
457.513	1	14
458.706	1	6
459.899	1	19
461.093	1	11
462.286	1	16
463.479	1	12
464.672	1	2
465.865	1	11
467.058	1	9
468.251	1	5
469.444	1	16
470.637	1	18
471.830	1	22
473.023	1	-2
474.215	1	5
475.408	1	6
476.601	1	2
477.793	1	17
478.986	1	12
480.179	1	10
481.371	1	5
482.564	1	-8
483.756	1	17
484.948	1	4
486.141	1	10
487.333	1	14
488.525	1	9
489.718	1	3
490.910	1	5
492.102	1	2
493.294	1	20
494.486	1	16
495.678	1	23
496.870	1	20
498.062	1	14
499.254	1	6
500.446	1	21
501.638	1	28
502.829	1	28
504.021	1	32
505.213	1	17
506.404	1	16
507.596	1	31
508.788	1	18
509.979	1	25
511.171	1	34
512.362	1	28
513.553	1	34
514.745	1	20
515.936	1	39
517.127	1	37
518.319	1	23
519.510	1	43
520.701	1	44
521.892	1	34
523.083	1	37
524.274	1	42
525.465	1	35
526.656	1	53
527.847	1	35
529.038	1	46
530.229	1	47
531.419	1	55
532.610	1	41
533.801	1	48
534.991	1	47
536.182	1	39
537.373	1	36
538.563	1	36
539.754	1	37
540.944	1	34
542.134	1	50
543.325	1	36
544.515	1	44
545.705	1	41
546.896	1	42
548.086	1	33
549.276	1	36
550.466	1	39
551.656	1	15
552.846	1	39
554.036	1	21
555.226	1	26
556.416	1	41
557.606	1	15
558.796	1	28
559.986	1	26
561.175	1	25
562.365	1	28
563.555	1	24
564.744	1	27
565.934	1	23
567.123	1	25
568.313	1	12
569.502	1	21
570.692	1	21
571.881	1	16
573.070	1	21
574.260	1	13
575.449	1	22
576.638	1	15
577.827	1	26
579.016	1	19
580.205	1	22
581.394	1	16
582.583	1	9
583.772	1	19
584.961	1	12
586.150	1	17
587.339	1	9
588.528	1	10
589.717	1	9
590.905	1	15
592.094	1	12
593.283	1	18
594.471	1	12
595.660	1	13
596.848	1	18
598.037	1	12
599.225	1	8
600.413	1	6
601.602	1	18
602.790	1	7
603.978	1	2
605.166	1	-1
606.355	1	21
607.543	1	-3
608.731	1	11
609.919	1	8
611.107	1	9
612.295	1	12
613.483	1	10
614.671	1	9
615.858	1	9
617.046	1	13
618.234	1	8
619.422	1	3
620.609	1	12
621.797	1	2
622.985	1	11
624.172	1	17
625.360	1	-1
626.547	1	5
627.735	1	9
628.922	1	11
630.109	1	12
631.297	1	3
632.484	1	9
633.671	1	13
634.858	1	11
636.045	1	8
637.232	1	7
638.419	1	14
639.606	1	20
640.793	1	6
641.980	1	4
643.167	1	21
644.354	1	-1
645.541	1	-6
646.728	1	6
647.914	1	7
649.101	1	3
650.288	1	0
651.474	1	10
652.661	1	7
653.847	1	4
655.034	1	13
656.220	1	6
657.406	1	6
658.593	1	10
659.779	1	-2
660.965	1	0
662.152	1	6
663.338	1	2
664.524	1	-5
665.710	1	-2
666.896	1	5
668.082	1	-3
669.268	1	2
670.454	1	6
671.640	1	-9
672.826	1	1
674.011	1	7
675.197	1	2
676.383	1	-2
677.569	1	-2
678.754	1	-2
679.940	1	4
681.125	1	7
682.311	1	10
683.496	1	1
684.682	1	13
685.867	1	1
687.053	1	7
688.238	1	9
688.746	1	9

File: GaN_sample E_spot4_UVVIS_68 K_200um_200 ms 2x2mm1_162.txt
340.368	1	3
341.565	1	-5
342.763	1	-2
343.960	1	-2
345.157	1	10
346.354	1	-1
347.552	1	5
348.749	1	11
349.946	1	18
351.143	1	-2
352.340	1	10
353.537	1	8
354.734	1	10
355.931	1	7
357.127	1	9
358.324	1	6
359.521	1	18
360.718	1	9
361.914	1	20
363.111	1	25
364.308	1	26
365.504	1	44
366.701	1	42
367.897	1	49
369.093	1	42
370.290	1	36
371.486	1	43
372.682	1	21
373.879	1	29
375.075	1	19
376.271	1	10
377.467	1	11
378.663	1	6
379.859	1	13
381.055	1	21
382.251	1	26
383.447	1	43
384.643	1	51
385.839	1	58
387.035	1	63
388.230	1	56
389.426	1	59
390.622	1	44
391.817	1	52
393.013	1	58
394.208	1	60
395.404	1	48
396.599	1	42
397.795	1	52
398.990	1	55
400.186	1	58
401.381	1	46
402.576	1	47
403.771	1	40
404.967	1	36
406.162	1	35
407.357	1	36
408.552	1	22
409.747	1	27
410.942	1	24
412.137	1	31
413.332	1	26
414.526	1	20
415.721	1	18
416.916	1	19
418.111	1	23
419.305	1	23
420.500	1	22
421.695	1	22
422.889	1	26
424.084	1	18
425.278	1	15
426.472	1	20
427.667	1	15
428.861	1	13
430.055	1	16
431.250	1	1
432.444	1	12
433.638	1	7
434.832	1	2
436.026	1	14
437.220	1	26
438.414	1	16
439.608	1	14
440.802	1	17
441.996	1	8
443.190	1	1
444.384	1	13
445.578	1	11
446.771	1	10
447.965	1	11
449.159	1	0
450.352	1	9
451.546	1	16
452.739	1	12
453.933	1	8
455.126	1	11
456.320	1	14
457.513	1	17
458.706	1	11
459.899	1	14
461.093	1	11
462.286	1	15
463.479	1	17
464.672	1	3
465.865	1	12
467.058	1	12
468.251	1	1
469.444	1	3
470.637	1	17
471.830	1	20
473.023	1	5
474.215	1	0
475.408	1	11
476.601	1	7
477.793	1	15
478.986	1	10
480.179	1	6
481.371	1	17
482.564	1	0
483.756	1	15
484.948	1	9
486.141	1	-2
487.333	1	11
488.525	1	7
489.718	1	5
490.910	1	6
492.102	1	-1
493.294	1	17
494.486	1	3
495.678	1	22
496.870	1	12
498.062	1	9
499.254	1	25
500.446	1	13
501.638	1	23
502.829	1	15
504.021	1	29
505.213	1	20
506.404	1	18
507.596	1	25
508.788	1	13
509.979	1	28
511.171	1	27
512.362	1	22
513.553	1	19
514.745	1	29
515.936	1	26
517.127	1	31
518.319	1	27
519.510	1	42
520.701	1	32
521.892	1	35
523.083	1	32
524.274	1	35
525.465	1	38
526.656	1	54
527.847	1	33
529.038	1	37
530.229	1	39
531.419	1	46
532.610	1	42
533.801	1	37
534.991	1	34
536.182	1	33
537.373	1	29
538.563	1	37
539.754	1	40
540.944	1	30
542.134	1	39
543.325	1	27
544.515	1	33
545.705	1	36
546.896	1	38
548.086	1	38
549.276	1	28
550.466	1	23
551.656	1	28
552.846	1	31
554.036	1	24
555.226	1	15
556.416	1	27
557.606	1	14
558.796	1	26
559.986	1	18
561.175	1	28
562.365	1	18
563.555	1	24
564.744	1	35
565.934	1	20
567.123	1	27
568.313	1	16
569.502	1	15
570.692	1	21
571.881	1	19
573.070	1	19
574.260	1	12
575.449	1	23
576.638	1	16
577.827	1	20
579.016	1	22
580.205	1	17
581.394	1	6
582.583	1	5
583.772	1	17
584.961	1	14
586.150	1	9
587.339	1	15
588.528	1	11
589.717	1	13
590.905	1	12
592.094	1	10
593.283	1	10
594.471	1	10
595.660	1	1
596.848	1	10
598.037	1	7
599.225	1	6
600.413	1	5
601.602	1	20
602.790	1	9
603.978	1	8
605.166	1	3
606.355	1	16
607.543	1	-1
608.731	1	-2
609.919	1	8
611.107	1	15
612.295	1	1
613.483	1	17
614.671	1	8
615.858	1	14
617.046	1	4
618.234	1	0
619.422	1	10
620.609	1	-6
621.797	1	10
622.985	1	7
624.172	1	16
625.360	1	-17
626.547	1	14
627.735	1	20
628.922	1	6
630.109	1	5
631.297	1	-1
632.484	1	3
633.671	1	3
634.858	1	15
636.045	1	7
637.232	1	7
638.419	1	4
639.606	1	10
640.793	1	9
641.980	1	0
643.167	1	11
644.354	1	6
645.541	1	-7
646.728	1	7
647.914	1	-4
649.101	1	12
650.288	1	0
651.474	1	5
652.661	1	9
653.847	1	5
655.034	1	4
656.220	1	6
657.406	1	15
658.593	1	-9
659.779	1	0
660.965	1	5
662.152	1	7
663.338	1	-2
664.524	1	1
665.710	1	1
666.896	1	6
668.082	1	10
669.268	1	9
670.454	1	0
671.640	1	-8
672.826	1	-11
674.011	1	12
675.197	1	1
676.383	1	10
677.569	1	3
678.754	1	1
679.940	1	-2
681.125	1	10
682.311	1	4
683.496	1	5
684.682	1	6
685.867	1	10
687.053	1	5
688.238	1	7
688.746	1	14

File: GaN_sample E_spot4_UVVIS_68 K_200um_200 ms 2x2mm1_165.txt
340.368	1	7
341.565	1	-3
342.763	1	1
343.960	1	-1
345.157	1	14
346.354	1	4
347.552	1	0
348.749	1	2
349.946	1	13
351.143	1	-5
352.340	1	-1
353.537	1	3
354.734	1	6
355.931	1	4
357.127	1	12
358.324	1	17
359.521	1	7
360.718	1	14
361.914	1	15
363.111	1	23
364.308	1	25
365.504	1	26
366.701	1	42
367.897	1	50
369.093	1	45
370.290	1	39
371.486	1	34
372.682	1	22
373.879	1	26
375.075	1	24
376.271	1	19
377.467	1	13
378.663	1	10
379.859	1	10
381.055	1	15
382.251	1	20
383.447	1	28
384.643	1	34
385.839	1	56
387.035	1	57
388.230	1	53
389.426	1	52
390.622	1	38
391.817	1	37
393.013	1	46
394.208	1	41
395.404	1	40
396.599	1	47
397.795	1	52
398.990	1	48
400.186	1	50
401.381	1	45
402.576	1	39
403.771	1	45
404.967	1	37
406.162	1	25
407.357	1	29
408.552	1	36
409.747	1	13
410.942	1	40
412.137	1	33
413.332	1	20
414.526	1	18
415.721	1	20
416.916	1	14
418.111	1	16
419.305	1	22
420.500	1	20
421.695	1	25
422.889	1	32
424.084	1	17
425.278	1	5
426.472	1	15
427.667	1	17
428.861	1	13
430.055	1	20
431.250	1	2
432.444	1	19
433.638	1	7
434.832	1	8
436.026	1	14
437.220	1	17
438.414	1	5
439.608	1	11
440.802	1	13
441.996	1	7
443.190	1	4
444.384	1	10
445.578	1	18
446.771	1	4
447.965	1	5
449.159	1	6
450.352	1	8
451.546	1	10
452.739	1	3
453.933	1	11
455.126	1	4
456.320	1	13
457.513	1	15
458.706	1	5
459.899	1	17
461.093	1	13
462.286	1	9
463.479	1	25
464.672	1	-2
465.865	1	0
467.058	1	19
468.251	1	3
469.444	1	3
470.637	1	21
471.830	1	20
473.023	1	1
474.215	1	0
475.408	1	9
476.601	1	6
477.793	1	10
478.986	1	7
480.179	1	6
481.371	1	7
482.564	1	-2
483.756	1	19
484.948	1	5
486.141	1	-1
487.333	1	17
488.525	1	1
489.718	1	-5
490.910	1	0
492.102	1	12
493.294	1	9
494.486	1	16
495.678	1	24
496.870	1	13
498.062	1	6
499.254	1	16
500.446	1	13
501.638	1	26
502.829	1	15
504.021	1	32
505.213	1	19
506.404	1	24
507.596	1	26
508.788	1	23
509.979	1	18
511.171	1	32
512.362	1	18
513.553	1	20
514.745	1	27
515.936	1	35
517.127	1	37
518.319	1	35
519.510	1	32
520.701	1	30
521.892	1	33
523.083	1	29
524.274	1	33
525.465	1	43
526.656	1	49
527.847	1	32
529.038	1	34
530.229	1	36
531.419	1	48
532.610	1	45
533.801	1	32
534.991	1	27
536.182	1	28
537.373	1	30
538.563	1	26
539.754	1	23
540.944	1	25
542.134	1	30
543.325	1	35
544.515	1	33
545.705	1	31
546.896	1	31
548.086	1	38
549.276	1	35
550.466	1	37
551.656	1	19
552.846	1	28
554.036	1	21
555.226	1	24
556.416	1	25
557.606	1	19
558.796	1	20
559.986	1	15
561.175	1	27
562.365	1	11
563.555	1	27
564.744	1	18
565.934	1	16
567.123	1	36
568.313	1	4
569.502	1	19
570.692	1	14
571.881	1	21
573.070	1	23
574.260	1	12
575.449	1	24
576.638	1	18
577.827	1	17
579.016	1	17
580.205	1	9
581.394	1	8
582.583	1	9
583.772	1	7
584.961	1	16
586.150	1	19
587.339	1	14
588.528	1	14
589.717	1	6
590.905	1	13
592.094	1	12
593.283	1	17
594.471	1	23
595.660	1	-5
596.848	1	14
598.037	1	9
599.225	1	9
600.413	1	4
601.602	1	14
602.790	1	11
603.978	1	6
605.166	1	4
606.355	1	18
607.543	1	-2
608.731	1	3
609.919	1	4
611.107	1	10
612.295	1	12
613.483	1	11
614.671	1	10
615.858	1	10
617.046	1	16
618.234	1	6
619.422	1	1
620.609	1	7
621.797	1	6
622.985	1	8
624.172	1	15
625.360	1	-1
626.547	1	0
627.735	1	9
628.922	1	1
630.109	1	11
631.297	1	0
632.484	1	8
633.671	1	7
634.858	1	19
636.045	1	2
637.232	1	-1
638.419	1	10
639.606	1	20
640.793	1	13
641.980	1	-3
643.167	1	18
644.354	1	7
645.541	1	-5
646.728	1	12
647.914	1	7
649.101	1	6
650.288	1	2
651.474	1	11
652.661	1	11
653.847	1	3
655.034	1	10
656.220	1	5
657.406	1	4
658.593	1	-3
659.779	1	4
660.965	1	7
662.152	1	6
663.338	1	-1
664.524	1	2
665.710	1	0
666.896	1	9
668.082	1	4
669.268	1	2
670.454	1	5
671.640	1	-8
672.826	1	-9
674.011	1	17
675.197	1	-1
676.383	1	4
677.569	1	-3
678.754	1	0
679.940	1	8
681.125	1	8
682.311	1	6
683.496	1	-6
684.682	1	10
685.867	1	2
687.053	1	7
688.238	1	5
688.746	1	-2