Folder: cryo-il_analysis/Analysis/GaN_68K_200ms

File: GaN_sample E_spot4_UVVIS_68 K_200um_200 ms 2x2mm1_1.txt
340.368	1	-3
341.565	1	-7
342.763	1	0
343.960	1	-7
345.157	1	3
346.354	1	-13
347.552	1	4
348.749	1	1
349.946	1	5
351.143	1	-2
352.340	1	0
353.537	1	1
354.734	1	-15
355.931	1	2
357.127	1	4
358.324	1	1
359.521	1	2
360.718	1	-12
361.914	1	4
363.111	1	2
364.308	1	-3
365.504	1	-6
366.701	1	-9
367.897	1	-1
369.093	1	2
370.290	1	-8
371.486	1	7
372.682	1	7
373.879	1	11
375.075	1	5
376.271	1	-3
377.467	1	-7
378.663	1	-3
379.859	1	-10
381.055	1	3
382.251	1	6
383.447	1	17
384.643	1	-5
385.839	1	5
387.035	1	-6
388.230	1	-6
389.426	1	0
390.622	1	-10
391.817	1	-13
393.013	1	6
394.208	1	9
395.404	1	6
396.599	1	-4
397.795	1	-2
398.990	1	-3
400.186	1	9
401.381	1	-2
402.576	1	7
403.771	1	-2
404.967	1	-5
406.162	1	-8
407.357	1	1
408.552	1	-4
409.747	1	-8
410.942	1	0
412.137	1	4
413.332	1	-7
414.526	1	1
415.721	1	2
416.916	1	-9
418.111	1	6
419.305	1	-1
420.500	1	4
421.695	1	1
422.889	1	-2
424.084	1	6
425.278	1	-9
426.472	1	-6
427.667	1	5
428.861	1	2
430.055	1	0
431.250	1	-7
432.444	1	4
433.638	1	0
434.832	1	-4
436.026	1	-2
437.220	1	4
438.414	1	5
439.608	1	2
440.802	1	3
441.996	1	2
443.190	1	-8
444.384	1	1
445.578	1	13
446.771	1	-8
447.965	1	-11
449.159	1	-8
450.352	1	3
451.546	1	5
452.739	1	4
453.933	1	7
455.126	1	3
456.320	1	-2
457.513	1	13
458.706	1	-3
459.899	1	6
461.093	1	12
462.286	1	2
463.479	1	8
464.672	1	-1
465.865	1	-8
467.058	1	5
468.251	1	-8
469.444	1	-3
470.637	1	5
471.830	1	13
473.023	1	-10
474.215	1	-6
475.408	1	1
476.601	1	-1
477.793	1	8
478.986	1	-11
480.179	1	4
481.371	1	-1
482.564	1	-6
483.756	1	2
484.948	1	-6
486.141	1	2
487.333	1	-1
488.525	1	4
489.718	1	-6
490.910	1	-4
492.102	1	0
493.294	1	6
494.486	1	2
495.678	1	2
496.870	1	4
498.062	1	-9
499.254	1	-2
500.446	1	13
501.638	1	0
502.829	1	1
504.021	1	17
505.213	1	5
506.404	1	-7
507.596	1	0
508.788	1	0
509.979	1	4
511.171	1	10
512.362	1	2
513.553	1	-7
514.745	1	4
515.936	1	-3
517.127	1	2
518.319	1	3
519.510	1	1
520.701	1	4
521.892	1	-4
523.083	1	-3
524.274	1	-6
525.465	1	1
526.656	1	14
527.847	1	-8
529.038	1	9
530.229	1	4
531.419	1	4
532.610	1	1
533.801	1	6
534.991	1	0
536.182	1	-4
537.373	1	-9
538.563	1	3
539.754	1	-6
540.944	1	0
542.134	1	4
543.325	1	0
544.515	1	1
545.705	1	15
546.896	1	-7
548.086	1	-5
549.276	1	2
550.466	1	-3
551.656	1	-16
552.846	1	9
554.036	1	-2
555.226	1	1
556.416	1	7
557.606	1	-6
558.796	1	2
559.986	1	5
561.175	1	-4
562.365	1	1
563.555	1	3
564.744	1	5
565.934	1	1
567.123	1	13
568.313	1	-8
569.502	1	5
570.692	1	3
571.881	1	-3
573.070	1	4
574.260	1	-6
575.449	1	7
576.638	1	0
577.827	1	6
579.016	1	7
580.205	1	2
581.394	1	-5
582.583	1	-4
583.772	1	-1
584.961	1	12
586.150	1	0
587.339	1	6
588.528	1	5
589.717	1	-11
590.905	1	4
592.094	1	1
593.283	1	-6
594.471	1	1
595.660	1	-2
596.848	1	12
598.037	1	2
599.225	1	1
600.413	1	-8
601.602	1	-3
602.790	1	2
603.978	1	3
605.166	1	-12
606.355	1	6
607.543	1	0
608.731	1	-18
609.919	1	-8
611.107	1	13
612.295	1	-5
613.483	1	-2
614.671	1	-2
615.858	1	9
617.046	1	2
618.234	1	-1
619.422	1	-6
620.609	1	1
621.797	1	7
622.985	1	1
624.172	1	15
625.360	1	-14
626.547	1	1
627.735	1	-5
628.922	1	-4
630.109	1	0
631.297	1	-4
632.484	1	-6
633.671	1	7
634.858	1	2
636.045	1	4
637.232	1	0
638.419	1	0
639.606	1	14
640.793	1	6
641.980	1	-5
643.167	1	14
644.354	1	1
645.541	1	-7
646.728	1	5
647.914	1	-3
649.101	1	4
650.288	1	-3
651.474	1	11
652.661	1	3
653.847	1	4
655.034	1	7
656.220	1	0
657.406	1	6
658.593	1	-2
659.779	1	-11
660.965	1	2
662.152	1	1
663.338	1	-9
664.524	1	-6
665.710	1	-7
666.896	1	-11
668.082	1	-1
669.268	1	-5
670.454	1	0
671.640	1	-14
672.826	1	-13
674.011	1	3
675.197	1	-5
676.383	1	-7
677.569	1	-7
678.754	1	5
679.940	1	0
681.125	1	1
682.311	1	2
683.496	1	-3
684.682	1	4
685.867	1	0
687.053	1	3
688.238	1	-8
688.746	1	4

File: GaN_sample E_spot4_UVVIS_68 K_200um_200 ms 2x2mm1_7.txt
340.368	1	-2
341.565	1	-5
342.763	1	-3
343.960	1	2
345.157	1	11
346.354	1	3
347.552	1	-6
348.749	1	3
349.946	1	8
351.143	1	-5
352.340	1	2
353.537	1	5
354.734	1	-11
355.931	1	0
357.127	1	1
358.324	1	3
359.521	1	-2
360.718	1	2
361.914	1	2
363.111	1	9
364.308	1	1
365.504	1	-10
366.701	1	-4
367.897	1	3
369.093	1	-6
370.290	1	-2
371.486	1	5
372.682	1	-1
373.879	1	6
375.075	1	14
376.271	1	-2
377.467	1	-8
378.663	1	-7
379.859	1	-6
381.055	1	7
382.251	1	3
383.447	1	4
384.643	1	1
385.839	1	8
387.035	1	-1
388.230	1	-2
389.426	1	3
390.622	1	-9
391.817	1	-3
393.013	1	13
394.208	1	7
395.404	1	1
396.599	1	8
397.795	1	-5
398.990	1	6
400.186	1	4
401.381	1	6
402.576	1	13
403.771	1	6
404.967	1	3
406.162	1	-7
407.357	1	7
408.552	1	7
409.747	1	1
410.942	1	7
412.137	1	11
413.332	1	3
414.526	1	6
415.721	1	2
416.916	1	3
418.111	1	-8
419.305	1	-1
420.500	1	-2
421.695	1	3
422.889	1	-3
424.084	1	-3
425.278	1	-2
426.472	1	5
427.667	1	6
428.861	1	1
430.055	1	6
431.250	1	-13
432.444	1	6
433.638	1	-9
434.832	1	-5
436.026	1	0
437.220	1	12
438.414	1	5
439.608	1	-3
440.802	1	10
441.996	1	-4
443.190	1	-4
444.384	1	3
445.578	1	-4
446.771	1	7
447.965	1	-6
449.159	1	-9
450.352	1	3
451.546	1	4
452.739	1	-5
453.933	1	7
455.126	1	2
456.320	1	1
457.513	1	5
458.706	1	10
459.899	1	9
461.093	1	10
462.286	1	5
463.479	1	12
464.672	1	5
465.865	1	-11
467.058	1	7
468.251	1	-2
469.444	1	-5
470.637	1	7
471.830	1	13
473.023	1	-10
474.215	1	2
475.408	1	3
476.601	1	6
477.793	1	13
478.986	1	3
480.179	1	2
481.371	1	3
482.564	1	-4
483.756	1	-1
484.948	1	-2
486.141	1	-9
487.333	1	4
488.525	1	3
489.718	1	1
490.910	1	4
492.102	1	-9
493.294	1	11
494.486	1	8
495.678	1	2
496.870	1	-2
498.062	1	4
499.254	1	-2
500.446	1	4
501.638	1	-4
502.829	1	5
504.021	1	11
505.213	1	2
506.404	1	-1
507.596	1	-5
508.788	1	-4
509.979	1	-3
511.171	1	9
512.362	1	-2
513.553	1	-8
514.745	1	-7
515.936	1	-2
517.127	1	1
518.319	1	-3
519.510	1	4
520.701	1	-3
521.892	1	-10
523.083	1	-10
524.274	1	0
525.465	1	0
526.656	1	18
527.847	1	-3
529.038	1	9
530.229	1	2
531.419	1	5
532.610	1	0
533.801	1	6
534.991	1	5
536.182	1	-1
537.373	1	-6
538.563	1	5
539.754	1	0
540.944	1	2
542.134	1	4
543.325	1	-2
544.515	1	4
545.705	1	0
546.896	1	3
548.086	1	2
549.276	1	5
550.466	1	-3
551.656	1	-2
552.846	1	3
554.036	1	7
555.226	1	-2
556.416	1	7
557.606	1	-10
558.796	1	-8
559.986	1	-6
561.175	1	-2
562.365	1	2
563.555	1	12
564.744	1	6
565.934	1	1
567.123	1	10
568.313	1	7
569.502	1	9
570.692	1	4
571.881	1	4
573.070	1	1
574.260	1	2
575.449	1	2
576.638	1	0
577.827	1	6
579.016	1	18
580.205	1	5
581.394	1	-2
582.583	1	-10
583.772	1	7
584.961	1	3
586.150	1	-2
587.339	1	7
588.528	1	1
589.717	1	0
590.905	1	5
592.094	1	1
593.283	1	12
594.471	1	4
595.660	1	-1
596.848	1	3
598.037	1	5
599.225	1	3
600.413	1	-2
601.602	1	2
602.790	1	2
603.978	1	3
605.166	1	-8
606.355	1	3
607.543	1	-7
608.731	1	-7
609.919	1	-1
611.107	1	10
612.295	1	3
613.483	1	9
614.671	1	5
615.858	1	16
617.046	1	2
618.234	1	-3
619.422	1	5
620.609	1	8
621.797	1	4
622.985	1	6
624.172	1	10
625.360	1	-3
626.547	1	-3
627.735	1	2
628.922	1	-4
630.109	1	-5
631.297	1	2
632.484	1	0
633.671	1	-1
634.858	1	1
636.045	1	-1
637.232	1	2
638.419	1	6
639.606	1	10
640.793	1	4
641.980	1	-4
643.167	1	7
644.354	1	1
645.541	1	-11
646.728	1	3
647.914	1	1
649.101	1	3
650.288	1	0
651.474	1	1
652.661	1	2
653.847	1	-2
655.034	1	-6
656.220	1	2
657.406	1	9
658.593	1	-6
659.779	1	1
660.965	1	3
662.152	1	4
663.338	1	-1
664.524	1	-11
665.710	1	-5
666.896	1	-5
668.082	1	-9
669.268	1	4
670.454	1	3
671.640	1	-10
672.826	1	-10
674.011	1	4
675.197	1	-2
676.383	1	-5
677.569	1	1
678.754	1	-11
679.940	1	-4
681.125	1	8
682.311	1	-2
683.496	1	-13
684.682	1	10
685.867	1	-6
687.053	1	11
688.238	1	9
688.746	1	5

File: GaN_sample E_spot4_UVVIS_68 K_200um_200 ms 2x2mm1_12.txt
340.368	1	-6
341.565	1	-5
342.763	1	0
343.960	1	-4
345.157	1	5
346.354	1	2
347.552	1	-5
348.749	1	2
349.946	1	5
351.143	1	-13
352.340	1	-4
353.537	1	5
354.734	1	4
355.931	1	-1
357.127	1	5
358.324	1	-4
359.521	1	9
360.718	1	-4
361.914	1	-5
363.111	1	12
364.308	1	-6
365.504	1	-3
366.701	1	-14
367.897	1	3
369.093	1	2
370.290	1	-2
371.486	1	0
372.682	1	-1
373.879	1	9
375.075	1	4
376.271	1	-3
377.467	1	-6
378.663	1	-1
379.859	1	-4
381.055	1	-4
382.251	1	0
383.447	1	6
384.643	1	-1
385.839	1	6
387.035	1	-7
388.230	1	6
389.426	1	5
390.622	1	-2
391.817	1	-6
393.013	1	8
394.208	1	2
395.404	1	7
396.599	1	0
397.795	1	5
398.990	1	9
400.186	1	11
401.381	1	2
402.576	1	6
403.771	1	4
404.967	1	1
406.162	1	-3
407.357	1	4
408.552	1	-4
409.747	1	-3
410.942	1	-2
412.137	1	4
413.332	1	7
414.526	1	0
415.721	1	-2
416.916	1	-1
418.111	1	1
419.305	1	0
420.500	1	1
421.695	1	-3
422.889	1	6
424.084	1	3
425.278	1	-4
426.472	1	4
427.667	1	10
428.861	1	4
430.055	1	0
431.250	1	-11
432.444	1	-1
433.638	1	5
434.832	1	-5
436.026	1	5
437.220	1	8
438.414	1	-1
439.608	1	4
440.802	1	5
441.996	1	6
443.190	1	-3
444.384	1	2
445.578	1	7
446.771	1	-3
447.965	1	-8
449.159	1	-7
450.352	1	-3
451.546	1	4
452.739	1	4
453.933	1	11
455.126	1	2
456.320	1	2
457.513	1	1
458.706	1	-1
459.899	1	1
461.093	1	5
462.286	1	3
463.479	1	5
464.672	1	6
465.865	1	-5
467.058	1	2
468.251	1	3
469.444	1	5
470.637	1	14
471.830	1	15
473.023	1	1
474.215	1	-2
475.408	1	8
476.601	1	5
477.793	1	8
478.986	1	3
480.179	1	9
481.371	1	13
482.564	1	-8
483.756	1	2
484.948	1	0
486.141	1	-3
487.333	1	5
488.525	1	0
489.718	1	-2
490.910	1	-3
492.102	1	-1
493.294	1	14
494.486	1	-4
495.678	1	3
496.870	1	2
498.062	1	2
499.254	1	0
500.446	1	2
501.638	1	-1
502.829	1	5
504.021	1	11
505.213	1	4
506.404	1	-3
507.596	1	3
508.788	1	-3
509.979	1	-5
511.171	1	8
512.362	1	-4
513.553	1	-9
514.745	1	-5
515.936	1	-3
517.127	1	2
518.319	1	-5
519.510	1	-6
520.701	1	5
521.892	1	-4
523.083	1	3
524.274	1	-15
525.465	1	-9
526.656	1	7
527.847	1	-3
529.038	1	7
530.229	1	-3
531.419	1	1
532.610	1	0
533.801	1	0
534.991	1	1
536.182	1	3
537.373	1	1
538.563	1	0
539.754	1	2
540.944	1	-5
542.134	1	7
543.325	1	-14
544.515	1	-1
545.705	1	4
546.896	1	-11
548.086	1	3
549.276	1	6
550.466	1	-3
551.656	1	-15
552.846	1	5
554.036	1	-8
555.226	1	0
556.416	1	8
557.606	1	-7
558.796	1	2
559.986	1	-3
561.175	1	0
562.365	1	-2
563.555	1	11
564.744	1	5
565.934	1	6
567.123	1	16
568.313	1	-7
569.502	1	3
570.692	1	7
571.881	1	1
573.070	1	2
574.260	1	-2
575.449	1	0
576.638	1	6
577.827	1	-1
579.016	1	10
580.205	1	-1
581.394	1	-3
582.583	1	-6
583.772	1	-4
584.961	1	1
586.150	1	1
587.339	1	2
588.528	1	-6
589.717	1	3
590.905	1	0
592.094	1	0
593.283	1	5
594.471	1	-2
595.660	1	-13
596.848	1	7
598.037	1	9
599.225	1	3
600.413	1	7
601.602	1	4
602.790	1	7
603.978	1	-1
605.166	1	-6
606.355	1	10
607.543	1	-8
608.731	1	-7
609.919	1	-4
611.107	1	7
612.295	1	2
613.483	1	1
614.671	1	0
615.858	1	-1
617.046	1	5
618.234	1	0
619.422	1	2
620.609	1	5
621.797	1	-3
622.985	1	6
624.172	1	10
625.360	1	-6
626.547	1	-2
627.735	1	6
628.922	1	10
630.109	1	-5
631.297	1	1
632.484	1	-4
633.671	1	-4
634.858	1	15
636.045	1	1
637.232	1	0
638.419	1	9
639.606	1	18
640.793	1	7
641.980	1	0
643.167	1	10
644.354	1	-4
645.541	1	-6
646.728	1	4
647.914	1	-4
649.101	1	-2
650.288	1	6
651.474	1	9
652.661	1	5
653.847	1	-4
655.034	1	-4
656.220	1	7
657.406	1	4
658.593	1	-10
659.779	1	3
660.965	1	4
662.152	1	4
663.338	1	1
664.524	1	-8
665.710	1	2
666.896	1	-5
668.082	1	4
669.268	1	5
670.454	1	-12
671.640	1	-13
672.826	1	-15
674.011	1	-3
675.197	1	-3
676.383	1	-10
677.569	1	-6
678.754	1	2
679.940	1	4
681.125	1	11
682.311	1	7
683.496	1	-12
684.682	1	3
685.867	1	0
687.053	1	-6
688.238	1	-1
688.746	1	-5

File: GaN_sample E_spot4_UVVIS_68 K_200um_200 ms 2x2mm1_19.txt
340.368	1	-2
341.565	1	4
342.763	1	4
343.960	1	-2
345.157	1	9
346.354	1	-3
347.552	1	3
348.749	1	6
349.946	1	7
351.143	1	-8
352.340	1	-8
353.537	1	2
354.734	1	-1
355.931	1	1
357.127	1	12
358.324	1	-3
359.521	1	1
360.718	1	4
361.914	1	6
363.111	1	9
364.308	1	3
365.504	1	-2
366.701	1	-5
367.897	1	-3
369.093	1	-3
370.290	1	0
371.486	1	7
372.682	1	-5
373.879	1	9
375.075	1	13
376.271	1	-3
377.467	1	-1
378.663	1	-7
379.859	1	4
381.055	1	5
382.251	1	-2
383.447	1	7
384.643	1	13
385.839	1	2
387.035	1	3
388.230	1	7
389.426	1	7
390.622	1	-8
391.817	1	-6
393.013	1	5
394.208	1	10
395.404	1	6
396.599	1	9
397.795	1	8
398.990	1	7
400.186	1	-2
401.381	1	9
402.576	1	3
403.771	1	2
404.967	1	6
406.162	1	-9
407.357	1	1
408.552	1	3
409.747	1	-3
410.942	1	-6
412.137	1	14
413.332	1	-4
414.526	1	6
415.721	1	5
416.916	1	-1
418.111	1	1
419.305	1	-3
420.500	1	4
421.695	1	-10
422.889	1	5
424.084	1	6
425.278	1	-19
426.472	1	-2
427.667	1	7
428.861	1	0
430.055	1	-2
431.250	1	-3
432.444	1	9
433.638	1	-4
434.832	1	1
436.026	1	9
437.220	1	6
438.414	1	-5
439.608	1	4
440.802	1	4
441.996	1	-2
443.190	1	-7
444.384	1	10
445.578	1	3
446.771	1	10
447.965	1	-11
449.159	1	-3
450.352	1	2
451.546	1	4
452.739	1	6
453.933	1	9
455.126	1	-1
456.320	1	1
457.513	1	5
458.706	1	4
459.899	1	8
461.093	1	5
462.286	1	7
463.479	1	8
464.672	1	5
465.865	1	-3
467.058	1	7
468.251	1	-9
469.444	1	5
470.637	1	21
471.830	1	16
473.023	1	-5
474.215	1	3
475.408	1	-2
476.601	1	2
477.793	1	9
478.986	1	3
480.179	1	0
481.371	1	-4
482.564	1	-7
483.756	1	20
484.948	1	-10
486.141	1	1
487.333	1	1
488.525	1	-5
489.718	1	3
490.910	1	4
492.102	1	-5
493.294	1	6
494.486	1	6
495.678	1	12
496.870	1	4
498.062	1	6
499.254	1	4
500.446	1	5
501.638	1	-2
502.829	1	1
504.021	1	10
505.213	1	-2
506.404	1	-3
507.596	1	0
508.788	1	-3
509.979	1	2
511.171	1	9
512.362	1	0
513.553	1	0
514.745	1	4
515.936	1	11
517.127	1	4
518.319	1	4
519.510	1	-4
520.701	1	2
521.892	1	-8
523.083	1	-9
524.274	1	-9
525.465	1	-7
526.656	1	13
527.847	1	-1
529.038	1	3
530.229	1	8
531.419	1	11
532.610	1	8
533.801	1	-2
534.991	1	1
536.182	1	-9
537.373	1	-4
538.563	1	2
539.754	1	-10
540.944	1	0
542.134	1	1
543.325	1	-7
544.515	1	2
545.705	1	2
546.896	1	-2
548.086	1	7
549.276	1	5
550.466	1	-9
551.656	1	-10
552.846	1	-2
554.036	1	-7
555.226	1	-7
556.416	1	2
557.606	1	-7
558.796	1	2
559.986	1	-7
561.175	1	0
562.365	1	5
563.555	1	7
564.744	1	6
565.934	1	8
567.123	1	14
568.313	1	-3
569.502	1	6
570.692	1	4
571.881	1	7
573.070	1	6
574.260	1	2
575.449	1	4
576.638	1	-3
577.827	1	7
579.016	1	6
580.205	1	1
581.394	1	4
582.583	1	-3
583.772	1	4
584.961	1	9
586.150	1	6
587.339	1	8
588.528	1	1
589.717	1	4
590.905	1	1
592.094	1	6
593.283	1	13
594.471	1	-1
595.660	1	-6
596.848	1	8
598.037	1	4
599.225	1	2
600.413	1	5
601.602	1	16
602.790	1	-6
603.978	1	-2
605.166	1	-10
606.355	1	2
607.543	1	-8
608.731	1	-12
609.919	1	-3
611.107	1	0
612.295	1	-1
613.483	1	10
614.671	1	5
615.858	1	2
617.046	1	4
618.234	1	4
619.422	1	-6
620.609	1	-1
621.797	1	2
622.985	1	-2
624.172	1	7
625.360	1	-7
626.547	1	-4
627.735	1	6
628.922	1	6
630.109	1	-1
631.297	1	-4
632.484	1	-3
633.671	1	-1
634.858	1	11
636.045	1	2
637.232	1	-5
638.419	1	3
639.606	1	11
640.793	1	1
641.980	1	-4
643.167	1	9
644.354	1	4
645.541	1	2
646.728	1	8
647.914	1	5
649.101	1	-1
650.288	1	-2
651.474	1	2
652.661	1	7
653.847	1	0
655.034	1	2
656.220	1	3
657.406	1	4
658.593	1	-12
659.779	1	-4
660.965	1	4
662.152	1	0
663.338	1	-3
664.524	1	-14
665.710	1	-4
666.896	1	-3
668.082	1	-1
669.268	1	3
670.454	1	3
671.640	1	-10
672.826	1	-15
674.011	1	5
675.197	1	-5
676.383	1	-4
677.569	1	-5
678.754	1	-3
679.940	1	1
681.125	1	5
682.311	1	-8
683.496	1	-1
684.682	1	10
685.867	1	-10
687.053	1	9
688.238	1	4
688.746	1	5

File: GaN_sample E_spot4_UVVIS_68 K_200um_200 ms 2x2mm1_20.txt
340.368	1	-3
341.565	1	-8
342.763	1	-5
343.960	1	-5
345.157	1	4
346.354	1	0
347.552	1	-4
348.749	1	2
349.946	1	9
351.143	1	-10
352.340	1	6
353.537	1	-2
354.734	1	3
355.931	1	2
357.127	1	5
358.324	1	5
359.521	1	-1
360.718	1	-7
361.914	1	3
363.111	1	4
364.308	1	6
365.504	1	-9
366.701	1	-13
367.897	1	1
369.093	1	5
370.290	1	-5
371.486	1	9
372.682	1	1
373.879	1	12
375.075	1	2
376.271	1	-2
377.467	1	2
378.663	1	-10
379.859	1	-7
381.055	1	4
382.251	1	-7
383.447	1	13
384.643	1	8
385.839	1	9
387.035	1	4
388.230	1	1
389.426	1	15
390.622	1	-5
391.817	1	-6
393.013	1	1
394.208	1	1
395.404	1	2
396.599	1	2
397.795	1	7
398.990	1	13
400.186	1	7
401.381	1	1
402.576	1	7
403.771	1	4
404.967	1	0
406.162	1	-5
407.357	1	2
408.552	1	4
409.747	1	-3
410.942	1	2
412.137	1	7
413.332	1	2
414.526	1	9
415.721	1	2
416.916	1	-4
418.111	1	0
419.305	1	-1
420.500	1	-1
421.695	1	5
422.889	1	3
424.084	1	-5
425.278	1	-6
426.472	1	9
427.667	1	5
428.861	1	-1
430.055	1	1
431.250	1	-11
432.444	1	4
433.638	1	2
434.832	1	-6
436.026	1	-4
437.220	1	-2
438.414	1	5
439.608	1	7
440.802	1	2
441.996	1	2
443.190	1	-7
444.384	1	8
445.578	1	11
446.771	1	-1
447.965	1	-7
449.159	1	-4
450.352	1	8
451.546	1	12
452.739	1	-8
453.933	1	3
455.126	1	2
456.320	1	-4
457.513	1	2
458.706	1	3
459.899	1	7
461.093	1	14
462.286	1	12
463.479	1	8
464.672	1	1
465.865	1	-2
467.058	1	3
468.251	1	6
469.444	1	-3
470.637	1	12
471.830	1	12
473.023	1	-4
474.215	1	-3
475.408	1	3
476.601	1	0
477.793	1	13
478.986	1	-5
480.179	1	5
481.371	1	7
482.564	1	-3
483.756	1	5
484.948	1	-1
486.141	1	-7
487.333	1	3
488.525	1	-1
489.718	1	2
490.910	1	6
492.102	1	5
493.294	1	12
494.486	1	10
495.678	1	14
496.870	1	-11
498.062	1	-6
499.254	1	3
500.446	1	4
501.638	1	2
502.829	1	8
504.021	1	20
505.213	1	1
506.404	1	-3
507.596	1	3
508.788	1	2
509.979	1	2
511.171	1	12
512.362	1	-9
513.553	1	-11
514.745	1	-2
515.936	1	-2
517.127	1	4
518.319	1	-2
519.510	1	-6
520.701	1	0
521.892	1	-6
523.083	1	-8
524.274	1	-6
525.465	1	-8
526.656	1	23
527.847	1	-9
529.038	1	2
530.229	1	7
531.419	1	6
532.610	1	6
533.801	1	-6
534.991	1	-1
536.182	1	6
537.373	1	-3
538.563	1	-4
539.754	1	5
540.944	1	1
542.134	1	-2
543.325	1	-6
544.515	1	2
545.705	1	3
546.896	1	-3
548.086	1	4
549.276	1	0
550.466	1	2
551.656	1	-1
552.846	1	2
554.036	1	2
555.226	1	-10
556.416	1	4
557.606	1	-10
558.796	1	13
559.986	1	-3
561.175	1	-6
562.365	1	-1
563.555	1	4
564.744	1	5
565.934	1	0
567.123	1	18
568.313	1	-11
569.502	1	0
570.692	1	8
571.881	1	11
573.070	1	11
574.260	1	-5
575.449	1	4
576.638	1	5
577.827	1	-3
579.016	1	13
580.205	1	4
581.394	1	-7
582.583	1	-3
583.772	1	-1
584.961	1	9
586.150	1	0
587.339	1	-1
588.528	1	6
589.717	1	3
590.905	1	2
592.094	1	10
593.283	1	9
594.471	1	7
595.660	1	-2
596.848	1	5
598.037	1	-2
599.225	1	5
600.413	1	-8
601.602	1	4
602.790	1	-1
603.978	1	1
605.166	1	-8
606.355	1	2
607.543	1	-11
608.731	1	-8
609.919	1	-7
611.107	1	2
612.295	1	-2
613.483	1	4
614.671	1	0
615.858	1	-1
617.046	1	6
618.234	1	3
619.422	1	7
620.609	1	4
621.797	1	-8
622.985	1	-3
624.172	1	9
625.360	1	-2
626.547	1	7
627.735	1	10
628.922	1	-1
630.109	1	2
631.297	1	-2
632.484	1	-2
633.671	1	2
634.858	1	-1
636.045	1	-7
637.232	1	-1
638.419	1	7
639.606	1	9
640.793	1	9
641.980	1	-4
643.167	1	7
644.354	1	1
645.541	1	-13
646.728	1	2
647.914	1	11
649.101	1	2
650.288	1	-6
651.474	1	9
652.661	1	10
653.847	1	8
655.034	1	-1
656.220	1	-2
657.406	1	6
658.593	1	-2
659.779	1	-7
660.965	1	0
662.152	1	2
663.338	1	-6
664.524	1	-8
665.710	1	-2
666.896	1	1
668.082	1	-2
669.268	1	5
670.454	1	0
671.640	1	-13
672.826	1	-12
674.011	1	2
675.197	1	-3
676.383	1	6
677.569	1	-6
678.754	1	5
679.940	1	-4
681.125	1	12
682.311	1	0
683.496	1	-6
684.682	1	0
685.867	1	2
687.053	1	-1
688.238	1	3
688.746	1	1

File: GaN_sample E_spot4_UVVIS_68 K_200um_200 ms 2x2mm1_31.txt
340.368	1	-3
341.565	1	-7
342.763	1	-1
343.960	1	-1
345.157	1	-5
346.354	1	3
347.552	1	4
348.749	1	3
349.946	1	8
351.143	1	-7
352.340	1	9
353.537	1	-6
354.734	1	1
355.931	1	5
357.127	1	-4
358.324	1	2
359.521	1	0
360.718	1	6
361.914	1	4
363.111	1	14
364.308	1	2
365.504	1	-6
366.701	1	-2
367.897	1	-1
369.093	1	0
370.290	1	-1
371.486	1	5
372.682	1	-2
373.879	1	9
375.075	1	9
376.271	1	2
377.467	1	-3
378.663	1	-3
379.859	1	-3
381.055	1	-1
382.251	1	11
383.447	1	11
384.643	1	7
385.839	1	-2
387.035	1	-4
388.230	1	1
389.426	1	7
390.622	1	-11
391.817	1	-3
393.013	1	7
394.208	1	4
395.404	1	7
396.599	1	4
397.795	1	5
398.990	1	1
400.186	1	11
401.381	1	0
402.576	1	11
403.771	1	-1
404.967	1	5
406.162	1	-3
407.357	1	2
408.552	1	-9
409.747	1	5
410.942	1	0
412.137	1	8
413.332	1	-3
414.526	1	-1
415.721	1	1
416.916	1	-2
418.111	1	-2
419.305	1	1
420.500	1	6
421.695	1	7
422.889	1	4
424.084	1	-1
425.278	1	-3
426.472	1	-7
427.667	1	-2
428.861	1	0
430.055	1	-1
431.250	1	-9
432.444	1	13
433.638	1	2
434.832	1	1
436.026	1	12
437.220	1	5
438.414	1	-6
439.608	1	10
440.802	1	14
441.996	1	-3
443.190	1	-14
444.384	1	9
445.578	1	11
446.771	1	5
447.965	1	-1
449.159	1	-5
450.352	1	11
451.546	1	5
452.739	1	6
453.933	1	3
455.126	1	-3
456.320	1	9
457.513	1	9
458.706	1	0
459.899	1	8
461.093	1	11
462.286	1	11
463.479	1	1
464.672	1	-2
465.865	1	-5
467.058	1	8
468.251	1	-9
469.444	1	-4
470.637	1	13
471.830	1	16
473.023	1	-3
474.215	1	-5
475.408	1	4
476.601	1	-6
477.793	1	6
478.986	1	7
480.179	1	11
481.371	1	6
482.564	1	-6
483.756	1	6
484.948	1	-9
486.141	1	-7
487.333	1	7
488.525	1	6
489.718	1	-6
490.910	1	-3
492.102	1	6
493.294	1	11
494.486	1	4
495.678	1	15
496.870	1	-2
498.062	1	-3
499.254	1	3
500.446	1	2
501.638	1	4
502.829	1	12
504.021	1	21
505.213	1	-6
506.404	1	-5
507.596	1	6
508.788	1	4
509.979	1	1
511.171	1	18
512.362	1	0
513.553	1	-1
514.745	1	-5
515.936	1	6
517.127	1	-5
518.319	1	-4
519.510	1	-1
520.701	1	10
521.892	1	-8
523.083	1	-4
524.274	1	-8
525.465	1	-2
526.656	1	9
527.847	1	-7
529.038	1	2
530.229	1	-2
531.419	1	15
532.610	1	0
533.801	1	7
534.991	1	-5
536.182	1	4
537.373	1	-4
538.563	1	9
539.754	1	0
540.944	1	-1
542.134	1	9
543.325	1	-9
544.515	1	3
545.705	1	8
546.896	1	8
548.086	1	11
549.276	1	7
550.466	1	5
551.656	1	-5
552.846	1	8
554.036	1	-1
555.226	1	-2
556.416	1	6
557.606	1	-8
558.796	1	2
559.986	1	-4
561.175	1	7
562.365	1	5
563.555	1	4
564.744	1	1
565.934	1	-4
567.123	1	13
568.313	1	-5
569.502	1	-2
570.692	1	0
571.881	1	7
573.070	1	7
574.260	1	2
575.449	1	11
576.638	1	5
577.827	1	18
579.016	1	19
580.205	1	4
581.394	1	-3
582.583	1	-5
583.772	1	-6
584.961	1	8
586.150	1	13
587.339	1	-1
588.528	1	5
589.717	1	3
590.905	1	5
592.094	1	2
593.283	1	13
594.471	1	3
595.660	1	0
596.848	1	2
598.037	1	-5
599.225	1	-4
600.413	1	3
601.602	1	0
602.790	1	5
603.978	1	-9
605.166	1	-1
606.355	1	11
607.543	1	2
608.731	1	-8
609.919	1	2
611.107	1	8
612.295	1	1
613.483	1	-3
614.671	1	4
615.858	1	5
617.046	1	3
618.234	1	9
619.422	1	3
620.609	1	-6
621.797	1	5
622.985	1	3
624.172	1	13
625.360	1	-7
626.547	1	-1
627.735	1	11
628.922	1	6
630.109	1	0
631.297	1	-2
632.484	1	-3
633.671	1	1
634.858	1	1
636.045	1	5
637.232	1	8
638.419	1	14
639.606	1	12
640.793	1	-1
641.980	1	-3
643.167	1	2
644.354	1	1
645.541	1	-16
646.728	1	11
647.914	1	-6
649.101	1	-4
650.288	1	-5
651.474	1	7
652.661	1	-4
653.847	1	2
655.034	1	3
656.220	1	5
657.406	1	15
658.593	1	-5
659.779	1	1
660.965	1	10
662.152	1	3
663.338	1	-9
664.524	1	-10
665.710	1	-8
666.896	1	1
668.082	1	0
669.268	1	6
670.454	1	0
671.640	1	-16
672.826	1	-16
674.011	1	7
675.197	1	-2
676.383	1	1
677.569	1	-2
678.754	1	7
679.940	1	-5
681.125	1	10
682.311	1	-3
683.496	1	-8
684.682	1	1
685.867	1	-8
687.053	1	4
688.238	1	-6
688.746	1	-3