Folder: cryo-il_analysis/Analysis/GaN_68K_200ms (part 31)

File: GaN_sample E_spot4_UVVIS_68 K_200um_200 ms 2x2mm1_728.txt
340.368	1	-4
341.565	1	-5
342.763	1	0
343.960	1	-7
345.157	1	3
346.354	1	-5
347.552	1	8
348.749	1	-6
349.946	1	14
351.143	1	-7
352.340	1	-6
353.537	1	0
354.734	1	-11
355.931	1	-4
357.127	1	3
358.324	1	-1
359.521	1	6
360.718	1	-5
361.914	1	-2
363.111	1	6
364.308	1	-12
365.504	1	1
366.701	1	-10
367.897	1	-14
369.093	1	1
370.290	1	-3
371.486	1	3
372.682	1	3
373.879	1	1
375.075	1	11
376.271	1	-1
377.467	1	-5
378.663	1	-4
379.859	1	0
381.055	1	-2
382.251	1	13
383.447	1	13
384.643	1	2
385.839	1	0
387.035	1	-3
388.230	1	5
389.426	1	6
390.622	1	6
391.817	1	-2
393.013	1	7
394.208	1	7
395.404	1	8
396.599	1	8
397.795	1	0
398.990	1	6
400.186	1	10
401.381	1	2
402.576	1	13
403.771	1	4
404.967	1	4
406.162	1	-10
407.357	1	6
408.552	1	7
409.747	1	-5
410.942	1	5
412.137	1	6
413.332	1	2
414.526	1	-2
415.721	1	-2
416.916	1	-1
418.111	1	-3
419.305	1	-6
420.500	1	7
421.695	1	2
422.889	1	-2
424.084	1	8
425.278	1	-5
426.472	1	0
427.667	1	1
428.861	1	1
430.055	1	8
431.250	1	-8
432.444	1	-3
433.638	1	-1
434.832	1	-3
436.026	1	2
437.220	1	7
438.414	1	9
439.608	1	-4
440.802	1	5
441.996	1	8
443.190	1	-15
444.384	1	-1
445.578	1	3
446.771	1	-2
447.965	1	-10
449.159	1	-7
450.352	1	4
451.546	1	1
452.739	1	1
453.933	1	11
455.126	1	-5
456.320	1	6
457.513	1	8
458.706	1	-6
459.899	1	-2
461.093	1	5
462.286	1	12
463.479	1	7
464.672	1	-8
465.865	1	0
467.058	1	4
468.251	1	-2
469.444	1	-6
470.637	1	15
471.830	1	8
473.023	1	-8
474.215	1	-8
475.408	1	-2
476.601	1	-1
477.793	1	9
478.986	1	-2
480.179	1	-2
481.371	1	5
482.564	1	-6
483.756	1	8
484.948	1	-13
486.141	1	-9
487.333	1	2
488.525	1	-1
489.718	1	1
490.910	1	0
492.102	1	8
493.294	1	8
494.486	1	4
495.678	1	9
496.870	1	6
498.062	1	0
499.254	1	1
500.446	1	2
501.638	1	1
502.829	1	6
504.021	1	10
505.213	1	-5
506.404	1	-9
507.596	1	-1
508.788	1	2
509.979	1	3
511.171	1	8
512.362	1	0
513.553	1	-14
514.745	1	5
515.936	1	4
517.127	1	6
518.319	1	-8
519.510	1	-4
520.701	1	7
521.892	1	-20
523.083	1	0
524.274	1	-7
525.465	1	3
526.656	1	18
527.847	1	-9
529.038	1	8
530.229	1	4
531.419	1	10
532.610	1	3
533.801	1	-10
534.991	1	-5
536.182	1	7
537.373	1	-4
538.563	1	0
539.754	1	-9
540.944	1	-7
542.134	1	6
543.325	1	-8
544.515	1	6
545.705	1	0
546.896	1	-4
548.086	1	9
549.276	1	4
550.466	1	-8
551.656	1	-3
552.846	1	4
554.036	1	2
555.226	1	-5
556.416	1	-4
557.606	1	-15
558.796	1	-8
559.986	1	-4
561.175	1	-5
562.365	1	2
563.555	1	7
564.744	1	2
565.934	1	11
567.123	1	14
568.313	1	0
569.502	1	-8
570.692	1	5
571.881	1	2
573.070	1	2
574.260	1	8
575.449	1	9
576.638	1	-2
577.827	1	8
579.016	1	10
580.205	1	-1
581.394	1	-9
582.583	1	-13
583.772	1	-2
584.961	1	5
586.150	1	7
587.339	1	1
588.528	1	-2
589.717	1	-1
590.905	1	4
592.094	1	3
593.283	1	6
594.471	1	-10
595.660	1	3
596.848	1	5
598.037	1	-1
599.225	1	1
600.413	1	-5
601.602	1	3
602.790	1	-3
603.978	1	-1
605.166	1	-8
606.355	1	-2
607.543	1	-10
608.731	1	-6
609.919	1	-7
611.107	1	12
612.295	1	1
613.483	1	3
614.671	1	1
615.858	1	17
617.046	1	1
618.234	1	-2
619.422	1	-3
620.609	1	3
621.797	1	-5
622.985	1	4
624.172	1	4
625.360	1	-15
626.547	1	4
627.735	1	1
628.922	1	1
630.109	1	0
631.297	1	-2
632.484	1	-14
633.671	1	3
634.858	1	2
636.045	1	5
637.232	1	0
638.419	1	-3
639.606	1	8
640.793	1	5
641.980	1	-1
643.167	1	9
644.354	1	5
645.541	1	-10
646.728	1	6
647.914	1	-1
649.101	1	0
650.288	1	4
651.474	1	3
652.661	1	0
653.847	1	7
655.034	1	-4
656.220	1	11
657.406	1	1
658.593	1	-9
659.779	1	2
660.965	1	-5
662.152	1	0
663.338	1	0
664.524	1	-13
665.710	1	1
666.896	1	0
668.082	1	-8
669.268	1	3
670.454	1	0
671.640	1	-13
672.826	1	-12
674.011	1	4
675.197	1	-6
676.383	1	-4
677.569	1	-6
678.754	1	0
679.940	1	6
681.125	1	3
682.311	1	0
683.496	1	-9
684.682	1	1
685.867	1	-5
687.053	1	-3
688.238	1	11
688.746	1	3

File: GaN_sample E_spot4_UVVIS_68 K_200um_200 ms 2x2mm1_731.txt
340.368	1	1
341.565	1	-9
342.763	1	-5
343.960	1	1
345.157	1	-4
346.354	1	3
347.552	1	4
348.749	1	4
349.946	1	2
351.143	1	-10
352.340	1	2
353.537	1	7
354.734	1	-4
355.931	1	6
357.127	1	0
358.324	1	-6
359.521	1	1
360.718	1	-5
361.914	1	-4
363.111	1	12
364.308	1	3
365.504	1	-4
366.701	1	-10
367.897	1	-5
369.093	1	-2
370.290	1	-7
371.486	1	-3
372.682	1	-3
373.879	1	9
375.075	1	-3
376.271	1	3
377.467	1	-11
378.663	1	-10
379.859	1	-1
381.055	1	3
382.251	1	1
383.447	1	9
384.643	1	5
385.839	1	0
387.035	1	4
388.230	1	-4
389.426	1	7
390.622	1	7
391.817	1	-7
393.013	1	11
394.208	1	4
395.404	1	1
396.599	1	5
397.795	1	11
398.990	1	1
400.186	1	9
401.381	1	3
402.576	1	4
403.771	1	7
404.967	1	8
406.162	1	-2
407.357	1	3
408.552	1	6
409.747	1	-7
410.942	1	5
412.137	1	-2
413.332	1	-3
414.526	1	1
415.721	1	2
416.916	1	6
418.111	1	-2
419.305	1	-6
420.500	1	-6
421.695	1	-3
422.889	1	8
424.084	1	6
425.278	1	-8
426.472	1	-12
427.667	1	1
428.861	1	0
430.055	1	-1
431.250	1	-9
432.444	1	1
433.638	1	-3
434.832	1	-11
436.026	1	-6
437.220	1	13
438.414	1	-12
439.608	1	-2
440.802	1	5
441.996	1	-1
443.190	1	-13
444.384	1	-2
445.578	1	8
446.771	1	-5
447.965	1	-4
449.159	1	-6
450.352	1	2
451.546	1	10
452.739	1	-1
453.933	1	-3
455.126	1	3
456.320	1	-3
457.513	1	14
458.706	1	7
459.899	1	14
461.093	1	8
462.286	1	11
463.479	1	4
464.672	1	-6
465.865	1	-4
467.058	1	5
468.251	1	-6
469.444	1	-7
470.637	1	10
471.830	1	5
473.023	1	-7
474.215	1	-3
475.408	1	-2
476.601	1	4
477.793	1	10
478.986	1	0
480.179	1	-2
481.371	1	2
482.564	1	-9
483.756	1	0
484.948	1	-4
486.141	1	2
487.333	1	5
488.525	1	-2
489.718	1	0
490.910	1	-6
492.102	1	-3
493.294	1	2
494.486	1	1
495.678	1	5
496.870	1	-3
498.062	1	-12
499.254	1	2
500.446	1	3
501.638	1	3
502.829	1	4
504.021	1	17
505.213	1	-1
506.404	1	-6
507.596	1	5
508.788	1	-2
509.979	1	-2
511.171	1	11
512.362	1	1
513.553	1	-1
514.745	1	2
515.936	1	-4
517.127	1	5
518.319	1	-3
519.510	1	6
520.701	1	7
521.892	1	-3
523.083	1	2
524.274	1	-11
525.465	1	-4
526.656	1	9
527.847	1	-7
529.038	1	6
530.229	1	3
531.419	1	0
532.610	1	4
533.801	1	3
534.991	1	2
536.182	1	0
537.373	1	-7
538.563	1	4
539.754	1	-5
540.944	1	-9
542.134	1	11
543.325	1	5
544.515	1	2
545.705	1	-3
546.896	1	-6
548.086	1	12
549.276	1	10
550.466	1	-9
551.656	1	-5
552.846	1	6
554.036	1	-1
555.226	1	-8
556.416	1	2
557.606	1	-4
558.796	1	-11
559.986	1	-4
561.175	1	1
562.365	1	2
563.555	1	12
564.744	1	7
565.934	1	-2
567.123	1	16
568.313	1	-5
569.502	1	-4
570.692	1	2
571.881	1	0
573.070	1	13
574.260	1	-5
575.449	1	2
576.638	1	6
577.827	1	18
579.016	1	11
580.205	1	0
581.394	1	-7
582.583	1	-8
583.772	1	-5
584.961	1	4
586.150	1	2
587.339	1	-9
588.528	1	6
589.717	1	-2
590.905	1	-2
592.094	1	4
593.283	1	2
594.471	1	6
595.660	1	-4
596.848	1	-1
598.037	1	0
599.225	1	1
600.413	1	0
601.602	1	-3
602.790	1	3
603.978	1	-2
605.166	1	-1
606.355	1	12
607.543	1	-10
608.731	1	-18
609.919	1	-4
611.107	1	6
612.295	1	7
613.483	1	4
614.671	1	-4
615.858	1	0
617.046	1	10
618.234	1	1
619.422	1	-5
620.609	1	-4
621.797	1	-2
622.985	1	3
624.172	1	10
625.360	1	1
626.547	1	5
627.735	1	3
628.922	1	-11
630.109	1	0
631.297	1	-9
632.484	1	-4
633.671	1	-4
634.858	1	14
636.045	1	-2
637.232	1	7
638.419	1	1
639.606	1	18
640.793	1	9
641.980	1	-5
643.167	1	8
644.354	1	0
645.541	1	-11
646.728	1	4
647.914	1	-14
649.101	1	-2
650.288	1	-5
651.474	1	6
652.661	1	9
653.847	1	4
655.034	1	3
656.220	1	2
657.406	1	3
658.593	1	-7
659.779	1	-11
660.965	1	3
662.152	1	4
663.338	1	-4
664.524	1	-7
665.710	1	-2
666.896	1	-10
668.082	1	0
669.268	1	6
670.454	1	0
671.640	1	-7
672.826	1	-8
674.011	1	5
675.197	1	-3
676.383	1	2
677.569	1	-4
678.754	1	-1
679.940	1	-8
681.125	1	7
682.311	1	0
683.496	1	-8
684.682	1	9
685.867	1	-1
687.053	1	-1
688.238	1	3
688.746	1	2

File: GaN_sample E_spot4_UVVIS_68 K_200um_200 ms 2x2mm1_735.txt
340.368	1	7
341.565	1	-9
342.763	1	-12
343.960	1	-6
345.157	1	9
346.354	1	-7
347.552	1	-1
348.749	1	4
349.946	1	-3
351.143	1	-4
352.340	1	-6
353.537	1	-2
354.734	1	1
355.931	1	9
357.127	1	-4
358.324	1	2
359.521	1	0
360.718	1	-9
361.914	1	5
363.111	1	3
364.308	1	-6
365.504	1	-7
366.701	1	-9
367.897	1	-2
369.093	1	1
370.290	1	5
371.486	1	9
372.682	1	-2
373.879	1	4
375.075	1	1
376.271	1	-2
377.467	1	2
378.663	1	-2
379.859	1	-7
381.055	1	-1
382.251	1	4
383.447	1	3
384.643	1	7
385.839	1	-3
387.035	1	-8
388.230	1	-7
389.426	1	6
390.622	1	-2
391.817	1	-2
393.013	1	15
394.208	1	6
395.404	1	6
396.599	1	6
397.795	1	6
398.990	1	11
400.186	1	10
401.381	1	4
402.576	1	13
403.771	1	5
404.967	1	-3
406.162	1	-3
407.357	1	4
408.552	1	1
409.747	1	-1
410.942	1	6
412.137	1	5
413.332	1	0
414.526	1	2
415.721	1	-2
416.916	1	-7
418.111	1	4
419.305	1	0
420.500	1	-1
421.695	1	1
422.889	1	3
424.084	1	-1
425.278	1	-8
426.472	1	-2
427.667	1	9
428.861	1	-4
430.055	1	6
431.250	1	-4
432.444	1	9
433.638	1	-8
434.832	1	-5
436.026	1	6
437.220	1	11
438.414	1	-6
439.608	1	-4
440.802	1	6
441.996	1	0
443.190	1	-11
444.384	1	2
445.578	1	6
446.771	1	-1
447.965	1	-4
449.159	1	-7
450.352	1	1
451.546	1	-5
452.739	1	-4
453.933	1	11
455.126	1	0
456.320	1	0
457.513	1	8
458.706	1	-3
459.899	1	18
461.093	1	5
462.286	1	6
463.479	1	8
464.672	1	-1
465.865	1	-10
467.058	1	10
468.251	1	-4
469.444	1	0
470.637	1	5
471.830	1	7
473.023	1	-13
474.215	1	3
475.408	1	0
476.601	1	1
477.793	1	2
478.986	1	-6
480.179	1	-2
481.371	1	4
482.564	1	-8
483.756	1	14
484.948	1	-10
486.141	1	-8
487.333	1	-2
488.525	1	0
489.718	1	0
490.910	1	-11
492.102	1	-2
493.294	1	11
494.486	1	3
495.678	1	10
496.870	1	-6
498.062	1	-10
499.254	1	-5
500.446	1	-2
501.638	1	3
502.829	1	7
504.021	1	23
505.213	1	-1
506.404	1	-4
507.596	1	-5
508.788	1	1
509.979	1	-6
511.171	1	10
512.362	1	1
513.553	1	-5
514.745	1	-9
515.936	1	0
517.127	1	3
518.319	1	3
519.510	1	4
520.701	1	-1
521.892	1	-9
523.083	1	0
524.274	1	-7
525.465	1	-2
526.656	1	10
527.847	1	-3
529.038	1	2
530.229	1	2
531.419	1	11
532.610	1	-4
533.801	1	-4
534.991	1	-8
536.182	1	-4
537.373	1	-7
538.563	1	-2
539.754	1	-4
540.944	1	-6
542.134	1	2
543.325	1	-7
544.515	1	-3
545.705	1	6
546.896	1	-2
548.086	1	0
549.276	1	8
550.466	1	-9
551.656	1	3
552.846	1	2
554.036	1	9
555.226	1	-7
556.416	1	6
557.606	1	-10
558.796	1	1
559.986	1	-8
561.175	1	-2
562.365	1	-4
563.555	1	5
564.744	1	-1
565.934	1	-5
567.123	1	16
568.313	1	-1
569.502	1	2
570.692	1	4
571.881	1	1
573.070	1	4
574.260	1	6
575.449	1	6
576.638	1	2
577.827	1	3
579.016	1	15
580.205	1	8
581.394	1	-11
582.583	1	-4
583.772	1	1
584.961	1	2
586.150	1	3
587.339	1	4
588.528	1	3
589.717	1	0
590.905	1	10
592.094	1	4
593.283	1	4
594.471	1	0
595.660	1	-2
596.848	1	4
598.037	1	4
599.225	1	7
600.413	1	-6
601.602	1	-7
602.790	1	1
603.978	1	-2
605.166	1	-3
606.355	1	5
607.543	1	0
608.731	1	-2
609.919	1	-1
611.107	1	7
612.295	1	1
613.483	1	0
614.671	1	5
615.858	1	1
617.046	1	2
618.234	1	-2
619.422	1	-1
620.609	1	5
621.797	1	-2
622.985	1	5
624.172	1	5
625.360	1	-6
626.547	1	8
627.735	1	-1
628.922	1	-1
630.109	1	-1
631.297	1	-7
632.484	1	-5
633.671	1	-5
634.858	1	10
636.045	1	-1
637.232	1	-1
638.419	1	6
639.606	1	12
640.793	1	6
641.980	1	0
643.167	1	11
644.354	1	-6
645.541	1	-7
646.728	1	2
647.914	1	-4
649.101	1	-6
650.288	1	-4
651.474	1	6
652.661	1	-3
653.847	1	11
655.034	1	11
656.220	1	8
657.406	1	-3
658.593	1	-3
659.779	1	-1
660.965	1	-8
662.152	1	-1
663.338	1	-9
664.524	1	-16
665.710	1	-5
666.896	1	-4
668.082	1	2
669.268	1	-4
670.454	1	6
671.640	1	-20
672.826	1	-13
674.011	1	11
675.197	1	1
676.383	1	-10
677.569	1	1
678.754	1	3
679.940	1	-10
681.125	1	11
682.311	1	6
683.496	1	-8
684.682	1	13
685.867	1	1
687.053	1	1
688.238	1	5
688.746	1	3

File: GaN_sample E_spot4_UVVIS_68 K_200um_200 ms 2x2mm1_737.txt
340.368	1	2
341.565	1	-10
342.763	1	-2
343.960	1	-1
345.157	1	10
346.354	1	-2
347.552	1	-1
348.749	1	-5
349.946	1	6
351.143	1	-6
352.340	1	-5
353.537	1	9
354.734	1	-11
355.931	1	4
357.127	1	2
358.324	1	-5
359.521	1	1
360.718	1	-10
361.914	1	-8
363.111	1	0
364.308	1	-5
365.504	1	-5
366.701	1	-4
367.897	1	-1
369.093	1	2
370.290	1	-3
371.486	1	0
372.682	1	-4
373.879	1	7
375.075	1	5
376.271	1	-6
377.467	1	-4
378.663	1	-5
379.859	1	-4
381.055	1	1
382.251	1	7
383.447	1	6
384.643	1	8
385.839	1	8
387.035	1	-5
388.230	1	4
389.426	1	3
390.622	1	1
391.817	1	2
393.013	1	9
394.208	1	7
395.404	1	-5
396.599	1	3
397.795	1	6
398.990	1	7
400.186	1	5
401.381	1	4
402.576	1	9
403.771	1	4
404.967	1	1
406.162	1	-5
407.357	1	-1
408.552	1	2
409.747	1	2
410.942	1	7
412.137	1	8
413.332	1	1
414.526	1	0
415.721	1	-10
416.916	1	-6
418.111	1	1
419.305	1	-6
420.500	1	0
421.695	1	10
422.889	1	3
424.084	1	4
425.278	1	-4
426.472	1	-2
427.667	1	5
428.861	1	-8
430.055	1	-6
431.250	1	-4
432.444	1	6
433.638	1	-4
434.832	1	-8
436.026	1	6
437.220	1	1
438.414	1	0
439.608	1	4
440.802	1	8
441.996	1	6
443.190	1	-8
444.384	1	0
445.578	1	11
446.771	1	-17
447.965	1	-2
449.159	1	-7
450.352	1	6
451.546	1	-10
452.739	1	2
453.933	1	7
455.126	1	-3
456.320	1	4
457.513	1	6
458.706	1	-4
459.899	1	1
461.093	1	10
462.286	1	2
463.479	1	3
464.672	1	-4
465.865	1	-6
467.058	1	6
468.251	1	-5
469.444	1	-1
470.637	1	23
471.830	1	16
473.023	1	-1
474.215	1	-2
475.408	1	5
476.601	1	-7
477.793	1	5
478.986	1	0
480.179	1	9
481.371	1	7
482.564	1	-3
483.756	1	14
484.948	1	-4
486.141	1	-9
487.333	1	4
488.525	1	4
489.718	1	-7
490.910	1	-2
492.102	1	-3
493.294	1	9
494.486	1	12
495.678	1	7
496.870	1	5
498.062	1	-1
499.254	1	6
500.446	1	2
501.638	1	-10
502.829	1	-2
504.021	1	20
505.213	1	3
506.404	1	-8
507.596	1	2
508.788	1	0
509.979	1	-11
511.171	1	9
512.362	1	-1
513.553	1	-7
514.745	1	2
515.936	1	7
517.127	1	-4
518.319	1	-4
519.510	1	-6
520.701	1	5
521.892	1	-12
523.083	1	-8
524.274	1	-4
525.465	1	-3
526.656	1	17
527.847	1	-3
529.038	1	9
530.229	1	-2
531.419	1	8
532.610	1	7
533.801	1	-11
534.991	1	5
536.182	1	5
537.373	1	-5
538.563	1	4
539.754	1	-1
540.944	1	-5
542.134	1	7
543.325	1	9
544.515	1	-3
545.705	1	8
546.896	1	-1
548.086	1	3
549.276	1	3
550.466	1	-4
551.656	1	-1
552.846	1	7
554.036	1	7
555.226	1	-7
556.416	1	-4
557.606	1	-7
558.796	1	1
559.986	1	-3
561.175	1	0
562.365	1	1
563.555	1	7
564.744	1	11
565.934	1	12
567.123	1	12
568.313	1	-6
569.502	1	-3
570.692	1	4
571.881	1	4
573.070	1	4
574.260	1	-6
575.449	1	9
576.638	1	-1
577.827	1	-1
579.016	1	13
580.205	1	0
581.394	1	-8
582.583	1	-6
583.772	1	-4
584.961	1	5
586.150	1	3
587.339	1	1
588.528	1	-1
589.717	1	-4
590.905	1	5
592.094	1	1
593.283	1	1
594.471	1	-4
595.660	1	-8
596.848	1	4
598.037	1	3
599.225	1	0
600.413	1	0
601.602	1	4
602.790	1	3
603.978	1	-1
605.166	1	1
606.355	1	6
607.543	1	-14
608.731	1	-5
609.919	1	3
611.107	1	12
612.295	1	1
613.483	1	11
614.671	1	1
615.858	1	5
617.046	1	-7
618.234	1	-4
619.422	1	3
620.609	1	-5
621.797	1	2
622.985	1	-2
624.172	1	9
625.360	1	-4
626.547	1	1
627.735	1	6
628.922	1	0
630.109	1	2
631.297	1	-1
632.484	1	-5
633.671	1	6
634.858	1	13
636.045	1	0
637.232	1	6
638.419	1	9
639.606	1	15
640.793	1	6
641.980	1	2
643.167	1	1
644.354	1	3
645.541	1	-4
646.728	1	3
647.914	1	-1
649.101	1	-8
650.288	1	2
651.474	1	7
652.661	1	0
653.847	1	3
655.034	1	-6
656.220	1	6
657.406	1	3
658.593	1	-13
659.779	1	-2
660.965	1	-6
662.152	1	4
663.338	1	-2
664.524	1	-5
665.710	1	-14
666.896	1	-1
668.082	1	1
669.268	1	5
670.454	1	0
671.640	1	-9
672.826	1	-16
674.011	1	6
675.197	1	-7
676.383	1	1
677.569	1	0
678.754	1	-2
679.940	1	2
681.125	1	4
682.311	1	-4
683.496	1	-2
684.682	1	8
685.867	1	1
687.053	1	-1
688.238	1	2
688.746	1	1

File: GaN_sample E_spot4_UVVIS_68 K_200um_200 ms 2x2mm1_744.txt
340.368	1	1
341.565	1	-10
342.763	1	-5
343.960	1	-4
345.157	1	2
346.354	1	-1
347.552	1	-13
348.749	1	-1
349.946	1	9
351.143	1	-12
352.340	1	-7
353.537	1	-1
354.734	1	-2
355.931	1	4
357.127	1	1
358.324	1	5
359.521	1	-3
360.718	1	-4
361.914	1	-1
363.111	1	12
364.308	1	-4
365.504	1	-3
366.701	1	-14
367.897	1	-12
369.093	1	4
370.290	1	-7
371.486	1	5
372.682	1	4
373.879	1	5
375.075	1	0
376.271	1	-2
377.467	1	4
378.663	1	-11
379.859	1	1
381.055	1	-2
382.251	1	12
383.447	1	12
384.643	1	0
385.839	1	7
387.035	1	-2
388.230	1	0
389.426	1	9
390.622	1	-8
391.817	1	5
393.013	1	7
394.208	1	7
395.404	1	7
396.599	1	3
397.795	1	-1
398.990	1	0
400.186	1	11
401.381	1	4
402.576	1	20
403.771	1	-4
404.967	1	1
406.162	1	-9
407.357	1	-5
408.552	1	3
409.747	1	3
410.942	1	1
412.137	1	6
413.332	1	-1
414.526	1	-2
415.721	1	4
416.916	1	0
418.111	1	8
419.305	1	6
420.500	1	1
421.695	1	-2
422.889	1	2
424.084	1	3
425.278	1	-8
426.472	1	-10
427.667	1	7
428.861	1	6
430.055	1	0
431.250	1	-9
432.444	1	3
433.638	1	-7
434.832	1	-7
436.026	1	-4
437.220	1	1
438.414	1	-6
439.608	1	0
440.802	1	4
441.996	1	-6
443.190	1	-1
444.384	1	5
445.578	1	5
446.771	1	-3
447.965	1	-10
449.159	1	-12
450.352	1	7
451.546	1	-1
452.739	1	0
453.933	1	8
455.126	1	-4
456.320	1	0
457.513	1	-3
458.706	1	-5
459.899	1	-2
461.093	1	0
462.286	1	-3
463.479	1	7
464.672	1	1
465.865	1	1
467.058	1	7
468.251	1	6
469.444	1	-6
470.637	1	15
471.830	1	10
473.023	1	-2
474.215	1	-2
475.408	1	-6
476.601	1	4
477.793	1	6
478.986	1	-4
480.179	1	4
481.371	1	8
482.564	1	-8
483.756	1	-5
484.948	1	-3
486.141	1	-12
487.333	1	0
488.525	1	3
489.718	1	-9
490.910	1	-4
492.102	1	-2
493.294	1	5
494.486	1	-3
495.678	1	8
496.870	1	-7
498.062	1	2
499.254	1	5
500.446	1	6
501.638	1	1
502.829	1	3
504.021	1	17
505.213	1	-1
506.404	1	-13
507.596	1	5
508.788	1	-4
509.979	1	1
511.171	1	11
512.362	1	4
513.553	1	-3
514.745	1	-2
515.936	1	2
517.127	1	0
518.319	1	3
519.510	1	-5
520.701	1	1
521.892	1	-5
523.083	1	1
524.274	1	-8
525.465	1	-5
526.656	1	15
527.847	1	-3
529.038	1	5
530.229	1	-4
531.419	1	-1
532.610	1	9
533.801	1	-3
534.991	1	7
536.182	1	-5
537.373	1	4
538.563	1	9
539.754	1	0
540.944	1	-8
542.134	1	5
543.325	1	-4
544.515	1	-5
545.705	1	5
546.896	1	-4
548.086	1	-2
549.276	1	3
550.466	1	-6
551.656	1	-7
552.846	1	2
554.036	1	-3
555.226	1	-7
556.416	1	-6
557.606	1	-2
558.796	1	-1
559.986	1	-5
561.175	1	4
562.365	1	-4
563.555	1	1
564.744	1	3
565.934	1	8
567.123	1	13
568.313	1	2
569.502	1	3
570.692	1	3
571.881	1	6
573.070	1	-4
574.260	1	-4
575.449	1	6
576.638	1	2
577.827	1	10
579.016	1	18
580.205	1	-7
581.394	1	8
582.583	1	-5
583.772	1	7
584.961	1	5
586.150	1	2
587.339	1	-2
588.528	1	-2
589.717	1	6
590.905	1	4
592.094	1	-1
593.283	1	9
594.471	1	-4
595.660	1	-2
596.848	1	9
598.037	1	-1
599.225	1	3
600.413	1	1
601.602	1	-2
602.790	1	4
603.978	1	0
605.166	1	-6
606.355	1	9
607.543	1	-4
608.731	1	-11
609.919	1	-16
611.107	1	7
612.295	1	5
613.483	1	1
614.671	1	4
615.858	1	6
617.046	1	-1
618.234	1	-2
619.422	1	4
620.609	1	-1
621.797	1	5
622.985	1	1
624.172	1	11
625.360	1	-9
626.547	1	0
627.735	1	-10
628.922	1	0
630.109	1	1
631.297	1	-7
632.484	1	-4
633.671	1	-2
634.858	1	10
636.045	1	-6
637.232	1	3
638.419	1	3
639.606	1	12
640.793	1	-1
641.980	1	0
643.167	1	9
644.354	1	-6
645.541	1	-5
646.728	1	-6
647.914	1	-5
649.101	1	2
650.288	1	-2
651.474	1	8
652.661	1	5
653.847	1	0
655.034	1	-2
656.220	1	1
657.406	1	1
658.593	1	-4
659.779	1	0
660.965	1	-4
662.152	1	-2
663.338	1	-2
664.524	1	-10
665.710	1	6
666.896	1	4
668.082	1	-7
669.268	1	-3
670.454	1	1
671.640	1	-12
672.826	1	-8
674.011	1	-1
675.197	1	-8
676.383	1	-10
677.569	1	-11
678.754	1	-4
679.940	1	-2
681.125	1	3
682.311	1	-2
683.496	1	4
684.682	1	4
685.867	1	10
687.053	1	7
688.238	1	-1
688.746	1	6

File: GaN_sample E_spot4_UVVIS_68 K_200um_200 ms 2x2mm1_745.txt
340.368	1	-10
341.565	1	-12
342.763	1	-6
343.960	1	-2
345.157	1	-1
346.354	1	3
347.552	1	-7
348.749	1	0
349.946	1	9
351.143	1	-11
352.340	1	-1
353.537	1	-6
354.734	1	-6
355.931	1	2
357.127	1	1
358.324	1	-3
359.521	1	-5
360.718	1	-9
361.914	1	-9
363.111	1	16
364.308	1	-7
365.504	1	-5
366.701	1	-6
367.897	1	-4
369.093	1	2
370.290	1	-2
371.486	1	1
372.682	1	-1
373.879	1	17
375.075	1	8
376.271	1	-4
377.467	1	-11
378.663	1	-7
379.859	1	-12
381.055	1	-4
382.251	1	6
383.447	1	4
384.643	1	8
385.839	1	4
387.035	1	-10
388.230	1	-5
389.426	1	4
390.622	1	2
391.817	1	-3
393.013	1	7
394.208	1	3
395.404	1	8
396.599	1	-3
397.795	1	-1
398.990	1	-1
400.186	1	17
401.381	1	5
402.576	1	9
403.771	1	-4
404.967	1	-2
406.162	1	-4
407.357	1	3
408.552	1	4
409.747	1	-5
410.942	1	-3
412.137	1	9
413.332	1	-1
414.526	1	0
415.721	1	4
416.916	1	-6
418.111	1	0
419.305	1	-10
420.500	1	5
421.695	1	5
422.889	1	3
424.084	1	-2
425.278	1	-16
426.472	1	0
427.667	1	9
428.861	1	-1
430.055	1	0
431.250	1	-10
432.444	1	5
433.638	1	-4
434.832	1	-6
436.026	1	0
437.220	1	5
438.414	1	-1
439.608	1	1
440.802	1	-2
441.996	1	-6
443.190	1	-9
444.384	1	2
445.578	1	8
446.771	1	-2
447.965	1	3
449.159	1	-9
450.352	1	11
451.546	1	3
452.739	1	-5
453.933	1	3
455.126	1	-5
456.320	1	-2
457.513	1	2
458.706	1	5
459.899	1	11
461.093	1	7
462.286	1	6
463.479	1	7
464.672	1	-3
465.865	1	-2
467.058	1	11
468.251	1	-3
469.444	1	-10
470.637	1	16
471.830	1	8
473.023	1	-6
474.215	1	0
475.408	1	-4
476.601	1	-2
477.793	1	2
478.986	1	1
480.179	1	6
481.371	1	6
482.564	1	-8
483.756	1	9
484.948	1	-8
486.141	1	-11
487.333	1	1
488.525	1	-4
489.718	1	5
490.910	1	-9
492.102	1	-4
493.294	1	9
494.486	1	6
495.678	1	13
496.870	1	0
498.062	1	-5
499.254	1	-8
500.446	1	3
501.638	1	1
502.829	1	-7
504.021	1	15
505.213	1	10
506.404	1	0
507.596	1	1
508.788	1	5
509.979	1	0
511.171	1	13
512.362	1	0
513.553	1	-16
514.745	1	4
515.936	1	6
517.127	1	2
518.319	1	-7
519.510	1	4
520.701	1	0
521.892	1	-8
523.083	1	1
524.274	1	-5
525.465	1	-4
526.656	1	17
527.847	1	-4
529.038	1	8
530.229	1	8
531.419	1	7
532.610	1	2
533.801	1	3
534.991	1	8
536.182	1	-3
537.373	1	-2
538.563	1	-11
539.754	1	-9
540.944	1	-10
542.134	1	2
543.325	1	-7
544.515	1	-6
545.705	1	7
546.896	1	-1
548.086	1	-4
549.276	1	3
550.466	1	-8
551.656	1	0
552.846	1	4
554.036	1	2
555.226	1	-8
556.416	1	4
557.606	1	-10
558.796	1	4
559.986	1	-6
561.175	1	-1
562.365	1	6
563.555	1	7
564.744	1	6
565.934	1	7
567.123	1	8
568.313	1	-3
569.502	1	-6
570.692	1	6
571.881	1	3
573.070	1	5
574.260	1	-8
575.449	1	9
576.638	1	-3
577.827	1	9
579.016	1	8
580.205	1	11
581.394	1	-4
582.583	1	-10
583.772	1	2
584.961	1	-2
586.150	1	7
587.339	1	6
588.528	1	-2
589.717	1	3
590.905	1	0
592.094	1	6
593.283	1	5
594.471	1	-2
595.660	1	-10
596.848	1	20
598.037	1	-1
599.225	1	1
600.413	1	3
601.602	1	-1
602.790	1	5
603.978	1	-3
605.166	1	-5
606.355	1	3
607.543	1	-8
608.731	1	-10
609.919	1	1
611.107	1	10
612.295	1	0
613.483	1	8
614.671	1	3
615.858	1	7
617.046	1	4
618.234	1	1
619.422	1	7
620.609	1	5
621.797	1	7
622.985	1	-5
624.172	1	13
625.360	1	-13
626.547	1	1
627.735	1	2
628.922	1	-6
630.109	1	-6
631.297	1	-4
632.484	1	-10
633.671	1	3
634.858	1	8
636.045	1	0
637.232	1	-4
638.419	1	6
639.606	1	13
640.793	1	1
641.980	1	-1
643.167	1	4
644.354	1	-3
645.541	1	-17
646.728	1	7
647.914	1	-1
649.101	1	0
650.288	1	-4
651.474	1	4
652.661	1	5
653.847	1	18
655.034	1	-2
656.220	1	7
657.406	1	15
658.593	1	-6
659.779	1	-16
660.965	1	3
662.152	1	-4
663.338	1	-3
664.524	1	-12
665.710	1	-3
666.896	1	-9
668.082	1	-7
669.268	1	7
670.454	1	2
671.640	1	-20
672.826	1	-11
674.011	1	-1
675.197	1	-6
676.383	1	0
677.569	1	-12
678.754	1	2
679.940	1	-3
681.125	1	0
682.311	1	8
683.496	1	-4
684.682	1	5
685.867	1	0
687.053	1	-4
688.238	1	-3
688.746	1	-1