Folder: cryo-il_analysis/Analysis/GaN_68K_200ms (part 32)

File: GaN_sample E_spot4_UVVIS_68 K_200um_200 ms 2x2mm1_748.txt
340.368	1	0
341.565	1	-4
342.763	1	-5
343.960	1	-6
345.157	1	5
346.354	1	-6
347.552	1	2
348.749	1	-3
349.946	1	7
351.143	1	-5
352.340	1	-3
353.537	1	1
354.734	1	4
355.931	1	0
357.127	1	0
358.324	1	-1
359.521	1	-4
360.718	1	-4
361.914	1	-8
363.111	1	9
364.308	1	-9
365.504	1	-2
366.701	1	-4
367.897	1	5
369.093	1	5
370.290	1	-4
371.486	1	-4
372.682	1	-3
373.879	1	6
375.075	1	8
376.271	1	3
377.467	1	-6
378.663	1	-1
379.859	1	-1
381.055	1	6
382.251	1	-8
383.447	1	4
384.643	1	2
385.839	1	4
387.035	1	-7
388.230	1	5
389.426	1	5
390.622	1	-3
391.817	1	-4
393.013	1	6
394.208	1	6
395.404	1	3
396.599	1	-4
397.795	1	0
398.990	1	6
400.186	1	4
401.381	1	8
402.576	1	6
403.771	1	-2
404.967	1	6
406.162	1	-1
407.357	1	14
408.552	1	-1
409.747	1	2
410.942	1	3
412.137	1	1
413.332	1	-2
414.526	1	5
415.721	1	-4
416.916	1	3
418.111	1	-2
419.305	1	-10
420.500	1	-2
421.695	1	-6
422.889	1	5
424.084	1	3
425.278	1	0
426.472	1	1
427.667	1	8
428.861	1	-6
430.055	1	3
431.250	1	-13
432.444	1	3
433.638	1	3
434.832	1	-8
436.026	1	7
437.220	1	8
438.414	1	-8
439.608	1	-2
440.802	1	4
441.996	1	-2
443.190	1	-7
444.384	1	5
445.578	1	9
446.771	1	-6
447.965	1	-1
449.159	1	-2
450.352	1	10
451.546	1	1
452.739	1	0
453.933	1	8
455.126	1	6
456.320	1	2
457.513	1	2
458.706	1	9
459.899	1	8
461.093	1	-2
462.286	1	5
463.479	1	2
464.672	1	2
465.865	1	-5
467.058	1	-3
468.251	1	4
469.444	1	-2
470.637	1	8
471.830	1	9
473.023	1	-7
474.215	1	-1
475.408	1	4
476.601	1	6
477.793	1	14
478.986	1	1
480.179	1	7
481.371	1	1
482.564	1	-9
483.756	1	9
484.948	1	-7
486.141	1	-5
487.333	1	9
488.525	1	-1
489.718	1	-2
490.910	1	-7
492.102	1	-1
493.294	1	6
494.486	1	2
495.678	1	12
496.870	1	0
498.062	1	-2
499.254	1	3
500.446	1	-3
501.638	1	3
502.829	1	0
504.021	1	16
505.213	1	4
506.404	1	-1
507.596	1	8
508.788	1	2
509.979	1	1
511.171	1	19
512.362	1	1
513.553	1	-1
514.745	1	-4
515.936	1	-3
517.127	1	5
518.319	1	-10
519.510	1	-3
520.701	1	0
521.892	1	-8
523.083	1	-2
524.274	1	-1
525.465	1	6
526.656	1	17
527.847	1	-14
529.038	1	4
530.229	1	-1
531.419	1	5
532.610	1	5
533.801	1	6
534.991	1	3
536.182	1	-1
537.373	1	-5
538.563	1	8
539.754	1	-5
540.944	1	-10
542.134	1	18
543.325	1	-2
544.515	1	-5
545.705	1	5
546.896	1	8
548.086	1	4
549.276	1	14
550.466	1	-4
551.656	1	-8
552.846	1	3
554.036	1	-1
555.226	1	-6
556.416	1	1
557.606	1	-9
558.796	1	-4
559.986	1	-11
561.175	1	-10
562.365	1	3
563.555	1	-1
564.744	1	1
565.934	1	9
567.123	1	21
568.313	1	-2
569.502	1	-2
570.692	1	-5
571.881	1	6
573.070	1	11
574.260	1	-2
575.449	1	3
576.638	1	-4
577.827	1	15
579.016	1	8
580.205	1	1
581.394	1	0
582.583	1	-9
583.772	1	-5
584.961	1	-3
586.150	1	-1
587.339	1	5
588.528	1	4
589.717	1	-7
590.905	1	11
592.094	1	-1
593.283	1	8
594.471	1	7
595.660	1	-5
596.848	1	8
598.037	1	2
599.225	1	0
600.413	1	-4
601.602	1	1
602.790	1	4
603.978	1	1
605.166	1	-10
606.355	1	-2
607.543	1	-12
608.731	1	2
609.919	1	-13
611.107	1	-3
612.295	1	1
613.483	1	4
614.671	1	4
615.858	1	5
617.046	1	2
618.234	1	-4
619.422	1	4
620.609	1	9
621.797	1	1
622.985	1	2
624.172	1	7
625.360	1	-3
626.547	1	8
627.735	1	-1
628.922	1	-4
630.109	1	-4
631.297	1	-10
632.484	1	-6
633.671	1	-12
634.858	1	4
636.045	1	3
637.232	1	1
638.419	1	7
639.606	1	14
640.793	1	2
641.980	1	-5
643.167	1	8
644.354	1	-2
645.541	1	-8
646.728	1	7
647.914	1	-7
649.101	1	6
650.288	1	7
651.474	1	2
652.661	1	3
653.847	1	10
655.034	1	-1
656.220	1	-5
657.406	1	9
658.593	1	-6
659.779	1	-5
660.965	1	-1
662.152	1	0
663.338	1	-1
664.524	1	-4
665.710	1	-6
666.896	1	-3
668.082	1	1
669.268	1	3
670.454	1	5
671.640	1	-13
672.826	1	-16
674.011	1	13
675.197	1	-12
676.383	1	-7
677.569	1	-14
678.754	1	-6
679.940	1	-2
681.125	1	7
682.311	1	5
683.496	1	-6
684.682	1	5
685.867	1	-4
687.053	1	0
688.238	1	-3
688.746	1	-3

File: GaN_sample E_spot4_UVVIS_68 K_200um_200 ms 2x2mm1_752.txt
340.368	1	-7
341.565	1	-4
342.763	1	-8
343.960	1	-5
345.157	1	6
346.354	1	-1
347.552	1	1
348.749	1	0
349.946	1	-1
351.143	1	-6
352.340	1	-2
353.537	1	-5
354.734	1	-2
355.931	1	4
357.127	1	8
358.324	1	-3
359.521	1	-3
360.718	1	-3
361.914	1	-2
363.111	1	10
364.308	1	-3
365.504	1	-7
366.701	1	-14
367.897	1	1
369.093	1	7
370.290	1	-10
371.486	1	7
372.682	1	2
373.879	1	6
375.075	1	2
376.271	1	-4
377.467	1	0
378.663	1	-1
379.859	1	-8
381.055	1	-5
382.251	1	0
383.447	1	9
384.643	1	-6
385.839	1	3
387.035	1	1
388.230	1	0
389.426	1	4
390.622	1	-2
391.817	1	-6
393.013	1	7
394.208	1	4
395.404	1	2
396.599	1	4
397.795	1	6
398.990	1	4
400.186	1	11
401.381	1	6
402.576	1	9
403.771	1	-1
404.967	1	5
406.162	1	1
407.357	1	6
408.552	1	-1
409.747	1	-4
410.942	1	3
412.137	1	18
413.332	1	5
414.526	1	1
415.721	1	1
416.916	1	-5
418.111	1	0
419.305	1	-5
420.500	1	0
421.695	1	-7
422.889	1	4
424.084	1	3
425.278	1	-11
426.472	1	-16
427.667	1	5
428.861	1	9
430.055	1	-10
431.250	1	-8
432.444	1	10
433.638	1	-2
434.832	1	-6
436.026	1	-4
437.220	1	11
438.414	1	5
439.608	1	-4
440.802	1	2
441.996	1	3
443.190	1	-1
444.384	1	-7
445.578	1	2
446.771	1	-1
447.965	1	-15
449.159	1	-11
450.352	1	9
451.546	1	3
452.739	1	-6
453.933	1	10
455.126	1	5
456.320	1	0
457.513	1	0
458.706	1	-1
459.899	1	15
461.093	1	1
462.286	1	13
463.479	1	17
464.672	1	-4
465.865	1	-6
467.058	1	16
468.251	1	-1
469.444	1	-4
470.637	1	13
471.830	1	12
473.023	1	-6
474.215	1	-2
475.408	1	4
476.601	1	-9
477.793	1	5
478.986	1	-5
480.179	1	3
481.371	1	0
482.564	1	-6
483.756	1	2
484.948	1	1
486.141	1	-7
487.333	1	1
488.525	1	-8
489.718	1	-10
490.910	1	-7
492.102	1	-7
493.294	1	9
494.486	1	10
495.678	1	7
496.870	1	7
498.062	1	1
499.254	1	0
500.446	1	1
501.638	1	-2
502.829	1	8
504.021	1	12
505.213	1	2
506.404	1	-9
507.596	1	7
508.788	1	4
509.979	1	2
511.171	1	6
512.362	1	-6
513.553	1	-3
514.745	1	-5
515.936	1	4
517.127	1	6
518.319	1	-9
519.510	1	1
520.701	1	-7
521.892	1	-10
523.083	1	-2
524.274	1	0
525.465	1	-6
526.656	1	12
527.847	1	-4
529.038	1	3
530.229	1	4
531.419	1	4
532.610	1	4
533.801	1	-1
534.991	1	2
536.182	1	0
537.373	1	-4
538.563	1	3
539.754	1	0
540.944	1	0
542.134	1	6
543.325	1	-13
544.515	1	-4
545.705	1	1
546.896	1	2
548.086	1	1
549.276	1	3
550.466	1	0
551.656	1	-12
552.846	1	3
554.036	1	6
555.226	1	-5
556.416	1	3
557.606	1	-11
558.796	1	-9
559.986	1	0
561.175	1	6
562.365	1	8
563.555	1	9
564.744	1	6
565.934	1	11
567.123	1	8
568.313	1	-14
569.502	1	2
570.692	1	8
571.881	1	3
573.070	1	11
574.260	1	-8
575.449	1	-2
576.638	1	1
577.827	1	0
579.016	1	8
580.205	1	2
581.394	1	2
582.583	1	-2
583.772	1	4
584.961	1	4
586.150	1	2
587.339	1	1
588.528	1	2
589.717	1	0
590.905	1	-4
592.094	1	2
593.283	1	-2
594.471	1	12
595.660	1	-4
596.848	1	0
598.037	1	0
599.225	1	-1
600.413	1	-6
601.602	1	11
602.790	1	-4
603.978	1	1
605.166	1	-3
606.355	1	16
607.543	1	-3
608.731	1	-8
609.919	1	0
611.107	1	5
612.295	1	1
613.483	1	7
614.671	1	1
615.858	1	7
617.046	1	7
618.234	1	5
619.422	1	-4
620.609	1	2
621.797	1	-1
622.985	1	4
624.172	1	12
625.360	1	-2
626.547	1	4
627.735	1	8
628.922	1	3
630.109	1	-5
631.297	1	0
632.484	1	-1
633.671	1	-6
634.858	1	8
636.045	1	-11
637.232	1	-11
638.419	1	9
639.606	1	12
640.793	1	5
641.980	1	-10
643.167	1	11
644.354	1	2
645.541	1	-9
646.728	1	1
647.914	1	-6
649.101	1	3
650.288	1	-4
651.474	1	8
652.661	1	0
653.847	1	-1
655.034	1	5
656.220	1	4
657.406	1	-3
658.593	1	-12
659.779	1	-3
660.965	1	0
662.152	1	-1
663.338	1	-2
664.524	1	-15
665.710	1	-8
666.896	1	-9
668.082	1	-10
669.268	1	-1
670.454	1	1
671.640	1	-20
672.826	1	-16
674.011	1	8
675.197	1	-8
676.383	1	-1
677.569	1	-12
678.754	1	1
679.940	1	0
681.125	1	1
682.311	1	-2
683.496	1	0
684.682	1	8
685.867	1	-4
687.053	1	5
688.238	1	-1
688.746	1	3

File: GaN_sample E_spot4_UVVIS_68 K_200um_200 ms 2x2mm1_754.txt
340.368	1	-1
341.565	1	-6
342.763	1	-7
343.960	1	-4
345.157	1	-4
346.354	1	2
347.552	1	6
348.749	1	-2
349.946	1	8
351.143	1	-8
352.340	1	-6
353.537	1	1
354.734	1	0
355.931	1	5
357.127	1	5
358.324	1	1
359.521	1	3
360.718	1	-4
361.914	1	-6
363.111	1	9
364.308	1	-5
365.504	1	-2
366.701	1	-5
367.897	1	1
369.093	1	2
370.290	1	2
371.486	1	14
372.682	1	-5
373.879	1	4
375.075	1	10
376.271	1	-7
377.467	1	-3
378.663	1	-7
379.859	1	-1
381.055	1	4
382.251	1	4
383.447	1	11
384.643	1	9
385.839	1	-2
387.035	1	1
388.230	1	7
389.426	1	0
390.622	1	-8
391.817	1	6
393.013	1	9
394.208	1	1
395.404	1	1
396.599	1	3
397.795	1	0
398.990	1	2
400.186	1	13
401.381	1	2
402.576	1	12
403.771	1	1
404.967	1	3
406.162	1	-5
407.357	1	7
408.552	1	-2
409.747	1	4
410.942	1	5
412.137	1	12
413.332	1	-7
414.526	1	1
415.721	1	4
416.916	1	5
418.111	1	5
419.305	1	-1
420.500	1	-1
421.695	1	1
422.889	1	10
424.084	1	6
425.278	1	-7
426.472	1	-11
427.667	1	5
428.861	1	-4
430.055	1	-4
431.250	1	-6
432.444	1	1
433.638	1	-7
434.832	1	-5
436.026	1	-4
437.220	1	4
438.414	1	7
439.608	1	5
440.802	1	1
441.996	1	-2
443.190	1	-11
444.384	1	6
445.578	1	6
446.771	1	7
447.965	1	-7
449.159	1	-8
450.352	1	-4
451.546	1	7
452.739	1	8
453.933	1	13
455.126	1	1
456.320	1	-5
457.513	1	12
458.706	1	0
459.899	1	11
461.093	1	2
462.286	1	0
463.479	1	12
464.672	1	-1
465.865	1	4
467.058	1	8
468.251	1	-3
469.444	1	-4
470.637	1	14
471.830	1	16
473.023	1	-5
474.215	1	-9
475.408	1	3
476.601	1	6
477.793	1	1
478.986	1	7
480.179	1	5
481.371	1	-5
482.564	1	-7
483.756	1	0
484.948	1	-5
486.141	1	-7
487.333	1	3
488.525	1	3
489.718	1	-3
490.910	1	-14
492.102	1	-4
493.294	1	10
494.486	1	-4
495.678	1	11
496.870	1	7
498.062	1	-5
499.254	1	0
500.446	1	3
501.638	1	-2
502.829	1	-3
504.021	1	16
505.213	1	-1
506.404	1	-8
507.596	1	4
508.788	1	4
509.979	1	-1
511.171	1	10
512.362	1	-4
513.553	1	-6
514.745	1	8
515.936	1	-3
517.127	1	4
518.319	1	0
519.510	1	0
520.701	1	3
521.892	1	-17
523.083	1	6
524.274	1	-5
525.465	1	-4
526.656	1	10
527.847	1	-4
529.038	1	-4
530.229	1	1
531.419	1	10
532.610	1	-4
533.801	1	-3
534.991	1	0
536.182	1	-8
537.373	1	-1
538.563	1	9
539.754	1	-11
540.944	1	0
542.134	1	10
543.325	1	-4
544.515	1	9
545.705	1	2
546.896	1	-5
548.086	1	8
549.276	1	12
550.466	1	-8
551.656	1	-13
552.846	1	5
554.036	1	0
555.226	1	-12
556.416	1	0
557.606	1	-11
558.796	1	-4
559.986	1	-10
561.175	1	-1
562.365	1	-1
563.555	1	13
564.744	1	1
565.934	1	2
567.123	1	15
568.313	1	-1
569.502	1	3
570.692	1	-2
571.881	1	4
573.070	1	2
574.260	1	-7
575.449	1	6
576.638	1	10
577.827	1	6
579.016	1	10
580.205	1	-6
581.394	1	-4
582.583	1	-10
583.772	1	6
584.961	1	4
586.150	1	4
587.339	1	-4
588.528	1	-1
589.717	1	2
590.905	1	4
592.094	1	3
593.283	1	5
594.471	1	2
595.660	1	-6
596.848	1	10
598.037	1	4
599.225	1	-7
600.413	1	3
601.602	1	10
602.790	1	-8
603.978	1	2
605.166	1	-5
606.355	1	3
607.543	1	-3
608.731	1	-12
609.919	1	-9
611.107	1	8
612.295	1	1
613.483	1	0
614.671	1	6
615.858	1	-6
617.046	1	2
618.234	1	-2
619.422	1	-1
620.609	1	2
621.797	1	-5
622.985	1	3
624.172	1	6
625.360	1	-10
626.547	1	8
627.735	1	4
628.922	1	4
630.109	1	-4
631.297	1	-6
632.484	1	-7
633.671	1	0
634.858	1	4
636.045	1	1
637.232	1	-4
638.419	1	15
639.606	1	4
640.793	1	5
641.980	1	1
643.167	1	5
644.354	1	-5
645.541	1	-5
646.728	1	0
647.914	1	1
649.101	1	-2
650.288	1	-2
651.474	1	9
652.661	1	1
653.847	1	0
655.034	1	-10
656.220	1	2
657.406	1	0
658.593	1	-10
659.779	1	-5
660.965	1	1
662.152	1	-9
663.338	1	-3
664.524	1	-13
665.710	1	-8
666.896	1	-2
668.082	1	5
669.268	1	-3
670.454	1	2
671.640	1	-6
672.826	1	-20
674.011	1	4
675.197	1	-4
676.383	1	-1
677.569	1	-4
678.754	1	-8
679.940	1	-5
681.125	1	2
682.311	1	-2
683.496	1	-7
684.682	1	10
685.867	1	-1
687.053	1	-6
688.238	1	0
688.746	1	-3

File: GaN_sample E_spot4_UVVIS_68 K_200um_200 ms 2x2mm1_755.txt
340.368	1	4
341.565	1	-4
342.763	1	-6
343.960	1	-5
345.157	1	8
346.354	1	2
347.552	1	1
348.749	1	-3
349.946	1	11
351.143	1	-4
352.340	1	-1
353.537	1	1
354.734	1	-6
355.931	1	4
357.127	1	1
358.324	1	3
359.521	1	-7
360.718	1	-3
361.914	1	-9
363.111	1	3
364.308	1	-1
365.504	1	-4
366.701	1	-3
367.897	1	1
369.093	1	4
370.290	1	-1
371.486	1	9
372.682	1	-11
373.879	1	7
375.075	1	4
376.271	1	-5
377.467	1	-16
378.663	1	-5
379.859	1	-9
381.055	1	1
382.251	1	-1
383.447	1	6
384.643	1	12
385.839	1	2
387.035	1	-4
388.230	1	6
389.426	1	6
390.622	1	-5
391.817	1	2
393.013	1	16
394.208	1	0
395.404	1	9
396.599	1	6
397.795	1	3
398.990	1	11
400.186	1	10
401.381	1	-4
402.576	1	1
403.771	1	-1
404.967	1	-2
406.162	1	-4
407.357	1	-1
408.552	1	0
409.747	1	-10
410.942	1	-7
412.137	1	8
413.332	1	5
414.526	1	3
415.721	1	7
416.916	1	-8
418.111	1	-5
419.305	1	-2
420.500	1	-1
421.695	1	6
422.889	1	4
424.084	1	-2
425.278	1	-8
426.472	1	-5
427.667	1	2
428.861	1	1
430.055	1	-7
431.250	1	-3
432.444	1	7
433.638	1	7
434.832	1	5
436.026	1	3
437.220	1	9
438.414	1	11
439.608	1	-3
440.802	1	11
441.996	1	2
443.190	1	-7
444.384	1	0
445.578	1	3
446.771	1	5
447.965	1	-12
449.159	1	-8
450.352	1	4
451.546	1	0
452.739	1	-1
453.933	1	4
455.126	1	1
456.320	1	-5
457.513	1	7
458.706	1	-1
459.899	1	2
461.093	1	7
462.286	1	2
463.479	1	6
464.672	1	4
465.865	1	-2
467.058	1	6
468.251	1	3
469.444	1	-2
470.637	1	9
471.830	1	21
473.023	1	-6
474.215	1	0
475.408	1	-1
476.601	1	-8
477.793	1	14
478.986	1	-1
480.179	1	9
481.371	1	9
482.564	1	-12
483.756	1	0
484.948	1	-10
486.141	1	-9
487.333	1	2
488.525	1	0
489.718	1	-6
490.910	1	0
492.102	1	-5
493.294	1	9
494.486	1	4
495.678	1	3
496.870	1	1
498.062	1	-5
499.254	1	0
500.446	1	11
501.638	1	7
502.829	1	4
504.021	1	14
505.213	1	5
506.404	1	0
507.596	1	5
508.788	1	-4
509.979	1	0
511.171	1	13
512.362	1	-2
513.553	1	-9
514.745	1	0
515.936	1	5
517.127	1	-5
518.319	1	-1
519.510	1	-9
520.701	1	-3
521.892	1	-9
523.083	1	-9
524.274	1	-6
525.465	1	-8
526.656	1	27
527.847	1	-11
529.038	1	-4
530.229	1	-3
531.419	1	9
532.610	1	-5
533.801	1	0
534.991	1	1
536.182	1	-5
537.373	1	-1
538.563	1	2
539.754	1	-6
540.944	1	-9
542.134	1	7
543.325	1	3
544.515	1	-1
545.705	1	6
546.896	1	3
548.086	1	6
549.276	1	3
550.466	1	-9
551.656	1	-11
552.846	1	5
554.036	1	3
555.226	1	-11
556.416	1	3
557.606	1	-11
558.796	1	-8
559.986	1	-5
561.175	1	1
562.365	1	5
563.555	1	3
564.744	1	7
565.934	1	5
567.123	1	19
568.313	1	6
569.502	1	-3
570.692	1	-2
571.881	1	0
573.070	1	14
574.260	1	-5
575.449	1	0
576.638	1	-8
577.827	1	1
579.016	1	10
580.205	1	-2
581.394	1	-2
582.583	1	-12
583.772	1	0
584.961	1	6
586.150	1	-5
587.339	1	2
588.528	1	-4
589.717	1	-1
590.905	1	8
592.094	1	3
593.283	1	0
594.471	1	-4
595.660	1	0
596.848	1	-3
598.037	1	-4
599.225	1	-7
600.413	1	-5
601.602	1	8
602.790	1	4
603.978	1	7
605.166	1	1
606.355	1	7
607.543	1	-10
608.731	1	-7
609.919	1	-9
611.107	1	9
612.295	1	-1
613.483	1	7
614.671	1	8
615.858	1	-3
617.046	1	1
618.234	1	3
619.422	1	-2
620.609	1	-3
621.797	1	-1
622.985	1	-2
624.172	1	17
625.360	1	-10
626.547	1	1
627.735	1	-6
628.922	1	1
630.109	1	-8
631.297	1	-1
632.484	1	-4
633.671	1	0
634.858	1	-2
636.045	1	7
637.232	1	-6
638.419	1	6
639.606	1	12
640.793	1	4
641.980	1	-1
643.167	1	13
644.354	1	0
645.541	1	-7
646.728	1	-5
647.914	1	-4
649.101	1	0
650.288	1	-2
651.474	1	4
652.661	1	3
653.847	1	1
655.034	1	-1
656.220	1	6
657.406	1	4
658.593	1	-7
659.779	1	-1
660.965	1	-12
662.152	1	-3
663.338	1	-7
664.524	1	-9
665.710	1	3
666.896	1	3
668.082	1	-8
669.268	1	2
670.454	1	-1
671.640	1	-10
672.826	1	-12
674.011	1	6
675.197	1	-4
676.383	1	1
677.569	1	-14
678.754	1	-2
679.940	1	2
681.125	1	7
682.311	1	2
683.496	1	-11
684.682	1	6
685.867	1	5
687.053	1	4
688.238	1	0
688.746	1	2

File: GaN_sample E_spot4_UVVIS_68 K_200um_200 ms 2x2mm1_759.txt
340.368	1	9
341.565	1	-4
342.763	1	-2
343.960	1	-3
345.157	1	3
346.354	1	0
347.552	1	-8
348.749	1	4
349.946	1	9
351.143	1	-7
352.340	1	-1
353.537	1	-3
354.734	1	-2
355.931	1	-3
357.127	1	12
358.324	1	-5
359.521	1	-7
360.718	1	1
361.914	1	2
363.111	1	4
364.308	1	-10
365.504	1	1
366.701	1	-7
367.897	1	1
369.093	1	2
370.290	1	2
371.486	1	5
372.682	1	1
373.879	1	16
375.075	1	15
376.271	1	-6
377.467	1	-2
378.663	1	-10
379.859	1	-4
381.055	1	0
382.251	1	-2
383.447	1	7
384.643	1	6
385.839	1	4
387.035	1	3
388.230	1	6
389.426	1	9
390.622	1	-3
391.817	1	9
393.013	1	-1
394.208	1	12
395.404	1	8
396.599	1	7
397.795	1	8
398.990	1	8
400.186	1	13
401.381	1	-1
402.576	1	5
403.771	1	7
404.967	1	2
406.162	1	-1
407.357	1	-1
408.552	1	11
409.747	1	-5
410.942	1	-1
412.137	1	8
413.332	1	-5
414.526	1	12
415.721	1	0
416.916	1	8
418.111	1	-3
419.305	1	2
420.500	1	0
421.695	1	1
422.889	1	-9
424.084	1	1
425.278	1	1
426.472	1	-2
427.667	1	16
428.861	1	2
430.055	1	2
431.250	1	-13
432.444	1	8
433.638	1	8
434.832	1	1
436.026	1	9
437.220	1	5
438.414	1	-4
439.608	1	6
440.802	1	0
441.996	1	4
443.190	1	-5
444.384	1	7
445.578	1	7
446.771	1	10
447.965	1	-10
449.159	1	-4
450.352	1	6
451.546	1	-3
452.739	1	-3
453.933	1	7
455.126	1	2
456.320	1	-1
457.513	1	-2
458.706	1	1
459.899	1	10
461.093	1	6
462.286	1	10
463.479	1	7
464.672	1	0
465.865	1	-8
467.058	1	15
468.251	1	0
469.444	1	-9
470.637	1	10
471.830	1	12
473.023	1	-10
474.215	1	1
475.408	1	-2
476.601	1	1
477.793	1	0
478.986	1	2
480.179	1	-5
481.371	1	-2
482.564	1	-4
483.756	1	-2
484.948	1	-2
486.141	1	-1
487.333	1	3
488.525	1	-7
489.718	1	-14
490.910	1	-5
492.102	1	4
493.294	1	11
494.486	1	6
495.678	1	-2
496.870	1	3
498.062	1	-1
499.254	1	-2
500.446	1	11
501.638	1	7
502.829	1	-2
504.021	1	14
505.213	1	-4
506.404	1	-11
507.596	1	1
508.788	1	-4
509.979	1	-3
511.171	1	13
512.362	1	3
513.553	1	-8
514.745	1	-2
515.936	1	8
517.127	1	-3
518.319	1	6
519.510	1	-10
520.701	1	5
521.892	1	-22
523.083	1	-7
524.274	1	1
525.465	1	-6
526.656	1	11
527.847	1	-8
529.038	1	7
530.229	1	2
531.419	1	-2
532.610	1	6
533.801	1	-1
534.991	1	-2
536.182	1	7
537.373	1	-9
538.563	1	9
539.754	1	-5
540.944	1	-2
542.134	1	10
543.325	1	-9
544.515	1	-3
545.705	1	1
546.896	1	2
548.086	1	-2
549.276	1	2
550.466	1	-5
551.656	1	-7
552.846	1	1
554.036	1	-2
555.226	1	-10
556.416	1	2
557.606	1	-12
558.796	1	1
559.986	1	-8
561.175	1	-2
562.365	1	5
563.555	1	0
564.744	1	7
565.934	1	9
567.123	1	16
568.313	1	-1
569.502	1	0
570.692	1	-1
571.881	1	11
573.070	1	5
574.260	1	-7
575.449	1	-2
576.638	1	6
577.827	1	-1
579.016	1	8
580.205	1	0
581.394	1	1
582.583	1	-12
583.772	1	0
584.961	1	7
586.150	1	-1
587.339	1	6
588.528	1	2
589.717	1	-6
590.905	1	7
592.094	1	3
593.283	1	7
594.471	1	-2
595.660	1	0
596.848	1	9
598.037	1	-2
599.225	1	-4
600.413	1	0
601.602	1	3
602.790	1	6
603.978	1	0
605.166	1	-6
606.355	1	5
607.543	1	-7
608.731	1	-3
609.919	1	-4
611.107	1	8
612.295	1	1
613.483	1	3
614.671	1	2
615.858	1	8
617.046	1	-1
618.234	1	-11
619.422	1	5
620.609	1	0
621.797	1	-6
622.985	1	2
624.172	1	15
625.360	1	-6
626.547	1	-2
627.735	1	8
628.922	1	-1
630.109	1	-3
631.297	1	-8
632.484	1	-9
633.671	1	5
634.858	1	6
636.045	1	3
637.232	1	-1
638.419	1	8
639.606	1	12
640.793	1	4
641.980	1	-4
643.167	1	11
644.354	1	-6
645.541	1	-5
646.728	1	6
647.914	1	0
649.101	1	0
650.288	1	-3
651.474	1	4
652.661	1	-2
653.847	1	4
655.034	1	2
656.220	1	8
657.406	1	-7
658.593	1	-16
659.779	1	4
660.965	1	-1
662.152	1	-1
663.338	1	-11
664.524	1	-3
665.710	1	-9
666.896	1	1
668.082	1	-7
669.268	1	7
670.454	1	-1
671.640	1	-13
672.826	1	-15
674.011	1	-5
675.197	1	-8
676.383	1	-8
677.569	1	-4
678.754	1	-8
679.940	1	4
681.125	1	5
682.311	1	4
683.496	1	-4
684.682	1	10
685.867	1	10
687.053	1	-7
688.238	1	-1
688.746	1	-3

File: GaN_sample E_spot4_UVVIS_68 K_200um_200 ms 2x2mm1_760.txt
340.368	1	6
341.565	1	-6
342.763	1	10
343.960	1	-10
345.157	1	7
346.354	1	4
347.552	1	8
348.749	1	2
349.946	1	0
351.143	1	-9
352.340	1	-1
353.537	1	2
354.734	1	5
355.931	1	2
357.127	1	7
358.324	1	2
359.521	1	-3
360.718	1	-1
361.914	1	0
363.111	1	5
364.308	1	-4
365.504	1	-9
366.701	1	-8
367.897	1	1
369.093	1	6
370.290	1	-9
371.486	1	8
372.682	1	-2
373.879	1	8
375.075	1	2
376.271	1	-3
377.467	1	4
378.663	1	-7
379.859	1	-9
381.055	1	-9
382.251	1	-3
383.447	1	9
384.643	1	0
385.839	1	1
387.035	1	-3
388.230	1	-1
389.426	1	-1
390.622	1	-4
391.817	1	3
393.013	1	2
394.208	1	6
395.404	1	-2
396.599	1	-2
397.795	1	4
398.990	1	5
400.186	1	5
401.381	1	-5
402.576	1	1
403.771	1	4
404.967	1	2
406.162	1	-2
407.357	1	-1
408.552	1	5
409.747	1	-5
410.942	1	-2
412.137	1	2
413.332	1	-8
414.526	1	6
415.721	1	-2
416.916	1	-4
418.111	1	-3
419.305	1	-1
420.500	1	9
421.695	1	-1
422.889	1	5
424.084	1	-1
425.278	1	-16
426.472	1	-15
427.667	1	13
428.861	1	-2
430.055	1	-4
431.250	1	-9
432.444	1	10
433.638	1	3
434.832	1	-11
436.026	1	6
437.220	1	6
438.414	1	-2
439.608	1	2
440.802	1	-4
441.996	1	-5
443.190	1	-10
444.384	1	5
445.578	1	-3
446.771	1	-12
447.965	1	-4
449.159	1	-4
450.352	1	6
451.546	1	-1
452.739	1	11
453.933	1	1
455.126	1	0
456.320	1	-2
457.513	1	1
458.706	1	-1
459.899	1	7
461.093	1	1
462.286	1	-1
463.479	1	10
464.672	1	-5
465.865	1	0
467.058	1	7
468.251	1	-3
469.444	1	-1
470.637	1	10
471.830	1	19
473.023	1	-3
474.215	1	0
475.408	1	1
476.601	1	5
477.793	1	4
478.986	1	-6
480.179	1	-2
481.371	1	3
482.564	1	-7
483.756	1	10
484.948	1	-1
486.141	1	-5
487.333	1	5
488.525	1	-10
489.718	1	3
490.910	1	-3
492.102	1	-9
493.294	1	9
494.486	1	0
495.678	1	1
496.870	1	2
498.062	1	-8
499.254	1	3
500.446	1	4
501.638	1	12
502.829	1	2
504.021	1	10
505.213	1	-9
506.404	1	-10
507.596	1	5
508.788	1	1
509.979	1	3
511.171	1	14
512.362	1	10
513.553	1	-12
514.745	1	0
515.936	1	-2
517.127	1	-5
518.319	1	-2
519.510	1	-2
520.701	1	4
521.892	1	-8
523.083	1	-2
524.274	1	-1
525.465	1	1
526.656	1	10
527.847	1	-4
529.038	1	4
530.229	1	5
531.419	1	13
532.610	1	5
533.801	1	4
534.991	1	-13
536.182	1	0
537.373	1	2
538.563	1	-9
539.754	1	0
540.944	1	1
542.134	1	1
543.325	1	1
544.515	1	0
545.705	1	9
546.896	1	-10
548.086	1	0
549.276	1	3
550.466	1	-2
551.656	1	1
552.846	1	-4
554.036	1	7
555.226	1	-12
556.416	1	9
557.606	1	-15
558.796	1	-4
559.986	1	-3
561.175	1	-2
562.365	1	9
563.555	1	7
564.744	1	3
565.934	1	6
567.123	1	11
568.313	1	-6
569.502	1	5
570.692	1	12
571.881	1	3
573.070	1	9
574.260	1	-5
575.449	1	8
576.638	1	-2
577.827	1	6
579.016	1	12
580.205	1	0
581.394	1	-6
582.583	1	-1
583.772	1	-2
584.961	1	-2
586.150	1	-1
587.339	1	-2
588.528	1	-4
589.717	1	-5
590.905	1	2
592.094	1	0
593.283	1	0
594.471	1	5
595.660	1	-8
596.848	1	6
598.037	1	-1
599.225	1	-8
600.413	1	4
601.602	1	5
602.790	1	7
603.978	1	-6
605.166	1	-4
606.355	1	8
607.543	1	-6
608.731	1	-14
609.919	1	-3
611.107	1	7
612.295	1	2
613.483	1	0
614.671	1	-3
615.858	1	7
617.046	1	-1
618.234	1	-1
619.422	1	-2
620.609	1	-2
621.797	1	3
622.985	1	0
624.172	1	10
625.360	1	-7
626.547	1	2
627.735	1	13
628.922	1	-5
630.109	1	-2
631.297	1	-8
632.484	1	-3
633.671	1	0
634.858	1	7
636.045	1	-3
637.232	1	5
638.419	1	11
639.606	1	12
640.793	1	11
641.980	1	-6
643.167	1	9
644.354	1	0
645.541	1	-10
646.728	1	1
647.914	1	-11
649.101	1	0
650.288	1	-7
651.474	1	2
652.661	1	2
653.847	1	5
655.034	1	0
656.220	1	7
657.406	1	10
658.593	1	-5
659.779	1	-3
660.965	1	6
662.152	1	-2
663.338	1	-7
664.524	1	-9
665.710	1	-14
666.896	1	-1
668.082	1	4
669.268	1	-1
670.454	1	-2
671.640	1	-15
672.826	1	-12
674.011	1	9
675.197	1	-6
676.383	1	-2
677.569	1	-6
678.754	1	-3
679.940	1	-5
681.125	1	7
682.311	1	4
683.496	1	-3
684.682	1	11
685.867	1	1
687.053	1	-1
688.238	1	-3
688.746	1	-1