Folder: cryo-il_analysis/Analysis/GaN_68K_200ms (part 24)

File: GaN_sample E_spot4_UVVIS_68 K_200um_200 ms 2x2mm1_507.txt
340.368	1	3
341.565	1	-6
342.763	1	-9
343.960	1	-1
345.157	1	-2
346.354	1	-2
347.552	1	5
348.749	1	1
349.946	1	6
351.143	1	-7
352.340	1	-12
353.537	1	3
354.734	1	4
355.931	1	0
357.127	1	-1
358.324	1	-5
359.521	1	2
360.718	1	0
361.914	1	-3
363.111	1	15
364.308	1	-5
365.504	1	1
366.701	1	-7
367.897	1	8
369.093	1	-1
370.290	1	-8
371.486	1	13
372.682	1	3
373.879	1	10
375.075	1	9
376.271	1	-2
377.467	1	4
378.663	1	-4
379.859	1	1
381.055	1	-4
382.251	1	11
383.447	1	12
384.643	1	-2
385.839	1	11
387.035	1	-6
388.230	1	4
389.426	1	6
390.622	1	3
391.817	1	5
393.013	1	12
394.208	1	12
395.404	1	14
396.599	1	1
397.795	1	14
398.990	1	3
400.186	1	18
401.381	1	12
402.576	1	10
403.771	1	7
404.967	1	2
406.162	1	-2
407.357	1	3
408.552	1	7
409.747	1	-10
410.942	1	1
412.137	1	8
413.332	1	-6
414.526	1	10
415.721	1	2
416.916	1	2
418.111	1	-1
419.305	1	0
420.500	1	1
421.695	1	7
422.889	1	7
424.084	1	-1
425.278	1	3
426.472	1	-3
427.667	1	4
428.861	1	4
430.055	1	4
431.250	1	-5
432.444	1	3
433.638	1	-4
434.832	1	2
436.026	1	11
437.220	1	4
438.414	1	-6
439.608	1	2
440.802	1	0
441.996	1	7
443.190	1	-9
444.384	1	-1
445.578	1	5
446.771	1	3
447.965	1	-12
449.159	1	-3
450.352	1	13
451.546	1	8
452.739	1	7
453.933	1	7
455.126	1	-2
456.320	1	2
457.513	1	8
458.706	1	-3
459.899	1	8
461.093	1	5
462.286	1	19
463.479	1	9
464.672	1	-1
465.865	1	-3
467.058	1	15
468.251	1	-5
469.444	1	-4
470.637	1	9
471.830	1	12
473.023	1	-12
474.215	1	4
475.408	1	7
476.601	1	-5
477.793	1	8
478.986	1	2
480.179	1	13
481.371	1	2
482.564	1	-5
483.756	1	9
484.948	1	-9
486.141	1	-1
487.333	1	8
488.525	1	-3
489.718	1	-1
490.910	1	-6
492.102	1	-7
493.294	1	6
494.486	1	10
495.678	1	5
496.870	1	12
498.062	1	5
499.254	1	-1
500.446	1	8
501.638	1	2
502.829	1	1
504.021	1	14
505.213	1	7
506.404	1	-2
507.596	1	-1
508.788	1	4
509.979	1	-2
511.171	1	10
512.362	1	1
513.553	1	-7
514.745	1	2
515.936	1	0
517.127	1	3
518.319	1	1
519.510	1	0
520.701	1	9
521.892	1	-17
523.083	1	-2
524.274	1	-8
525.465	1	1
526.656	1	10
527.847	1	-5
529.038	1	8
530.229	1	-2
531.419	1	7
532.610	1	1
533.801	1	7
534.991	1	6
536.182	1	-3
537.373	1	1
538.563	1	-1
539.754	1	-7
540.944	1	3
542.134	1	1
543.325	1	-1
544.515	1	5
545.705	1	4
546.896	1	2
548.086	1	9
549.276	1	1
550.466	1	-5
551.656	1	-1
552.846	1	4
554.036	1	13
555.226	1	-8
556.416	1	-8
557.606	1	-5
558.796	1	3
559.986	1	1
561.175	1	-4
562.365	1	4
563.555	1	19
564.744	1	14
565.934	1	6
567.123	1	11
568.313	1	-3
569.502	1	-2
570.692	1	1
571.881	1	10
573.070	1	2
574.260	1	-4
575.449	1	5
576.638	1	4
577.827	1	10
579.016	1	19
580.205	1	5
581.394	1	2
582.583	1	-9
583.772	1	2
584.961	1	4
586.150	1	8
587.339	1	2
588.528	1	8
589.717	1	6
590.905	1	9
592.094	1	-8
593.283	1	1
594.471	1	0
595.660	1	0
596.848	1	2
598.037	1	0
599.225	1	3
600.413	1	1
601.602	1	6
602.790	1	3
603.978	1	4
605.166	1	2
606.355	1	6
607.543	1	-3
608.731	1	-2
609.919	1	-7
611.107	1	15
612.295	1	10
613.483	1	7
614.671	1	1
615.858	1	3
617.046	1	3
618.234	1	3
619.422	1	-2
620.609	1	1
621.797	1	0
622.985	1	2
624.172	1	13
625.360	1	-13
626.547	1	9
627.735	1	3
628.922	1	0
630.109	1	-8
631.297	1	-2
632.484	1	-4
633.671	1	1
634.858	1	15
636.045	1	7
637.232	1	-2
638.419	1	11
639.606	1	8
640.793	1	14
641.980	1	-4
643.167	1	16
644.354	1	0
645.541	1	-5
646.728	1	5
647.914	1	-4
649.101	1	7
650.288	1	-3
651.474	1	6
652.661	1	5
653.847	1	3
655.034	1	0
656.220	1	-6
657.406	1	4
658.593	1	-5
659.779	1	3
660.965	1	-4
662.152	1	6
663.338	1	-2
664.524	1	-10
665.710	1	4
666.896	1	4
668.082	1	0
669.268	1	6
670.454	1	3
671.640	1	-13
672.826	1	-8
674.011	1	6
675.197	1	-1
676.383	1	1
677.569	1	1
678.754	1	12
679.940	1	0
681.125	1	7
682.311	1	3
683.496	1	1
684.682	1	4
685.867	1	3
687.053	1	9
688.238	1	-1
688.746	1	2

File: GaN_sample E_spot4_UVVIS_68 K_200um_200 ms 2x2mm1_510.txt
340.368	1	4
341.565	1	0
342.763	1	-11
343.960	1	-10
345.157	1	11
346.354	1	-1
347.552	1	4
348.749	1	7
349.946	1	8
351.143	1	-8
352.340	1	-14
353.537	1	-1
354.734	1	-3
355.931	1	-5
357.127	1	-3
358.324	1	2
359.521	1	5
360.718	1	5
361.914	1	-4
363.111	1	9
364.308	1	1
365.504	1	-2
366.701	1	-9
367.897	1	4
369.093	1	-2
370.290	1	-1
371.486	1	7
372.682	1	-2
373.879	1	9
375.075	1	14
376.271	1	-3
377.467	1	6
378.663	1	-2
379.859	1	-10
381.055	1	0
382.251	1	1
383.447	1	4
384.643	1	12
385.839	1	5
387.035	1	5
388.230	1	6
389.426	1	9
390.622	1	-2
391.817	1	2
393.013	1	10
394.208	1	11
395.404	1	18
396.599	1	12
397.795	1	10
398.990	1	8
400.186	1	10
401.381	1	10
402.576	1	12
403.771	1	-5
404.967	1	7
406.162	1	3
407.357	1	-1
408.552	1	10
409.747	1	-1
410.942	1	-4
412.137	1	3
413.332	1	5
414.526	1	6
415.721	1	4
416.916	1	-9
418.111	1	-1
419.305	1	1
420.500	1	8
421.695	1	4
422.889	1	4
424.084	1	7
425.278	1	-8
426.472	1	-6
427.667	1	11
428.861	1	3
430.055	1	4
431.250	1	-9
432.444	1	5
433.638	1	-4
434.832	1	0
436.026	1	-2
437.220	1	10
438.414	1	9
439.608	1	4
440.802	1	2
441.996	1	-9
443.190	1	-11
444.384	1	-2
445.578	1	14
446.771	1	-3
447.965	1	-3
449.159	1	1
450.352	1	5
451.546	1	3
452.739	1	-4
453.933	1	4
455.126	1	3
456.320	1	0
457.513	1	-2
458.706	1	2
459.899	1	6
461.093	1	2
462.286	1	6
463.479	1	15
464.672	1	-3
465.865	1	-5
467.058	1	12
468.251	1	-5
469.444	1	0
470.637	1	3
471.830	1	12
473.023	1	-8
474.215	1	4
475.408	1	7
476.601	1	-5
477.793	1	5
478.986	1	-2
480.179	1	1
481.371	1	1
482.564	1	2
483.756	1	11
484.948	1	0
486.141	1	-5
487.333	1	5
488.525	1	0
489.718	1	-3
490.910	1	3
492.102	1	-4
493.294	1	8
494.486	1	9
495.678	1	-5
496.870	1	1
498.062	1	-1
499.254	1	-2
500.446	1	2
501.638	1	3
502.829	1	3
504.021	1	11
505.213	1	0
506.404	1	-6
507.596	1	7
508.788	1	5
509.979	1	2
511.171	1	7
512.362	1	-2
513.553	1	-6
514.745	1	0
515.936	1	6
517.127	1	-2
518.319	1	3
519.510	1	9
520.701	1	6
521.892	1	-5
523.083	1	3
524.274	1	-3
525.465	1	3
526.656	1	17
527.847	1	-12
529.038	1	9
530.229	1	12
531.419	1	11
532.610	1	9
533.801	1	5
534.991	1	10
536.182	1	-1
537.373	1	2
538.563	1	4
539.754	1	-7
540.944	1	3
542.134	1	5
543.325	1	3
544.515	1	-1
545.705	1	10
546.896	1	2
548.086	1	-2
549.276	1	4
550.466	1	0
551.656	1	-8
552.846	1	-1
554.036	1	1
555.226	1	-4
556.416	1	-1
557.606	1	-12
558.796	1	2
559.986	1	-2
561.175	1	0
562.365	1	-1
563.555	1	23
564.744	1	9
565.934	1	1
567.123	1	20
568.313	1	-9
569.502	1	-5
570.692	1	2
571.881	1	3
573.070	1	6
574.260	1	-3
575.449	1	11
576.638	1	-4
577.827	1	-1
579.016	1	18
580.205	1	2
581.394	1	-3
582.583	1	-9
583.772	1	6
584.961	1	6
586.150	1	2
587.339	1	1
588.528	1	-1
589.717	1	1
590.905	1	0
592.094	1	-5
593.283	1	6
594.471	1	0
595.660	1	-1
596.848	1	-1
598.037	1	6
599.225	1	4
600.413	1	4
601.602	1	10
602.790	1	3
603.978	1	-5
605.166	1	8
606.355	1	11
607.543	1	-2
608.731	1	-13
609.919	1	-7
611.107	1	0
612.295	1	0
613.483	1	13
614.671	1	-1
615.858	1	3
617.046	1	7
618.234	1	3
619.422	1	6
620.609	1	3
621.797	1	1
622.985	1	-9
624.172	1	11
625.360	1	-2
626.547	1	3
627.735	1	7
628.922	1	-3
630.109	1	-7
631.297	1	6
632.484	1	-2
633.671	1	1
634.858	1	7
636.045	1	7
637.232	1	-5
638.419	1	4
639.606	1	6
640.793	1	9
641.980	1	-9
643.167	1	7
644.354	1	0
645.541	1	-8
646.728	1	0
647.914	1	-3
649.101	1	6
650.288	1	-5
651.474	1	2
652.661	1	3
653.847	1	10
655.034	1	-10
656.220	1	7
657.406	1	1
658.593	1	-7
659.779	1	-5
660.965	1	2
662.152	1	3
663.338	1	-3
664.524	1	-2
665.710	1	-6
666.896	1	2
668.082	1	-14
669.268	1	0
670.454	1	18
671.640	1	-9
672.826	1	-14
674.011	1	11
675.197	1	7
676.383	1	5
677.569	1	-2
678.754	1	-8
679.940	1	-5
681.125	1	6
682.311	1	-4
683.496	1	-7
684.682	1	4
685.867	1	2
687.053	1	5
688.238	1	-1
688.746	1	1

File: GaN_sample E_spot4_UVVIS_68 K_200um_200 ms 2x2mm1_511.txt
340.368	1	-4
341.565	1	-5
342.763	1	9
343.960	1	-5
345.157	1	3
346.354	1	-12
347.552	1	0
348.749	1	5
349.946	1	13
351.143	1	-1
352.340	1	-2
353.537	1	-7
354.734	1	7
355.931	1	-1
357.127	1	3
358.324	1	-10
359.521	1	-9
360.718	1	-4
361.914	1	-5
363.111	1	8
364.308	1	6
365.504	1	-6
366.701	1	-3
367.897	1	-8
369.093	1	-5
370.290	1	-8
371.486	1	6
372.682	1	-2
373.879	1	16
375.075	1	7
376.271	1	2
377.467	1	-11
378.663	1	-4
379.859	1	-5
381.055	1	6
382.251	1	7
383.447	1	3
384.643	1	13
385.839	1	11
387.035	1	-12
388.230	1	-4
389.426	1	13
390.622	1	-7
391.817	1	10
393.013	1	7
394.208	1	-2
395.404	1	4
396.599	1	1
397.795	1	7
398.990	1	2
400.186	1	9
401.381	1	11
402.576	1	13
403.771	1	4
404.967	1	6
406.162	1	-6
407.357	1	1
408.552	1	3
409.747	1	3
410.942	1	0
412.137	1	6
413.332	1	5
414.526	1	9
415.721	1	-1
416.916	1	2
418.111	1	3
419.305	1	-4
420.500	1	3
421.695	1	10
422.889	1	6
424.084	1	4
425.278	1	-3
426.472	1	-2
427.667	1	15
428.861	1	11
430.055	1	7
431.250	1	-5
432.444	1	0
433.638	1	4
434.832	1	-9
436.026	1	0
437.220	1	11
438.414	1	0
439.608	1	-3
440.802	1	13
441.996	1	4
443.190	1	-5
444.384	1	1
445.578	1	2
446.771	1	-7
447.965	1	0
449.159	1	-3
450.352	1	9
451.546	1	2
452.739	1	8
453.933	1	9
455.126	1	2
456.320	1	-2
457.513	1	6
458.706	1	8
459.899	1	10
461.093	1	8
462.286	1	-4
463.479	1	13
464.672	1	-2
465.865	1	-5
467.058	1	22
468.251	1	3
469.444	1	-6
470.637	1	7
471.830	1	10
473.023	1	-3
474.215	1	1
475.408	1	-1
476.601	1	-1
477.793	1	13
478.986	1	-2
480.179	1	1
481.371	1	5
482.564	1	-12
483.756	1	9
484.948	1	-9
486.141	1	-11
487.333	1	-2
488.525	1	-4
489.718	1	-3
490.910	1	5
492.102	1	2
493.294	1	9
494.486	1	7
495.678	1	11
496.870	1	3
498.062	1	2
499.254	1	10
500.446	1	10
501.638	1	2
502.829	1	0
504.021	1	14
505.213	1	-3
506.404	1	-2
507.596	1	-2
508.788	1	2
509.979	1	-6
511.171	1	12
512.362	1	2
513.553	1	-6
514.745	1	-1
515.936	1	1
517.127	1	6
518.319	1	8
519.510	1	-7
520.701	1	-1
521.892	1	-13
523.083	1	6
524.274	1	-3
525.465	1	4
526.656	1	16
527.847	1	-4
529.038	1	11
530.229	1	10
531.419	1	13
532.610	1	3
533.801	1	1
534.991	1	4
536.182	1	14
537.373	1	-2
538.563	1	7
539.754	1	2
540.944	1	0
542.134	1	0
543.325	1	-9
544.515	1	-11
545.705	1	8
546.896	1	1
548.086	1	-1
549.276	1	6
550.466	1	-3
551.656	1	-6
552.846	1	3
554.036	1	-1
555.226	1	-13
556.416	1	5
557.606	1	-11
558.796	1	1
559.986	1	-3
561.175	1	-4
562.365	1	9
563.555	1	13
564.744	1	4
565.934	1	0
567.123	1	11
568.313	1	-6
569.502	1	3
570.692	1	2
571.881	1	3
573.070	1	-2
574.260	1	-3
575.449	1	-2
576.638	1	-1
577.827	1	1
579.016	1	11
580.205	1	-7
581.394	1	-3
582.583	1	-1
583.772	1	1
584.961	1	5
586.150	1	-4
587.339	1	1
588.528	1	9
589.717	1	3
590.905	1	7
592.094	1	6
593.283	1	2
594.471	1	-3
595.660	1	6
596.848	1	9
598.037	1	3
599.225	1	5
600.413	1	3
601.602	1	2
602.790	1	-2
603.978	1	2
605.166	1	-7
606.355	1	9
607.543	1	0
608.731	1	-7
609.919	1	-2
611.107	1	8
612.295	1	4
613.483	1	6
614.671	1	3
615.858	1	11
617.046	1	1
618.234	1	2
619.422	1	13
620.609	1	6
621.797	1	2
622.985	1	4
624.172	1	7
625.360	1	-3
626.547	1	-2
627.735	1	2
628.922	1	3
630.109	1	-9
631.297	1	-11
632.484	1	0
633.671	1	-7
634.858	1	0
636.045	1	5
637.232	1	0
638.419	1	-7
639.606	1	12
640.793	1	10
641.980	1	-8
643.167	1	4
644.354	1	2
645.541	1	-6
646.728	1	1
647.914	1	-3
649.101	1	7
650.288	1	-2
651.474	1	-1
652.661	1	3
653.847	1	3
655.034	1	1
656.220	1	6
657.406	1	4
658.593	1	-6
659.779	1	0
660.965	1	-1
662.152	1	-7
663.338	1	-6
664.524	1	-13
665.710	1	-2
666.896	1	-5
668.082	1	-1
669.268	1	4
670.454	1	3
671.640	1	-5
672.826	1	-17
674.011	1	3
675.197	1	-1
676.383	1	-3
677.569	1	-9
678.754	1	1
679.940	1	-2
681.125	1	7
682.311	1	2
683.496	1	-7
684.682	1	8
685.867	1	5
687.053	1	10
688.238	1	-7
688.746	1	0

File: GaN_sample E_spot4_UVVIS_68 K_200um_200 ms 2x2mm1_512.txt
340.368	1	4
341.565	1	-5
342.763	1	-9
343.960	1	2
345.157	1	6
346.354	1	2
347.552	1	-5
348.749	1	8
349.946	1	6
351.143	1	-4
352.340	1	6
353.537	1	6
354.734	1	2
355.931	1	-2
357.127	1	-7
358.324	1	4
359.521	1	-6
360.718	1	0
361.914	1	-10
363.111	1	10
364.308	1	0
365.504	1	-11
366.701	1	-11
367.897	1	3
369.093	1	3
370.290	1	-6
371.486	1	7
372.682	1	1
373.879	1	10
375.075	1	7
376.271	1	6
377.467	1	-4
378.663	1	2
379.859	1	-1
381.055	1	5
382.251	1	9
383.447	1	12
384.643	1	11
385.839	1	-1
387.035	1	0
388.230	1	2
389.426	1	7
390.622	1	4
391.817	1	0
393.013	1	5
394.208	1	10
395.404	1	4
396.599	1	7
397.795	1	2
398.990	1	5
400.186	1	0
401.381	1	20
402.576	1	7
403.771	1	-1
404.967	1	3
406.162	1	3
407.357	1	3
408.552	1	8
409.747	1	-12
410.942	1	3
412.137	1	12
413.332	1	7
414.526	1	-9
415.721	1	0
416.916	1	0
418.111	1	5
419.305	1	10
420.500	1	1
421.695	1	0
422.889	1	8
424.084	1	1
425.278	1	-5
426.472	1	0
427.667	1	8
428.861	1	13
430.055	1	4
431.250	1	-11
432.444	1	15
433.638	1	-5
434.832	1	1
436.026	1	8
437.220	1	17
438.414	1	3
439.608	1	5
440.802	1	17
441.996	1	1
443.190	1	-13
444.384	1	9
445.578	1	14
446.771	1	-8
447.965	1	-14
449.159	1	-3
450.352	1	6
451.546	1	-3
452.739	1	1
453.933	1	3
455.126	1	1
456.320	1	2
457.513	1	6
458.706	1	-3
459.899	1	16
461.093	1	2
462.286	1	6
463.479	1	6
464.672	1	-9
465.865	1	-3
467.058	1	10
468.251	1	-2
469.444	1	-1
470.637	1	16
471.830	1	16
473.023	1	-10
474.215	1	-2
475.408	1	5
476.601	1	-4
477.793	1	-2
478.986	1	-1
480.179	1	4
481.371	1	-5
482.564	1	-12
483.756	1	6
484.948	1	-5
486.141	1	-3
487.333	1	-3
488.525	1	4
489.718	1	0
490.910	1	-4
492.102	1	-4
493.294	1	2
494.486	1	6
495.678	1	10
496.870	1	-3
498.062	1	3
499.254	1	3
500.446	1	4
501.638	1	1
502.829	1	7
504.021	1	14
505.213	1	-3
506.404	1	0
507.596	1	4
508.788	1	4
509.979	1	1
511.171	1	13
512.362	1	0
513.553	1	-9
514.745	1	-3
515.936	1	7
517.127	1	-3
518.319	1	-2
519.510	1	3
520.701	1	7
521.892	1	-10
523.083	1	-3
524.274	1	9
525.465	1	4
526.656	1	10
527.847	1	4
529.038	1	8
530.229	1	7
531.419	1	3
532.610	1	2
533.801	1	6
534.991	1	0
536.182	1	5
537.373	1	-8
538.563	1	-3
539.754	1	3
540.944	1	-4
542.134	1	6
543.325	1	10
544.515	1	1
545.705	1	3
546.896	1	-1
548.086	1	11
549.276	1	7
550.466	1	-9
551.656	1	2
552.846	1	8
554.036	1	9
555.226	1	-4
556.416	1	-6
557.606	1	-4
558.796	1	7
559.986	1	2
561.175	1	-1
562.365	1	1
563.555	1	7
564.744	1	12
565.934	1	3
567.123	1	16
568.313	1	-7
569.502	1	7
570.692	1	-4
571.881	1	6
573.070	1	7
574.260	1	-5
575.449	1	7
576.638	1	1
577.827	1	-1
579.016	1	12
580.205	1	5
581.394	1	4
582.583	1	-7
583.772	1	5
584.961	1	12
586.150	1	13
587.339	1	9
588.528	1	7
589.717	1	1
590.905	1	12
592.094	1	0
593.283	1	0
594.471	1	2
595.660	1	-8
596.848	1	6
598.037	1	-6
599.225	1	2
600.413	1	-2
601.602	1	7
602.790	1	5
603.978	1	3
605.166	1	-6
606.355	1	5
607.543	1	-5
608.731	1	-5
609.919	1	-11
611.107	1	14
612.295	1	4
613.483	1	15
614.671	1	12
615.858	1	2
617.046	1	2
618.234	1	5
619.422	1	5
620.609	1	2
621.797	1	1
622.985	1	-1
624.172	1	7
625.360	1	-7
626.547	1	1
627.735	1	2
628.922	1	-3
630.109	1	-11
631.297	1	-6
632.484	1	5
633.671	1	-1
634.858	1	4
636.045	1	3
637.232	1	4
638.419	1	9
639.606	1	13
640.793	1	15
641.980	1	2
643.167	1	8
644.354	1	-3
645.541	1	-10
646.728	1	-1
647.914	1	4
649.101	1	2
650.288	1	-8
651.474	1	10
652.661	1	11
653.847	1	1
655.034	1	2
656.220	1	3
657.406	1	10
658.593	1	-2
659.779	1	-2
660.965	1	-5
662.152	1	-1
663.338	1	-6
664.524	1	-18
665.710	1	-12
666.896	1	6
668.082	1	-5
669.268	1	3
670.454	1	-6
671.640	1	-7
672.826	1	-17
674.011	1	3
675.197	1	-5
676.383	1	4
677.569	1	10
678.754	1	-1
679.940	1	5
681.125	1	2
682.311	1	2
683.496	1	-10
684.682	1	14
685.867	1	-9
687.053	1	-2
688.238	1	0
688.746	1	3

File: GaN_sample E_spot4_UVVIS_68 K_200um_200 ms 2x2mm1_514.txt
340.368	1	-3
341.565	1	-6
342.763	1	-6
343.960	1	3
345.157	1	10
346.354	1	-4
347.552	1	-7
348.749	1	-4
349.946	1	4
351.143	1	-5
352.340	1	-5
353.537	1	-3
354.734	1	1
355.931	1	4
357.127	1	7
358.324	1	0
359.521	1	5
360.718	1	0
361.914	1	5
363.111	1	8
364.308	1	-1
365.504	1	-2
366.701	1	-1
367.897	1	6
369.093	1	-3
370.290	1	4
371.486	1	7
372.682	1	-3
373.879	1	11
375.075	1	10
376.271	1	0
377.467	1	-5
378.663	1	-4
379.859	1	3
381.055	1	-2
382.251	1	4
383.447	1	11
384.643	1	7
385.839	1	9
387.035	1	-9
388.230	1	-3
389.426	1	11
390.622	1	2
391.817	1	11
393.013	1	13
394.208	1	9
395.404	1	-1
396.599	1	11
397.795	1	12
398.990	1	11
400.186	1	7
401.381	1	2
402.576	1	18
403.771	1	6
404.967	1	15
406.162	1	1
407.357	1	6
408.552	1	1
409.747	1	-6
410.942	1	1
412.137	1	19
413.332	1	5
414.526	1	-1
415.721	1	0
416.916	1	-3
418.111	1	4
419.305	1	-2
420.500	1	0
421.695	1	6
422.889	1	10
424.084	1	6
425.278	1	-4
426.472	1	-7
427.667	1	9
428.861	1	1
430.055	1	-1
431.250	1	-11
432.444	1	-5
433.638	1	5
434.832	1	4
436.026	1	6
437.220	1	10
438.414	1	-1
439.608	1	-1
440.802	1	7
441.996	1	1
443.190	1	-4
444.384	1	-1
445.578	1	11
446.771	1	1
447.965	1	-8
449.159	1	-5
450.352	1	4
451.546	1	4
452.739	1	-2
453.933	1	5
455.126	1	11
456.320	1	3
457.513	1	6
458.706	1	-6
459.899	1	15
461.093	1	6
462.286	1	2
463.479	1	2
464.672	1	-10
465.865	1	-4
467.058	1	13
468.251	1	-4
469.444	1	-6
470.637	1	17
471.830	1	11
473.023	1	-2
474.215	1	10
475.408	1	4
476.601	1	1
477.793	1	7
478.986	1	6
480.179	1	-6
481.371	1	1
482.564	1	-5
483.756	1	8
484.948	1	-2
486.141	1	-9
487.333	1	10
488.525	1	0
489.718	1	1
490.910	1	-3
492.102	1	-1
493.294	1	10
494.486	1	4
495.678	1	9
496.870	1	5
498.062	1	-3
499.254	1	4
500.446	1	4
501.638	1	-6
502.829	1	3
504.021	1	21
505.213	1	-1
506.404	1	-1
507.596	1	9
508.788	1	-2
509.979	1	3
511.171	1	2
512.362	1	-3
513.553	1	-9
514.745	1	0
515.936	1	3
517.127	1	5
518.319	1	-1
519.510	1	4
520.701	1	0
521.892	1	-5
523.083	1	1
524.274	1	1
525.465	1	-3
526.656	1	15
527.847	1	-8
529.038	1	4
530.229	1	-1
531.419	1	12
532.610	1	12
533.801	1	-2
534.991	1	2
536.182	1	3
537.373	1	6
538.563	1	4
539.754	1	0
540.944	1	-3
542.134	1	5
543.325	1	-3
544.515	1	-6
545.705	1	-2
546.896	1	-1
548.086	1	7
549.276	1	13
550.466	1	3
551.656	1	-9
552.846	1	6
554.036	1	11
555.226	1	-7
556.416	1	2
557.606	1	-6
558.796	1	-5
559.986	1	-3
561.175	1	7
562.365	1	10
563.555	1	7
564.744	1	10
565.934	1	7
567.123	1	18
568.313	1	-3
569.502	1	2
570.692	1	3
571.881	1	1
573.070	1	7
574.260	1	-10
575.449	1	12
576.638	1	3
577.827	1	1
579.016	1	13
580.205	1	4
581.394	1	-6
582.583	1	-13
583.772	1	10
584.961	1	-2
586.150	1	1
587.339	1	-1
588.528	1	-7
589.717	1	-1
590.905	1	8
592.094	1	3
593.283	1	5
594.471	1	-1
595.660	1	-9
596.848	1	1
598.037	1	2
599.225	1	2
600.413	1	0
601.602	1	10
602.790	1	-2
603.978	1	2
605.166	1	-3
606.355	1	10
607.543	1	-10
608.731	1	-14
609.919	1	-6
611.107	1	10
612.295	1	3
613.483	1	8
614.671	1	4
615.858	1	9
617.046	1	-1
618.234	1	5
619.422	1	-1
620.609	1	8
621.797	1	-2
622.985	1	9
624.172	1	9
625.360	1	2
626.547	1	0
627.735	1	1
628.922	1	2
630.109	1	-1
631.297	1	-4
632.484	1	-4
633.671	1	4
634.858	1	-1
636.045	1	6
637.232	1	1
638.419	1	13
639.606	1	26
640.793	1	1
641.980	1	-3
643.167	1	9
644.354	1	0
645.541	1	-12
646.728	1	-1
647.914	1	-5
649.101	1	8
650.288	1	-3
651.474	1	9
652.661	1	11
653.847	1	2
655.034	1	-6
656.220	1	2
657.406	1	1
658.593	1	-6
659.779	1	-10
660.965	1	-3
662.152	1	-4
663.338	1	-5
664.524	1	-7
665.710	1	-4
666.896	1	-7
668.082	1	3
669.268	1	4
670.454	1	1
671.640	1	-10
672.826	1	-19
674.011	1	13
675.197	1	-7
676.383	1	-4
677.569	1	3
678.754	1	-10
679.940	1	3
681.125	1	2
682.311	1	10
683.496	1	-11
684.682	1	12
685.867	1	5
687.053	1	2
688.238	1	1
688.746	1	5

File: GaN_sample E_spot4_UVVIS_68 K_200um_200 ms 2x2mm1_515.txt
340.368	1	0
341.565	1	-7
342.763	1	2
343.960	1	-10
345.157	1	7
346.354	1	0
347.552	1	-5
348.749	1	10
349.946	1	15
351.143	1	-10
352.340	1	0
353.537	1	4
354.734	1	2
355.931	1	1
357.127	1	3
358.324	1	-4
359.521	1	4
360.718	1	-4
361.914	1	2
363.111	1	13
364.308	1	-2
365.504	1	-4
366.701	1	-6
367.897	1	8
369.093	1	7
370.290	1	3
371.486	1	0
372.682	1	-5
373.879	1	13
375.075	1	5
376.271	1	-9
377.467	1	-5
378.663	1	2
379.859	1	-1
381.055	1	8
382.251	1	5
383.447	1	9
384.643	1	6
385.839	1	10
387.035	1	7
388.230	1	-1
389.426	1	11
390.622	1	2
391.817	1	-6
393.013	1	10
394.208	1	10
395.404	1	7
396.599	1	1
397.795	1	3
398.990	1	9
400.186	1	11
401.381	1	3
402.576	1	12
403.771	1	11
404.967	1	6
406.162	1	1
407.357	1	2
408.552	1	6
409.747	1	0
410.942	1	6
412.137	1	6
413.332	1	10
414.526	1	5
415.721	1	6
416.916	1	-9
418.111	1	3
419.305	1	3
420.500	1	7
421.695	1	-2
422.889	1	1
424.084	1	-2
425.278	1	-17
426.472	1	-2
427.667	1	-2
428.861	1	5
430.055	1	6
431.250	1	-6
432.444	1	6
433.638	1	1
434.832	1	2
436.026	1	0
437.220	1	1
438.414	1	0
439.608	1	10
440.802	1	4
441.996	1	3
443.190	1	-14
444.384	1	8
445.578	1	11
446.771	1	2
447.965	1	-7
449.159	1	-6
450.352	1	-5
451.546	1	7
452.739	1	8
453.933	1	1
455.126	1	-8
456.320	1	3
457.513	1	6
458.706	1	0
459.899	1	6
461.093	1	13
462.286	1	14
463.479	1	12
464.672	1	-2
465.865	1	1
467.058	1	14
468.251	1	-6
469.444	1	5
470.637	1	10
471.830	1	15
473.023	1	-8
474.215	1	-2
475.408	1	-3
476.601	1	1
477.793	1	5
478.986	1	-1
480.179	1	-3
481.371	1	8
482.564	1	-17
483.756	1	8
484.948	1	0
486.141	1	-14
487.333	1	7
488.525	1	-4
489.718	1	5
490.910	1	-4
492.102	1	-3
493.294	1	3
494.486	1	3
495.678	1	9
496.870	1	1
498.062	1	0
499.254	1	0
500.446	1	2
501.638	1	1
502.829	1	-4
504.021	1	10
505.213	1	5
506.404	1	-8
507.596	1	5
508.788	1	-7
509.979	1	5
511.171	1	10
512.362	1	2
513.553	1	-9
514.745	1	-2
515.936	1	7
517.127	1	6
518.319	1	-2
519.510	1	-1
520.701	1	8
521.892	1	-7
523.083	1	2
524.274	1	-9
525.465	1	-2
526.656	1	18
527.847	1	-2
529.038	1	6
530.229	1	7
531.419	1	5
532.610	1	3
533.801	1	-1
534.991	1	-2
536.182	1	2
537.373	1	-7
538.563	1	11
539.754	1	2
540.944	1	-3
542.134	1	7
543.325	1	-1
544.515	1	5
545.705	1	8
546.896	1	3
548.086	1	10
549.276	1	11
550.466	1	-9
551.656	1	-4
552.846	1	13
554.036	1	7
555.226	1	0
556.416	1	2
557.606	1	-8
558.796	1	6
559.986	1	1
561.175	1	-5
562.365	1	9
563.555	1	17
564.744	1	-1
565.934	1	11
567.123	1	14
568.313	1	3
569.502	1	-1
570.692	1	0
571.881	1	6
573.070	1	1
574.260	1	-7
575.449	1	-2
576.638	1	-3
577.827	1	4
579.016	1	12
580.205	1	5
581.394	1	1
582.583	1	-2
583.772	1	-4
584.961	1	6
586.150	1	5
587.339	1	-5
588.528	1	4
589.717	1	-2
590.905	1	6
592.094	1	0
593.283	1	7
594.471	1	1
595.660	1	-1
596.848	1	12
598.037	1	0
599.225	1	0
600.413	1	4
601.602	1	4
602.790	1	1
603.978	1	1
605.166	1	-2
606.355	1	7
607.543	1	-4
608.731	1	3
609.919	1	-4
611.107	1	14
612.295	1	3
613.483	1	8
614.671	1	-6
615.858	1	6
617.046	1	4
618.234	1	1
619.422	1	-3
620.609	1	7
621.797	1	2
622.985	1	10
624.172	1	19
625.360	1	-7
626.547	1	2
627.735	1	5
628.922	1	-1
630.109	1	0
631.297	1	-1
632.484	1	-6
633.671	1	3
634.858	1	9
636.045	1	4
637.232	1	6
638.419	1	3
639.606	1	12
640.793	1	3
641.980	1	0
643.167	1	15
644.354	1	1
645.541	1	-6
646.728	1	3
647.914	1	-7
649.101	1	10
650.288	1	-10
651.474	1	5
652.661	1	0
653.847	1	1
655.034	1	2
656.220	1	7
657.406	1	0
658.593	1	-5
659.779	1	-2
660.965	1	-2
662.152	1	2
663.338	1	2
664.524	1	-4
665.710	1	-4
666.896	1	-8
668.082	1	2
669.268	1	4
670.454	1	-1
671.640	1	-10
672.826	1	-10
674.011	1	11
675.197	1	-5
676.383	1	-3
677.569	1	-1
678.754	1	-5
679.940	1	-2
681.125	1	-4
682.311	1	-4
683.496	1	-11
684.682	1	3
685.867	1	-3
687.053	1	5
688.238	1	7
688.746	1	1