Folder: cryo-il_analysis/Analysis/GaN_68K_200ms (part 22)

File: GaN_sample E_spot4_UVVIS_68 K_200um_200 ms 2x2mm1_444.txt
340.368	1	-1
341.565	1	-2
342.763	1	-7
343.960	1	-15
345.157	1	0
346.354	1	0
347.552	1	-4
348.749	1	3
349.946	1	4
351.143	1	-1
352.340	1	-7
353.537	1	-3
354.734	1	7
355.931	1	1
357.127	1	4
358.324	1	3
359.521	1	1
360.718	1	5
361.914	1	5
363.111	1	13
364.308	1	-2
365.504	1	-6
366.701	1	6
367.897	1	7
369.093	1	-2
370.290	1	0
371.486	1	18
372.682	1	-1
373.879	1	5
375.075	1	10
376.271	1	6
377.467	1	-6
378.663	1	-3
379.859	1	-1
381.055	1	2
382.251	1	5
383.447	1	10
384.643	1	13
385.839	1	12
387.035	1	6
388.230	1	2
389.426	1	15
390.622	1	2
391.817	1	18
393.013	1	7
394.208	1	7
395.404	1	5
396.599	1	11
397.795	1	12
398.990	1	9
400.186	1	4
401.381	1	12
402.576	1	7
403.771	1	13
404.967	1	7
406.162	1	4
407.357	1	13
408.552	1	1
409.747	1	1
410.942	1	8
412.137	1	11
413.332	1	-2
414.526	1	11
415.721	1	0
416.916	1	1
418.111	1	8
419.305	1	0
420.500	1	4
421.695	1	9
422.889	1	11
424.084	1	4
425.278	1	-4
426.472	1	-2
427.667	1	1
428.861	1	2
430.055	1	0
431.250	1	1
432.444	1	10
433.638	1	-1
434.832	1	-11
436.026	1	4
437.220	1	3
438.414	1	4
439.608	1	4
440.802	1	7
441.996	1	0
443.190	1	-16
444.384	1	0
445.578	1	6
446.771	1	0
447.965	1	-8
449.159	1	-3
450.352	1	11
451.546	1	13
452.739	1	0
453.933	1	2
455.126	1	0
456.320	1	-2
457.513	1	10
458.706	1	-6
459.899	1	16
461.093	1	10
462.286	1	12
463.479	1	7
464.672	1	-4
465.865	1	-7
467.058	1	9
468.251	1	1
469.444	1	1
470.637	1	6
471.830	1	7
473.023	1	-6
474.215	1	-1
475.408	1	5
476.601	1	3
477.793	1	7
478.986	1	1
480.179	1	7
481.371	1	3
482.564	1	-12
483.756	1	4
484.948	1	-6
486.141	1	-2
487.333	1	4
488.525	1	-1
489.718	1	2
490.910	1	-12
492.102	1	1
493.294	1	10
494.486	1	-1
495.678	1	8
496.870	1	-2
498.062	1	2
499.254	1	0
500.446	1	7
501.638	1	2
502.829	1	3
504.021	1	16
505.213	1	6
506.404	1	2
507.596	1	-3
508.788	1	-3
509.979	1	4
511.171	1	15
512.362	1	-7
513.553	1	-7
514.745	1	5
515.936	1	6
517.127	1	8
518.319	1	-6
519.510	1	2
520.701	1	6
521.892	1	-2
523.083	1	-1
524.274	1	-3
525.465	1	4
526.656	1	14
527.847	1	-4
529.038	1	6
530.229	1	-1
531.419	1	16
532.610	1	11
533.801	1	10
534.991	1	4
536.182	1	1
537.373	1	3
538.563	1	7
539.754	1	-2
540.944	1	0
542.134	1	14
543.325	1	6
544.515	1	3
545.705	1	13
546.896	1	0
548.086	1	4
549.276	1	9
550.466	1	-6
551.656	1	-6
552.846	1	11
554.036	1	7
555.226	1	-3
556.416	1	17
557.606	1	-3
558.796	1	7
559.986	1	-11
561.175	1	-6
562.365	1	7
563.555	1	11
564.744	1	14
565.934	1	11
567.123	1	7
568.313	1	-3
569.502	1	-3
570.692	1	6
571.881	1	4
573.070	1	0
574.260	1	-3
575.449	1	11
576.638	1	1
577.827	1	11
579.016	1	7
580.205	1	9
581.394	1	-3
582.583	1	-6
583.772	1	9
584.961	1	3
586.150	1	5
587.339	1	-3
588.528	1	3
589.717	1	10
590.905	1	2
592.094	1	5
593.283	1	5
594.471	1	-1
595.660	1	-6
596.848	1	4
598.037	1	-4
599.225	1	8
600.413	1	0
601.602	1	-1
602.790	1	1
603.978	1	3
605.166	1	-5
606.355	1	4
607.543	1	6
608.731	1	-7
609.919	1	-2
611.107	1	8
612.295	1	-1
613.483	1	2
614.671	1	7
615.858	1	13
617.046	1	5
618.234	1	3
619.422	1	2
620.609	1	-3
621.797	1	3
622.985	1	-3
624.172	1	17
625.360	1	-9
626.547	1	-2
627.735	1	9
628.922	1	2
630.109	1	2
631.297	1	-6
632.484	1	-2
633.671	1	9
634.858	1	2
636.045	1	-2
637.232	1	-2
638.419	1	8
639.606	1	14
640.793	1	8
641.980	1	-5
643.167	1	7
644.354	1	-2
645.541	1	-8
646.728	1	3
647.914	1	0
649.101	1	5
650.288	1	1
651.474	1	9
652.661	1	3
653.847	1	4
655.034	1	0
656.220	1	4
657.406	1	5
658.593	1	-4
659.779	1	-3
660.965	1	-3
662.152	1	10
663.338	1	-4
664.524	1	-10
665.710	1	3
666.896	1	-6
668.082	1	-4
669.268	1	2
670.454	1	0
671.640	1	-16
672.826	1	-5
674.011	1	12
675.197	1	-5
676.383	1	-7
677.569	1	4
678.754	1	0
679.940	1	-5
681.125	1	5
682.311	1	7
683.496	1	1
684.682	1	7
685.867	1	0
687.053	1	9
688.238	1	-9
688.746	1	13

File: GaN_sample E_spot4_UVVIS_68 K_200um_200 ms 2x2mm1_448.txt
340.368	1	6
341.565	1	-2
342.763	1	2
343.960	1	-4
345.157	1	5
346.354	1	-2
347.552	1	-1
348.749	1	-3
349.946	1	10
351.143	1	-5
352.340	1	2
353.537	1	0
354.734	1	4
355.931	1	-3
357.127	1	7
358.324	1	3
359.521	1	3
360.718	1	-5
361.914	1	-2
363.111	1	9
364.308	1	-2
365.504	1	-8
366.701	1	-11
367.897	1	0
369.093	1	-3
370.290	1	-2
371.486	1	6
372.682	1	-3
373.879	1	14
375.075	1	15
376.271	1	1
377.467	1	-5
378.663	1	0
379.859	1	-1
381.055	1	-3
382.251	1	6
383.447	1	5
384.643	1	8
385.839	1	-4
387.035	1	-1
388.230	1	14
389.426	1	7
390.622	1	-3
391.817	1	-2
393.013	1	6
394.208	1	8
395.404	1	8
396.599	1	0
397.795	1	7
398.990	1	4
400.186	1	14
401.381	1	10
402.576	1	10
403.771	1	9
404.967	1	7
406.162	1	1
407.357	1	5
408.552	1	9
409.747	1	-3
410.942	1	7
412.137	1	13
413.332	1	2
414.526	1	6
415.721	1	0
416.916	1	-3
418.111	1	0
419.305	1	6
420.500	1	9
421.695	1	14
422.889	1	1
424.084	1	-2
425.278	1	-1
426.472	1	-2
427.667	1	7
428.861	1	-4
430.055	1	1
431.250	1	-10
432.444	1	14
433.638	1	1
434.832	1	-4
436.026	1	4
437.220	1	1
438.414	1	6
439.608	1	-4
440.802	1	5
441.996	1	8
443.190	1	-7
444.384	1	5
445.578	1	10
446.771	1	1
447.965	1	-13
449.159	1	-9
450.352	1	10
451.546	1	8
452.739	1	2
453.933	1	7
455.126	1	5
456.320	1	5
457.513	1	7
458.706	1	-3
459.899	1	12
461.093	1	3
462.286	1	15
463.479	1	18
464.672	1	-1
465.865	1	-3
467.058	1	14
468.251	1	-1
469.444	1	-2
470.637	1	14
471.830	1	9
473.023	1	-4
474.215	1	-4
475.408	1	3
476.601	1	1
477.793	1	10
478.986	1	0
480.179	1	-1
481.371	1	6
482.564	1	-14
483.756	1	3
484.948	1	-3
486.141	1	-3
487.333	1	0
488.525	1	-2
489.718	1	5
490.910	1	-1
492.102	1	6
493.294	1	8
494.486	1	4
495.678	1	14
496.870	1	4
498.062	1	11
499.254	1	-4
500.446	1	4
501.638	1	-7
502.829	1	8
504.021	1	20
505.213	1	-1
506.404	1	-11
507.596	1	8
508.788	1	5
509.979	1	4
511.171	1	8
512.362	1	1
513.553	1	-14
514.745	1	-9
515.936	1	9
517.127	1	2
518.319	1	3
519.510	1	6
520.701	1	0
521.892	1	-6
523.083	1	-6
524.274	1	5
525.465	1	8
526.656	1	22
527.847	1	-6
529.038	1	4
530.229	1	3
531.419	1	9
532.610	1	1
533.801	1	7
534.991	1	3
536.182	1	-2
537.373	1	5
538.563	1	5
539.754	1	2
540.944	1	-2
542.134	1	9
543.325	1	-4
544.515	1	0
545.705	1	-1
546.896	1	4
548.086	1	3
549.276	1	17
550.466	1	-3
551.656	1	-4
552.846	1	5
554.036	1	3
555.226	1	-2
556.416	1	4
557.606	1	-5
558.796	1	-5
559.986	1	-1
561.175	1	-2
562.365	1	7
563.555	1	6
564.744	1	5
565.934	1	3
567.123	1	10
568.313	1	1
569.502	1	3
570.692	1	2
571.881	1	2
573.070	1	-3
574.260	1	5
575.449	1	11
576.638	1	7
577.827	1	6
579.016	1	19
580.205	1	3
581.394	1	-12
582.583	1	2
583.772	1	4
584.961	1	5
586.150	1	-3
587.339	1	3
588.528	1	5
589.717	1	7
590.905	1	5
592.094	1	-8
593.283	1	4
594.471	1	8
595.660	1	-2
596.848	1	3
598.037	1	2
599.225	1	4
600.413	1	2
601.602	1	13
602.790	1	-1
603.978	1	4
605.166	1	-2
606.355	1	12
607.543	1	-12
608.731	1	-12
609.919	1	-12
611.107	1	7
612.295	1	0
613.483	1	5
614.671	1	1
615.858	1	5
617.046	1	5
618.234	1	2
619.422	1	3
620.609	1	3
621.797	1	-3
622.985	1	-2
624.172	1	16
625.360	1	-5
626.547	1	4
627.735	1	7
628.922	1	2
630.109	1	-1
631.297	1	0
632.484	1	4
633.671	1	-6
634.858	1	11
636.045	1	4
637.232	1	-1
638.419	1	-2
639.606	1	13
640.793	1	4
641.980	1	-7
643.167	1	5
644.354	1	3
645.541	1	-6
646.728	1	-3
647.914	1	1
649.101	1	4
650.288	1	-2
651.474	1	5
652.661	1	9
653.847	1	1
655.034	1	1
656.220	1	3
657.406	1	4
658.593	1	-4
659.779	1	-10
660.965	1	-1
662.152	1	2
663.338	1	-18
664.524	1	-5
665.710	1	-5
666.896	1	-4
668.082	1	3
669.268	1	0
670.454	1	1
671.640	1	-19
672.826	1	-18
674.011	1	8
675.197	1	-4
676.383	1	0
677.569	1	-4
678.754	1	-3
679.940	1	-5
681.125	1	2
682.311	1	-3
683.496	1	-10
684.682	1	14
685.867	1	7
687.053	1	-3
688.238	1	6
688.746	1	2

File: GaN_sample E_spot4_UVVIS_68 K_200um_200 ms 2x2mm1_457.txt
340.368	1	3
341.565	1	-1
342.763	1	8
343.960	1	-10
345.157	1	7
346.354	1	-3
347.552	1	-1
348.749	1	3
349.946	1	0
351.143	1	-6
352.340	1	-7
353.537	1	-5
354.734	1	3
355.931	1	1
357.127	1	4
358.324	1	-8
359.521	1	-2
360.718	1	1
361.914	1	-3
363.111	1	5
364.308	1	7
365.504	1	1
366.701	1	-9
367.897	1	15
369.093	1	6
370.290	1	0
371.486	1	4
372.682	1	3
373.879	1	13
375.075	1	9
376.271	1	0
377.467	1	-1
378.663	1	-6
379.859	1	-8
381.055	1	4
382.251	1	-1
383.447	1	14
384.643	1	13
385.839	1	4
387.035	1	5
388.230	1	6
389.426	1	12
390.622	1	-5
391.817	1	4
393.013	1	3
394.208	1	13
395.404	1	-1
396.599	1	11
397.795	1	10
398.990	1	5
400.186	1	17
401.381	1	4
402.576	1	6
403.771	1	9
404.967	1	0
406.162	1	1
407.357	1	4
408.552	1	15
409.747	1	-5
410.942	1	4
412.137	1	17
413.332	1	7
414.526	1	8
415.721	1	8
416.916	1	-4
418.111	1	-1
419.305	1	-2
420.500	1	7
421.695	1	4
422.889	1	1
424.084	1	4
425.278	1	-10
426.472	1	-3
427.667	1	10
428.861	1	6
430.055	1	4
431.250	1	-8
432.444	1	7
433.638	1	2
434.832	1	-4
436.026	1	11
437.220	1	7
438.414	1	9
439.608	1	11
440.802	1	12
441.996	1	8
443.190	1	-15
444.384	1	11
445.578	1	-2
446.771	1	1
447.965	1	-2
449.159	1	-5
450.352	1	8
451.546	1	6
452.739	1	2
453.933	1	4
455.126	1	-6
456.320	1	1
457.513	1	10
458.706	1	2
459.899	1	3
461.093	1	3
462.286	1	12
463.479	1	20
464.672	1	0
465.865	1	3
467.058	1	12
468.251	1	8
469.444	1	-3
470.637	1	14
471.830	1	8
473.023	1	-1
474.215	1	2
475.408	1	2
476.601	1	0
477.793	1	2
478.986	1	-4
480.179	1	-1
481.371	1	7
482.564	1	-13
483.756	1	4
484.948	1	-2
486.141	1	-5
487.333	1	12
488.525	1	1
489.718	1	-5
490.910	1	-2
492.102	1	-4
493.294	1	2
494.486	1	6
495.678	1	12
496.870	1	-6
498.062	1	1
499.254	1	3
500.446	1	11
501.638	1	6
502.829	1	0
504.021	1	21
505.213	1	4
506.404	1	4
507.596	1	4
508.788	1	1
509.979	1	4
511.171	1	13
512.362	1	1
513.553	1	-6
514.745	1	6
515.936	1	2
517.127	1	2
518.319	1	-2
519.510	1	-6
520.701	1	6
521.892	1	0
523.083	1	-4
524.274	1	-3
525.465	1	-5
526.656	1	13
527.847	1	-1
529.038	1	-5
530.229	1	3
531.419	1	4
532.610	1	2
533.801	1	1
534.991	1	1
536.182	1	3
537.373	1	1
538.563	1	4
539.754	1	-2
540.944	1	-7
542.134	1	3
543.325	1	-3
544.515	1	0
545.705	1	10
546.896	1	-3
548.086	1	12
549.276	1	7
550.466	1	-3
551.656	1	-6
552.846	1	11
554.036	1	9
555.226	1	-14
556.416	1	8
557.606	1	-3
558.796	1	1
559.986	1	-1
561.175	1	-1
562.365	1	1
563.555	1	7
564.744	1	11
565.934	1	6
567.123	1	25
568.313	1	-5
569.502	1	8
570.692	1	7
571.881	1	3
573.070	1	10
574.260	1	-4
575.449	1	4
576.638	1	-7
577.827	1	11
579.016	1	11
580.205	1	-2
581.394	1	1
582.583	1	-13
583.772	1	-4
584.961	1	-5
586.150	1	3
587.339	1	-4
588.528	1	-3
589.717	1	-2
590.905	1	3
592.094	1	-1
593.283	1	7
594.471	1	10
595.660	1	-6
596.848	1	6
598.037	1	-2
599.225	1	-7
600.413	1	-4
601.602	1	1
602.790	1	0
603.978	1	-2
605.166	1	-12
606.355	1	14
607.543	1	2
608.731	1	-12
609.919	1	-8
611.107	1	7
612.295	1	-6
613.483	1	7
614.671	1	-2
615.858	1	7
617.046	1	0
618.234	1	-8
619.422	1	-2
620.609	1	6
621.797	1	12
622.985	1	7
624.172	1	1
625.360	1	-5
626.547	1	8
627.735	1	-4
628.922	1	-3
630.109	1	-9
631.297	1	-8
632.484	1	-1
633.671	1	2
634.858	1	8
636.045	1	-3
637.232	1	-9
638.419	1	3
639.606	1	19
640.793	1	17
641.980	1	6
643.167	1	15
644.354	1	2
645.541	1	-8
646.728	1	9
647.914	1	-7
649.101	1	4
650.288	1	3
651.474	1	7
652.661	1	4
653.847	1	7
655.034	1	2
656.220	1	4
657.406	1	6
658.593	1	-8
659.779	1	-3
660.965	1	1
662.152	1	7
663.338	1	-2
664.524	1	-5
665.710	1	1
666.896	1	-3
668.082	1	-6
669.268	1	1
670.454	1	1
671.640	1	-17
672.826	1	-11
674.011	1	10
675.197	1	-3
676.383	1	-7
677.569	1	-10
678.754	1	4
679.940	1	-5
681.125	1	3
682.311	1	-2
683.496	1	-1
684.682	1	-2
685.867	1	-3
687.053	1	6
688.238	1	5
688.746	1	11

File: GaN_sample E_spot4_UVVIS_68 K_200um_200 ms 2x2mm1_460.txt
340.368	1	-2
341.565	1	-6
342.763	1	-1
343.960	1	3
345.157	1	6
346.354	1	-2
347.552	1	-1
348.749	1	0
349.946	1	8
351.143	1	-12
352.340	1	0
353.537	1	0
354.734	1	4
355.931	1	3
357.127	1	7
358.324	1	1
359.521	1	2
360.718	1	5
361.914	1	-1
363.111	1	18
364.308	1	-5
365.504	1	-5
366.701	1	-11
367.897	1	9
369.093	1	5
370.290	1	2
371.486	1	-9
372.682	1	2
373.879	1	2
375.075	1	2
376.271	1	-6
377.467	1	4
378.663	1	-3
379.859	1	-5
381.055	1	-1
382.251	1	12
383.447	1	6
384.643	1	5
385.839	1	8
387.035	1	4
388.230	1	12
389.426	1	10
390.622	1	2
391.817	1	1
393.013	1	11
394.208	1	20
395.404	1	-5
396.599	1	13
397.795	1	1
398.990	1	8
400.186	1	12
401.381	1	9
402.576	1	9
403.771	1	4
404.967	1	6
406.162	1	-3
407.357	1	6
408.552	1	0
409.747	1	0
410.942	1	5
412.137	1	13
413.332	1	0
414.526	1	6
415.721	1	9
416.916	1	-4
418.111	1	2
419.305	1	7
420.500	1	-4
421.695	1	5
422.889	1	8
424.084	1	-3
425.278	1	-8
426.472	1	-5
427.667	1	9
428.861	1	-3
430.055	1	2
431.250	1	-6
432.444	1	6
433.638	1	-1
434.832	1	-6
436.026	1	2
437.220	1	13
438.414	1	5
439.608	1	8
440.802	1	2
441.996	1	2
443.190	1	-5
444.384	1	-5
445.578	1	11
446.771	1	-3
447.965	1	-5
449.159	1	-7
450.352	1	2
451.546	1	-2
452.739	1	-3
453.933	1	4
455.126	1	2
456.320	1	11
457.513	1	8
458.706	1	3
459.899	1	12
461.093	1	4
462.286	1	12
463.479	1	7
464.672	1	-4
465.865	1	2
467.058	1	11
468.251	1	2
469.444	1	-7
470.637	1	20
471.830	1	15
473.023	1	-6
474.215	1	-11
475.408	1	0
476.601	1	3
477.793	1	5
478.986	1	0
480.179	1	3
481.371	1	0
482.564	1	-5
483.756	1	7
484.948	1	1
486.141	1	-7
487.333	1	3
488.525	1	0
489.718	1	-5
490.910	1	-3
492.102	1	-6
493.294	1	0
494.486	1	4
495.678	1	12
496.870	1	-5
498.062	1	-7
499.254	1	-1
500.446	1	7
501.638	1	-1
502.829	1	6
504.021	1	15
505.213	1	-4
506.404	1	-7
507.596	1	4
508.788	1	-2
509.979	1	4
511.171	1	11
512.362	1	5
513.553	1	-3
514.745	1	-3
515.936	1	2
517.127	1	5
518.319	1	0
519.510	1	1
520.701	1	3
521.892	1	-3
523.083	1	3
524.274	1	-6
525.465	1	0
526.656	1	14
527.847	1	6
529.038	1	4
530.229	1	6
531.419	1	11
532.610	1	8
533.801	1	8
534.991	1	3
536.182	1	0
537.373	1	3
538.563	1	4
539.754	1	-6
540.944	1	-3
542.134	1	8
543.325	1	3
544.515	1	1
545.705	1	14
546.896	1	0
548.086	1	1
549.276	1	11
550.466	1	-1
551.656	1	1
552.846	1	4
554.036	1	6
555.226	1	-6
556.416	1	7
557.606	1	-11
558.796	1	-3
559.986	1	0
561.175	1	-3
562.365	1	5
563.555	1	9
564.744	1	8
565.934	1	-2
567.123	1	6
568.313	1	-4
569.502	1	4
570.692	1	5
571.881	1	14
573.070	1	7
574.260	1	3
575.449	1	7
576.638	1	4
577.827	1	10
579.016	1	11
580.205	1	0
581.394	1	-2
582.583	1	-6
583.772	1	6
584.961	1	-2
586.150	1	-5
587.339	1	10
588.528	1	11
589.717	1	-1
590.905	1	-4
592.094	1	5
593.283	1	9
594.471	1	-2
595.660	1	-10
596.848	1	4
598.037	1	2
599.225	1	4
600.413	1	2
601.602	1	11
602.790	1	6
603.978	1	9
605.166	1	3
606.355	1	11
607.543	1	-8
608.731	1	-11
609.919	1	-2
611.107	1	-3
612.295	1	-11
613.483	1	11
614.671	1	5
615.858	1	7
617.046	1	2
618.234	1	7
619.422	1	2
620.609	1	3
621.797	1	5
622.985	1	11
624.172	1	8
625.360	1	-10
626.547	1	4
627.735	1	7
628.922	1	-2
630.109	1	2
631.297	1	6
632.484	1	-1
633.671	1	0
634.858	1	7
636.045	1	2
637.232	1	4
638.419	1	4
639.606	1	9
640.793	1	4
641.980	1	2
643.167	1	5
644.354	1	-9
645.541	1	-9
646.728	1	4
647.914	1	-5
649.101	1	-1
650.288	1	-5
651.474	1	2
652.661	1	6
653.847	1	3
655.034	1	-6
656.220	1	2
657.406	1	-3
658.593	1	5
659.779	1	1
660.965	1	-1
662.152	1	-1
663.338	1	-3
664.524	1	-3
665.710	1	-10
666.896	1	-11
668.082	1	-6
669.268	1	5
670.454	1	-2
671.640	1	-8
672.826	1	-9
674.011	1	0
675.197	1	-10
676.383	1	-1
677.569	1	-5
678.754	1	1
679.940	1	4
681.125	1	3
682.311	1	-3
683.496	1	-5
684.682	1	2
685.867	1	5
687.053	1	4
688.238	1	0
688.746	1	3

File: GaN_sample E_spot4_UVVIS_68 K_200um_200 ms 2x2mm1_465.txt
340.368	1	-2
341.565	1	-3
342.763	1	0
343.960	1	-6
345.157	1	8
346.354	1	-2
347.552	1	3
348.749	1	10
349.946	1	5
351.143	1	-8
352.340	1	-2
353.537	1	0
354.734	1	-2
355.931	1	-2
357.127	1	-9
358.324	1	-2
359.521	1	2
360.718	1	-6
361.914	1	4
363.111	1	6
364.308	1	5
365.504	1	-7
366.701	1	1
367.897	1	8
369.093	1	-4
370.290	1	0
371.486	1	14
372.682	1	-4
373.879	1	9
375.075	1	11
376.271	1	-8
377.467	1	-6
378.663	1	1
379.859	1	1
381.055	1	2
382.251	1	6
383.447	1	7
384.643	1	7
385.839	1	3
387.035	1	5
388.230	1	1
389.426	1	7
390.622	1	-2
391.817	1	-2
393.013	1	10
394.208	1	7
395.404	1	12
396.599	1	10
397.795	1	7
398.990	1	9
400.186	1	9
401.381	1	14
402.576	1	13
403.771	1	15
404.967	1	6
406.162	1	-5
407.357	1	1
408.552	1	0
409.747	1	-3
410.942	1	7
412.137	1	11
413.332	1	2
414.526	1	3
415.721	1	-3
416.916	1	1
418.111	1	-1
419.305	1	-4
420.500	1	10
421.695	1	-1
422.889	1	8
424.084	1	1
425.278	1	-6
426.472	1	-5
427.667	1	7
428.861	1	5
430.055	1	1
431.250	1	-15
432.444	1	5
433.638	1	1
434.832	1	-3
436.026	1	4
437.220	1	6
438.414	1	0
439.608	1	6
440.802	1	4
441.996	1	3
443.190	1	-8
444.384	1	4
445.578	1	1
446.771	1	6
447.965	1	-13
449.159	1	-3
450.352	1	9
451.546	1	2
452.739	1	5
453.933	1	10
455.126	1	2
456.320	1	-1
457.513	1	9
458.706	1	5
459.899	1	5
461.093	1	8
462.286	1	10
463.479	1	10
464.672	1	4
465.865	1	-4
467.058	1	6
468.251	1	0
469.444	1	-6
470.637	1	18
471.830	1	10
473.023	1	3
474.215	1	-2
475.408	1	1
476.601	1	-1
477.793	1	2
478.986	1	7
480.179	1	4
481.371	1	-4
482.564	1	-8
483.756	1	2
484.948	1	-4
486.141	1	-9
487.333	1	2
488.525	1	5
489.718	1	-4
490.910	1	-5
492.102	1	-4
493.294	1	9
494.486	1	2
495.678	1	0
496.870	1	-3
498.062	1	-3
499.254	1	6
500.446	1	17
501.638	1	11
502.829	1	4
504.021	1	24
505.213	1	1
506.404	1	-11
507.596	1	11
508.788	1	10
509.979	1	0
511.171	1	12
512.362	1	-2
513.553	1	-3
514.745	1	-5
515.936	1	0
517.127	1	-2
518.319	1	-12
519.510	1	7
520.701	1	3
521.892	1	-14
523.083	1	-4
524.274	1	-7
525.465	1	4
526.656	1	17
527.847	1	2
529.038	1	11
530.229	1	-1
531.419	1	11
532.610	1	4
533.801	1	1
534.991	1	6
536.182	1	8
537.373	1	0
538.563	1	-6
539.754	1	-4
540.944	1	-5
542.134	1	9
543.325	1	-6
544.515	1	-2
545.705	1	4
546.896	1	2
548.086	1	13
549.276	1	2
550.466	1	-1
551.656	1	-12
552.846	1	4
554.036	1	12
555.226	1	-11
556.416	1	2
557.606	1	-9
558.796	1	6
559.986	1	-6
561.175	1	5
562.365	1	1
563.555	1	18
564.744	1	0
565.934	1	14
567.123	1	15
568.313	1	-2
569.502	1	1
570.692	1	4
571.881	1	4
573.070	1	0
574.260	1	1
575.449	1	5
576.638	1	-1
577.827	1	8
579.016	1	8
580.205	1	3
581.394	1	-13
582.583	1	-2
583.772	1	3
584.961	1	-1
586.150	1	-4
587.339	1	-1
588.528	1	6
589.717	1	8
590.905	1	15
592.094	1	9
593.283	1	-4
594.471	1	4
595.660	1	-9
596.848	1	9
598.037	1	8
599.225	1	5
600.413	1	2
601.602	1	13
602.790	1	-5
603.978	1	-4
605.166	1	0
606.355	1	7
607.543	1	0
608.731	1	-4
609.919	1	-3
611.107	1	12
612.295	1	7
613.483	1	2
614.671	1	4
615.858	1	1
617.046	1	3
618.234	1	0
619.422	1	-8
620.609	1	-7
621.797	1	9
622.985	1	2
624.172	1	3
625.360	1	-3
626.547	1	1
627.735	1	-4
628.922	1	-3
630.109	1	-2
631.297	1	-1
632.484	1	-8
633.671	1	-4
634.858	1	15
636.045	1	-6
637.232	1	0
638.419	1	14
639.606	1	16
640.793	1	4
641.980	1	-4
643.167	1	12
644.354	1	-7
645.541	1	-6
646.728	1	7
647.914	1	4
649.101	1	9
650.288	1	-1
651.474	1	9
652.661	1	7
653.847	1	-2
655.034	1	10
656.220	1	6
657.406	1	3
658.593	1	-5
659.779	1	0
660.965	1	6
662.152	1	3
663.338	1	-2
664.524	1	0
665.710	1	-7
666.896	1	1
668.082	1	-6
669.268	1	-1
670.454	1	-11
671.640	1	-12
672.826	1	-10
674.011	1	7
675.197	1	-11
676.383	1	-3
677.569	1	-8
678.754	1	-6
679.940	1	0
681.125	1	0
682.311	1	-1
683.496	1	-14
684.682	1	-1
685.867	1	-4
687.053	1	6
688.238	1	-8
688.746	1	8

File: GaN_sample E_spot4_UVVIS_68 K_200um_200 ms 2x2mm1_466.txt
340.368	1	0
341.565	1	-3
342.763	1	5
343.960	1	4
345.157	1	1
346.354	1	-4
347.552	1	2
348.749	1	-2
349.946	1	6
351.143	1	-2
352.340	1	-2
353.537	1	-1
354.734	1	-1
355.931	1	5
357.127	1	9
358.324	1	4
359.521	1	-6
360.718	1	-5
361.914	1	2
363.111	1	0
364.308	1	-8
365.504	1	-6
366.701	1	-2
367.897	1	-4
369.093	1	-4
370.290	1	1
371.486	1	5
372.682	1	-1
373.879	1	9
375.075	1	5
376.271	1	-2
377.467	1	2
378.663	1	-5
379.859	1	-6
381.055	1	1
382.251	1	6
383.447	1	14
384.643	1	7
385.839	1	8
387.035	1	9
388.230	1	7
389.426	1	12
390.622	1	-9
391.817	1	-1
393.013	1	10
394.208	1	12
395.404	1	4
396.599	1	5
397.795	1	17
398.990	1	10
400.186	1	16
401.381	1	0
402.576	1	13
403.771	1	9
404.967	1	10
406.162	1	1
407.357	1	-4
408.552	1	7
409.747	1	4
410.942	1	9
412.137	1	15
413.332	1	-5
414.526	1	4
415.721	1	3
416.916	1	-12
418.111	1	6
419.305	1	-5
420.500	1	-6
421.695	1	4
422.889	1	12
424.084	1	14
425.278	1	-7
426.472	1	-3
427.667	1	8
428.861	1	1
430.055	1	2
431.250	1	-4
432.444	1	2
433.638	1	-9
434.832	1	-5
436.026	1	4
437.220	1	10
438.414	1	5
439.608	1	4
440.802	1	7
441.996	1	7
443.190	1	-12
444.384	1	1
445.578	1	7
446.771	1	0
447.965	1	-9
449.159	1	-4
450.352	1	7
451.546	1	2
452.739	1	-3
453.933	1	15
455.126	1	6
456.320	1	0
457.513	1	-1
458.706	1	0
459.899	1	6
461.093	1	7
462.286	1	3
463.479	1	11
464.672	1	-5
465.865	1	-2
467.058	1	5
468.251	1	0
469.444	1	-4
470.637	1	10
471.830	1	11
473.023	1	-3
474.215	1	1
475.408	1	6
476.601	1	-1
477.793	1	9
478.986	1	0
480.179	1	3
481.371	1	7
482.564	1	-10
483.756	1	13
484.948	1	-3
486.141	1	-11
487.333	1	4
488.525	1	2
489.718	1	-1
490.910	1	-1
492.102	1	-4
493.294	1	12
494.486	1	5
495.678	1	4
496.870	1	-4
498.062	1	-7
499.254	1	-4
500.446	1	5
501.638	1	1
502.829	1	11
504.021	1	19
505.213	1	-4
506.404	1	-6
507.596	1	6
508.788	1	1
509.979	1	3
511.171	1	9
512.362	1	3
513.553	1	-13
514.745	1	-2
515.936	1	7
517.127	1	7
518.319	1	-1
519.510	1	2
520.701	1	10
521.892	1	-8
523.083	1	-8
524.274	1	0
525.465	1	5
526.656	1	16
527.847	1	3
529.038	1	1
530.229	1	11
531.419	1	9
532.610	1	6
533.801	1	4
534.991	1	3
536.182	1	-4
537.373	1	10
538.563	1	-5
539.754	1	-2
540.944	1	-3
542.134	1	8
543.325	1	6
544.515	1	5
545.705	1	7
546.896	1	2
548.086	1	6
549.276	1	2
550.466	1	3
551.656	1	1
552.846	1	-1
554.036	1	8
555.226	1	1
556.416	1	-6
557.606	1	-3
558.796	1	5
559.986	1	-8
561.175	1	4
562.365	1	13
563.555	1	2
564.744	1	5
565.934	1	4
567.123	1	3
568.313	1	-6
569.502	1	7
570.692	1	3
571.881	1	8
573.070	1	10
574.260	1	-2
575.449	1	4
576.638	1	0
577.827	1	-4
579.016	1	8
580.205	1	4
581.394	1	-16
582.583	1	-9
583.772	1	-2
584.961	1	-2
586.150	1	8
587.339	1	10
588.528	1	9
589.717	1	-3
590.905	1	1
592.094	1	9
593.283	1	9
594.471	1	7
595.660	1	-2
596.848	1	9
598.037	1	-2
599.225	1	9
600.413	1	-10
601.602	1	6
602.790	1	-2
603.978	1	-3
605.166	1	-6
606.355	1	3
607.543	1	-14
608.731	1	-8
609.919	1	-12
611.107	1	7
612.295	1	7
613.483	1	10
614.671	1	5
615.858	1	2
617.046	1	1
618.234	1	2
619.422	1	-4
620.609	1	-2
621.797	1	-4
622.985	1	1
624.172	1	5
625.360	1	-9
626.547	1	-1
627.735	1	13
628.922	1	-5
630.109	1	1
631.297	1	-4
632.484	1	4
633.671	1	1
634.858	1	3
636.045	1	2
637.232	1	-3
638.419	1	-1
639.606	1	8
640.793	1	4
641.980	1	-3
643.167	1	8
644.354	1	0
645.541	1	-9
646.728	1	6
647.914	1	-9
649.101	1	3
650.288	1	9
651.474	1	10
652.661	1	-1
653.847	1	0
655.034	1	0
656.220	1	5
657.406	1	7
658.593	1	-7
659.779	1	-4
660.965	1	3
662.152	1	-3
663.338	1	-4
664.524	1	-14
665.710	1	-5
666.896	1	-2
668.082	1	4
669.268	1	0
670.454	1	4
671.640	1	-8
672.826	1	-13
674.011	1	4
675.197	1	-6
676.383	1	-8
677.569	1	5
678.754	1	-4
679.940	1	0
681.125	1	9
682.311	1	-1
683.496	1	6
684.682	1	7
685.867	1	-4
687.053	1	-4
688.238	1	-4
688.746	1	9