Folder: cryo-il_analysis/Analysis/GaN_68K_200ms (part 30)

File: GaN_sample E_spot4_UVVIS_68 K_200um_200 ms 2x2mm1_709.txt
340.368	1	-3
341.565	1	-15
342.763	1	0
343.960	1	-3
345.157	1	9
346.354	1	-8
347.552	1	2
348.749	1	8
349.946	1	8
351.143	1	-5
352.340	1	0
353.537	1	-1
354.734	1	-6
355.931	1	6
357.127	1	-2
358.324	1	5
359.521	1	1
360.718	1	-3
361.914	1	3
363.111	1	6
364.308	1	-5
365.504	1	-1
366.701	1	2
367.897	1	1
369.093	1	-2
370.290	1	-13
371.486	1	-3
372.682	1	-1
373.879	1	6
375.075	1	11
376.271	1	-6
377.467	1	-3
378.663	1	-4
379.859	1	-1
381.055	1	-4
382.251	1	2
383.447	1	4
384.643	1	1
385.839	1	3
387.035	1	0
388.230	1	7
389.426	1	6
390.622	1	-4
391.817	1	0
393.013	1	9
394.208	1	5
395.404	1	3
396.599	1	12
397.795	1	1
398.990	1	11
400.186	1	4
401.381	1	9
402.576	1	-1
403.771	1	0
404.967	1	-1
406.162	1	-11
407.357	1	-4
408.552	1	-5
409.747	1	-6
410.942	1	1
412.137	1	10
413.332	1	4
414.526	1	0
415.721	1	4
416.916	1	-8
418.111	1	-6
419.305	1	0
420.500	1	2
421.695	1	-7
422.889	1	2
424.084	1	6
425.278	1	-2
426.472	1	-5
427.667	1	6
428.861	1	4
430.055	1	-5
431.250	1	-3
432.444	1	5
433.638	1	1
434.832	1	1
436.026	1	8
437.220	1	9
438.414	1	2
439.608	1	-7
440.802	1	-2
441.996	1	3
443.190	1	-5
444.384	1	-3
445.578	1	5
446.771	1	-8
447.965	1	-6
449.159	1	-3
450.352	1	8
451.546	1	-1
452.739	1	-2
453.933	1	7
455.126	1	3
456.320	1	-2
457.513	1	5
458.706	1	5
459.899	1	7
461.093	1	2
462.286	1	10
463.479	1	7
464.672	1	-1
465.865	1	-3
467.058	1	16
468.251	1	-7
469.444	1	-7
470.637	1	11
471.830	1	12
473.023	1	-11
474.215	1	2
475.408	1	1
476.601	1	5
477.793	1	1
478.986	1	-7
480.179	1	-3
481.371	1	13
482.564	1	-5
483.756	1	10
484.948	1	-5
486.141	1	-2
487.333	1	-1
488.525	1	-2
489.718	1	-2
490.910	1	3
492.102	1	2
493.294	1	6
494.486	1	-1
495.678	1	11
496.870	1	-3
498.062	1	-3
499.254	1	1
500.446	1	8
501.638	1	6
502.829	1	2
504.021	1	21
505.213	1	-5
506.404	1	1
507.596	1	6
508.788	1	3
509.979	1	0
511.171	1	9
512.362	1	-1
513.553	1	-7
514.745	1	-1
515.936	1	3
517.127	1	0
518.319	1	-8
519.510	1	-3
520.701	1	3
521.892	1	-6
523.083	1	-5
524.274	1	-1
525.465	1	1
526.656	1	10
527.847	1	-2
529.038	1	4
530.229	1	9
531.419	1	10
532.610	1	7
533.801	1	1
534.991	1	4
536.182	1	-1
537.373	1	-3
538.563	1	-3
539.754	1	-5
540.944	1	1
542.134	1	14
543.325	1	-5
544.515	1	1
545.705	1	-4
546.896	1	-3
548.086	1	8
549.276	1	13
550.466	1	8
551.656	1	2
552.846	1	1
554.036	1	5
555.226	1	-9
556.416	1	2
557.606	1	-4
558.796	1	-8
559.986	1	-2
561.175	1	-9
562.365	1	0
563.555	1	12
564.744	1	2
565.934	1	1
567.123	1	18
568.313	1	2
569.502	1	-7
570.692	1	7
571.881	1	7
573.070	1	7
574.260	1	-1
575.449	1	1
576.638	1	3
577.827	1	-2
579.016	1	11
580.205	1	0
581.394	1	-5
582.583	1	-4
583.772	1	5
584.961	1	2
586.150	1	5
587.339	1	-4
588.528	1	11
589.717	1	-5
590.905	1	-3
592.094	1	-8
593.283	1	5
594.471	1	-1
595.660	1	-7
596.848	1	3
598.037	1	13
599.225	1	5
600.413	1	4
601.602	1	-1
602.790	1	-1
603.978	1	0
605.166	1	-4
606.355	1	3
607.543	1	-4
608.731	1	-12
609.919	1	-2
611.107	1	17
612.295	1	-1
613.483	1	0
614.671	1	-2
615.858	1	4
617.046	1	0
618.234	1	0
619.422	1	0
620.609	1	-1
621.797	1	-1
622.985	1	6
624.172	1	4
625.360	1	-6
626.547	1	-4
627.735	1	8
628.922	1	1
630.109	1	-4
631.297	1	-10
632.484	1	-6
633.671	1	0
634.858	1	6
636.045	1	3
637.232	1	-10
638.419	1	6
639.606	1	16
640.793	1	14
641.980	1	-1
643.167	1	9
644.354	1	-4
645.541	1	-6
646.728	1	9
647.914	1	-5
649.101	1	-1
650.288	1	2
651.474	1	8
652.661	1	-1
653.847	1	3
655.034	1	-2
656.220	1	7
657.406	1	9
658.593	1	-6
659.779	1	-11
660.965	1	-1
662.152	1	5
663.338	1	-9
664.524	1	-10
665.710	1	1
666.896	1	-2
668.082	1	-2
669.268	1	3
670.454	1	-4
671.640	1	-11
672.826	1	-22
674.011	1	-2
675.197	1	-6
676.383	1	-5
677.569	1	-11
678.754	1	1
679.940	1	-6
681.125	1	4
682.311	1	0
683.496	1	-4
684.682	1	10
685.867	1	3
687.053	1	7
688.238	1	4
688.746	1	7

File: GaN_sample E_spot4_UVVIS_68 K_200um_200 ms 2x2mm1_712.txt
340.368	1	-4
341.565	1	-7
342.763	1	-8
343.960	1	-1
345.157	1	2
346.354	1	-1
347.552	1	5
348.749	1	-2
349.946	1	14
351.143	1	-12
352.340	1	5
353.537	1	8
354.734	1	-1
355.931	1	0
357.127	1	2
358.324	1	-1
359.521	1	3
360.718	1	-1
361.914	1	0
363.111	1	10
364.308	1	3
365.504	1	-5
366.701	1	-6
367.897	1	-7
369.093	1	2
370.290	1	8
371.486	1	8
372.682	1	-7
373.879	1	15
375.075	1	11
376.271	1	-6
377.467	1	0
378.663	1	2
379.859	1	3
381.055	1	-3
382.251	1	-3
383.447	1	14
384.643	1	5
385.839	1	-1
387.035	1	-4
388.230	1	-1
389.426	1	2
390.622	1	-1
391.817	1	-2
393.013	1	17
394.208	1	8
395.404	1	6
396.599	1	-5
397.795	1	-2
398.990	1	-1
400.186	1	19
401.381	1	8
402.576	1	15
403.771	1	9
404.967	1	1
406.162	1	-10
407.357	1	7
408.552	1	-2
409.747	1	-5
410.942	1	-5
412.137	1	6
413.332	1	-3
414.526	1	4
415.721	1	4
416.916	1	-2
418.111	1	3
419.305	1	0
420.500	1	8
421.695	1	5
422.889	1	7
424.084	1	8
425.278	1	-4
426.472	1	-6
427.667	1	15
428.861	1	-6
430.055	1	4
431.250	1	-11
432.444	1	3
433.638	1	0
434.832	1	-17
436.026	1	-7
437.220	1	9
438.414	1	-1
439.608	1	2
440.802	1	0
441.996	1	-2
443.190	1	-6
444.384	1	0
445.578	1	7
446.771	1	0
447.965	1	-10
449.159	1	1
450.352	1	11
451.546	1	-6
452.739	1	0
453.933	1	6
455.126	1	1
456.320	1	-5
457.513	1	22
458.706	1	-2
459.899	1	3
461.093	1	6
462.286	1	12
463.479	1	11
464.672	1	5
465.865	1	4
467.058	1	11
468.251	1	-14
469.444	1	-4
470.637	1	12
471.830	1	15
473.023	1	-9
474.215	1	-3
475.408	1	0
476.601	1	0
477.793	1	7
478.986	1	-2
480.179	1	-4
481.371	1	0
482.564	1	-12
483.756	1	14
484.948	1	-5
486.141	1	-6
487.333	1	13
488.525	1	-6
489.718	1	-4
490.910	1	-2
492.102	1	-5
493.294	1	7
494.486	1	1
495.678	1	3
496.870	1	3
498.062	1	0
499.254	1	-1
500.446	1	7
501.638	1	0
502.829	1	3
504.021	1	14
505.213	1	0
506.404	1	-1
507.596	1	1
508.788	1	3
509.979	1	1
511.171	1	10
512.362	1	1
513.553	1	1
514.745	1	10
515.936	1	9
517.127	1	7
518.319	1	4
519.510	1	1
520.701	1	3
521.892	1	-10
523.083	1	3
524.274	1	-13
525.465	1	-8
526.656	1	16
527.847	1	-3
529.038	1	4
530.229	1	6
531.419	1	-6
532.610	1	5
533.801	1	2
534.991	1	-2
536.182	1	-1
537.373	1	6
538.563	1	10
539.754	1	-2
540.944	1	1
542.134	1	8
543.325	1	-7
544.515	1	-1
545.705	1	6
546.896	1	1
548.086	1	6
549.276	1	8
550.466	1	-2
551.656	1	-8
552.846	1	11
554.036	1	2
555.226	1	4
556.416	1	5
557.606	1	-8
558.796	1	-2
559.986	1	-9
561.175	1	3
562.365	1	1
563.555	1	2
564.744	1	-1
565.934	1	5
567.123	1	7
568.313	1	0
569.502	1	-1
570.692	1	2
571.881	1	10
573.070	1	1
574.260	1	-4
575.449	1	4
576.638	1	-4
577.827	1	-1
579.016	1	10
580.205	1	-2
581.394	1	0
582.583	1	-9
583.772	1	-2
584.961	1	2
586.150	1	3
587.339	1	-5
588.528	1	1
589.717	1	-3
590.905	1	7
592.094	1	1
593.283	1	1
594.471	1	-4
595.660	1	1
596.848	1	7
598.037	1	6
599.225	1	-1
600.413	1	8
601.602	1	7
602.790	1	1
603.978	1	0
605.166	1	0
606.355	1	4
607.543	1	-8
608.731	1	-12
609.919	1	-4
611.107	1	8
612.295	1	2
613.483	1	-2
614.671	1	7
615.858	1	2
617.046	1	3
618.234	1	-1
619.422	1	1
620.609	1	1
621.797	1	0
622.985	1	1
624.172	1	4
625.360	1	-8
626.547	1	-2
627.735	1	-2
628.922	1	-3
630.109	1	-8
631.297	1	-1
632.484	1	-4
633.671	1	4
634.858	1	1
636.045	1	1
637.232	1	-4
638.419	1	10
639.606	1	14
640.793	1	11
641.980	1	-9
643.167	1	7
644.354	1	2
645.541	1	-17
646.728	1	0
647.914	1	-5
649.101	1	0
650.288	1	-15
651.474	1	4
652.661	1	0
653.847	1	1
655.034	1	-1
656.220	1	7
657.406	1	7
658.593	1	-5
659.779	1	-6
660.965	1	3
662.152	1	6
663.338	1	-1
664.524	1	-14
665.710	1	-5
666.896	1	-6
668.082	1	-6
669.268	1	0
670.454	1	2
671.640	1	-18
672.826	1	-13
674.011	1	2
675.197	1	1
676.383	1	-6
677.569	1	-2
678.754	1	-1
679.940	1	-1
681.125	1	5
682.311	1	-6
683.496	1	-6
684.682	1	2
685.867	1	3
687.053	1	4
688.238	1	3
688.746	1	-2

File: GaN_sample E_spot4_UVVIS_68 K_200um_200 ms 2x2mm1_717.txt
340.368	1	5
341.565	1	-7
342.763	1	-1
343.960	1	-3
345.157	1	1
346.354	1	0
347.552	1	-6
348.749	1	3
349.946	1	5
351.143	1	-13
352.340	1	0
353.537	1	-5
354.734	1	-2
355.931	1	-7
357.127	1	11
358.324	1	-8
359.521	1	-3
360.718	1	-7
361.914	1	0
363.111	1	11
364.308	1	-11
365.504	1	-6
366.701	1	-3
367.897	1	2
369.093	1	-5
370.290	1	-8
371.486	1	8
372.682	1	-7
373.879	1	5
375.075	1	-1
376.271	1	-7
377.467	1	-11
378.663	1	2
379.859	1	2
381.055	1	-4
382.251	1	-1
383.447	1	7
384.643	1	8
385.839	1	7
387.035	1	2
388.230	1	-6
389.426	1	7
390.622	1	3
391.817	1	2
393.013	1	10
394.208	1	8
395.404	1	1
396.599	1	4
397.795	1	9
398.990	1	6
400.186	1	9
401.381	1	6
402.576	1	12
403.771	1	-4
404.967	1	6
406.162	1	-12
407.357	1	2
408.552	1	3
409.747	1	-3
410.942	1	6
412.137	1	2
413.332	1	-3
414.526	1	1
415.721	1	-4
416.916	1	0
418.111	1	-3
419.305	1	-1
420.500	1	7
421.695	1	4
422.889	1	8
424.084	1	-4
425.278	1	-1
426.472	1	0
427.667	1	6
428.861	1	-6
430.055	1	5
431.250	1	-10
432.444	1	10
433.638	1	5
434.832	1	-8
436.026	1	3
437.220	1	5
438.414	1	-9
439.608	1	5
440.802	1	5
441.996	1	-10
443.190	1	-20
444.384	1	5
445.578	1	5
446.771	1	0
447.965	1	-10
449.159	1	-9
450.352	1	4
451.546	1	-1
452.739	1	-4
453.933	1	6
455.126	1	2
456.320	1	4
457.513	1	11
458.706	1	4
459.899	1	15
461.093	1	-5
462.286	1	9
463.479	1	13
464.672	1	2
465.865	1	-2
467.058	1	9
468.251	1	-14
469.444	1	-2
470.637	1	5
471.830	1	12
473.023	1	-3
474.215	1	-9
475.408	1	2
476.601	1	0
477.793	1	11
478.986	1	-1
480.179	1	-5
481.371	1	-1
482.564	1	-7
483.756	1	3
484.948	1	-5
486.141	1	-4
487.333	1	8
488.525	1	-2
489.718	1	1
490.910	1	-4
492.102	1	1
493.294	1	-1
494.486	1	11
495.678	1	11
496.870	1	1
498.062	1	-3
499.254	1	3
500.446	1	5
501.638	1	-1
502.829	1	7
504.021	1	14
505.213	1	-4
506.404	1	4
507.596	1	5
508.788	1	3
509.979	1	3
511.171	1	11
512.362	1	2
513.553	1	-7
514.745	1	2
515.936	1	7
517.127	1	-3
518.319	1	-4
519.510	1	1
520.701	1	3
521.892	1	-8
523.083	1	-6
524.274	1	-8
525.465	1	6
526.656	1	10
527.847	1	-10
529.038	1	2
530.229	1	7
531.419	1	5
532.610	1	2
533.801	1	0
534.991	1	4
536.182	1	-7
537.373	1	-6
538.563	1	1
539.754	1	-2
540.944	1	-9
542.134	1	7
543.325	1	-6
544.515	1	-6
545.705	1	3
546.896	1	-2
548.086	1	0
549.276	1	9
550.466	1	1
551.656	1	-7
552.846	1	-5
554.036	1	3
555.226	1	-4
556.416	1	-5
557.606	1	-11
558.796	1	4
559.986	1	-3
561.175	1	-5
562.365	1	9
563.555	1	8
564.744	1	2
565.934	1	6
567.123	1	26
568.313	1	-4
569.502	1	2
570.692	1	2
571.881	1	3
573.070	1	1
574.260	1	9
575.449	1	3
576.638	1	2
577.827	1	-2
579.016	1	10
580.205	1	1
581.394	1	-12
582.583	1	-13
583.772	1	0
584.961	1	2
586.150	1	-2
587.339	1	2
588.528	1	1
589.717	1	1
590.905	1	3
592.094	1	8
593.283	1	3
594.471	1	1
595.660	1	-5
596.848	1	9
598.037	1	7
599.225	1	-4
600.413	1	-3
601.602	1	4
602.790	1	1
603.978	1	-1
605.166	1	2
606.355	1	9
607.543	1	-10
608.731	1	1
609.919	1	-9
611.107	1	2
612.295	1	-2
613.483	1	5
614.671	1	3
615.858	1	-3
617.046	1	4
618.234	1	2
619.422	1	-4
620.609	1	1
621.797	1	3
622.985	1	6
624.172	1	7
625.360	1	-6
626.547	1	4
627.735	1	0
628.922	1	-12
630.109	1	0
631.297	1	-4
632.484	1	-1
633.671	1	-3
634.858	1	8
636.045	1	-9
637.232	1	4
638.419	1	10
639.606	1	13
640.793	1	15
641.980	1	-4
643.167	1	9
644.354	1	1
645.541	1	-7
646.728	1	4
647.914	1	-1
649.101	1	-5
650.288	1	-3
651.474	1	2
652.661	1	-2
653.847	1	2
655.034	1	4
656.220	1	-5
657.406	1	2
658.593	1	-12
659.779	1	1
660.965	1	3
662.152	1	0
663.338	1	-4
664.524	1	-6
665.710	1	3
666.896	1	-3
668.082	1	-1
669.268	1	2
670.454	1	0
671.640	1	-13
672.826	1	-15
674.011	1	7
675.197	1	-3
676.383	1	-6
677.569	1	-11
678.754	1	-7
679.940	1	-7
681.125	1	-1
682.311	1	3
683.496	1	-10
684.682	1	5
685.867	1	5
687.053	1	-4
688.238	1	7
688.746	1	0

File: GaN_sample E_spot4_UVVIS_68 K_200um_200 ms 2x2mm1_720.txt
340.368	1	4
341.565	1	0
342.763	1	-5
343.960	1	2
345.157	1	5
346.354	1	-4
347.552	1	5
348.749	1	-2
349.946	1	0
351.143	1	-5
352.340	1	-6
353.537	1	6
354.734	1	-7
355.931	1	-1
357.127	1	6
358.324	1	-3
359.521	1	-2
360.718	1	-2
361.914	1	0
363.111	1	3
364.308	1	-10
365.504	1	-3
366.701	1	-7
367.897	1	-2
369.093	1	-5
370.290	1	-1
371.486	1	5
372.682	1	2
373.879	1	10
375.075	1	14
376.271	1	2
377.467	1	2
378.663	1	-4
379.859	1	0
381.055	1	3
382.251	1	6
383.447	1	4
384.643	1	3
385.839	1	3
387.035	1	2
388.230	1	5
389.426	1	5
390.622	1	-1
391.817	1	1
393.013	1	1
394.208	1	4
395.404	1	8
396.599	1	7
397.795	1	7
398.990	1	4
400.186	1	11
401.381	1	8
402.576	1	9
403.771	1	2
404.967	1	0
406.162	1	-8
407.357	1	7
408.552	1	2
409.747	1	0
410.942	1	7
412.137	1	10
413.332	1	-3
414.526	1	2
415.721	1	-2
416.916	1	-3
418.111	1	1
419.305	1	-3
420.500	1	10
421.695	1	-2
422.889	1	-3
424.084	1	6
425.278	1	-6
426.472	1	-4
427.667	1	12
428.861	1	-7
430.055	1	8
431.250	1	-15
432.444	1	5
433.638	1	-2
434.832	1	-1
436.026	1	-1
437.220	1	14
438.414	1	1
439.608	1	1
440.802	1	13
441.996	1	1
443.190	1	-2
444.384	1	1
445.578	1	7
446.771	1	-2
447.965	1	-1
449.159	1	-1
450.352	1	7
451.546	1	1
452.739	1	-6
453.933	1	10
455.126	1	2
456.320	1	-9
457.513	1	5
458.706	1	-2
459.899	1	-1
461.093	1	-1
462.286	1	7
463.479	1	13
464.672	1	2
465.865	1	3
467.058	1	3
468.251	1	-5
469.444	1	2
470.637	1	3
471.830	1	10
473.023	1	-7
474.215	1	2
475.408	1	5
476.601	1	-2
477.793	1	8
478.986	1	-11
480.179	1	-4
481.371	1	4
482.564	1	-2
483.756	1	0
484.948	1	3
486.141	1	-13
487.333	1	5
488.525	1	-4
489.718	1	-4
490.910	1	-3
492.102	1	-1
493.294	1	5
494.486	1	5
495.678	1	6
496.870	1	-7
498.062	1	1
499.254	1	6
500.446	1	8
501.638	1	3
502.829	1	2
504.021	1	5
505.213	1	0
506.404	1	-1
507.596	1	-2
508.788	1	-1
509.979	1	0
511.171	1	12
512.362	1	-8
513.553	1	-2
514.745	1	0
515.936	1	1
517.127	1	1
518.319	1	-6
519.510	1	-7
520.701	1	4
521.892	1	-12
523.083	1	-10
524.274	1	-5
525.465	1	0
526.656	1	17
527.847	1	-1
529.038	1	5
530.229	1	5
531.419	1	1
532.610	1	2
533.801	1	6
534.991	1	4
536.182	1	-2
537.373	1	2
538.563	1	-9
539.754	1	-8
540.944	1	-1
542.134	1	5
543.325	1	2
544.515	1	0
545.705	1	-3
546.896	1	9
548.086	1	12
549.276	1	11
550.466	1	-5
551.656	1	-2
552.846	1	0
554.036	1	2
555.226	1	-9
556.416	1	-3
557.606	1	-9
558.796	1	4
559.986	1	-10
561.175	1	-1
562.365	1	3
563.555	1	11
564.744	1	-2
565.934	1	7
567.123	1	5
568.313	1	-3
569.502	1	4
570.692	1	2
571.881	1	5
573.070	1	6
574.260	1	-5
575.449	1	3
576.638	1	-5
577.827	1	5
579.016	1	7
580.205	1	6
581.394	1	0
582.583	1	-2
583.772	1	-5
584.961	1	5
586.150	1	-3
587.339	1	4
588.528	1	1
589.717	1	-1
590.905	1	7
592.094	1	2
593.283	1	-1
594.471	1	3
595.660	1	-1
596.848	1	10
598.037	1	9
599.225	1	3
600.413	1	-3
601.602	1	0
602.790	1	1
603.978	1	3
605.166	1	-14
606.355	1	2
607.543	1	-7
608.731	1	-10
609.919	1	-11
611.107	1	4
612.295	1	1
613.483	1	5
614.671	1	1
615.858	1	-1
617.046	1	-2
618.234	1	6
619.422	1	-4
620.609	1	2
621.797	1	7
622.985	1	8
624.172	1	9
625.360	1	-8
626.547	1	8
627.735	1	9
628.922	1	-3
630.109	1	-7
631.297	1	-4
632.484	1	2
633.671	1	4
634.858	1	7
636.045	1	2
637.232	1	-1
638.419	1	4
639.606	1	11
640.793	1	6
641.980	1	-4
643.167	1	11
644.354	1	1
645.541	1	-9
646.728	1	-4
647.914	1	4
649.101	1	2
650.288	1	-2
651.474	1	5
652.661	1	13
653.847	1	1
655.034	1	4
656.220	1	1
657.406	1	8
658.593	1	-7
659.779	1	0
660.965	1	-4
662.152	1	-4
663.338	1	-5
664.524	1	-11
665.710	1	-4
666.896	1	-1
668.082	1	-4
669.268	1	-4
670.454	1	-3
671.640	1	-14
672.826	1	-8
674.011	1	-1
675.197	1	-15
676.383	1	-2
677.569	1	-3
678.754	1	-17
679.940	1	-8
681.125	1	0
682.311	1	-4
683.496	1	-10
684.682	1	-2
685.867	1	3
687.053	1	0
688.238	1	2
688.746	1	-10

File: GaN_sample E_spot4_UVVIS_68 K_200um_200 ms 2x2mm1_724.txt
340.368	1	-3
341.565	1	-13
342.763	1	-10
343.960	1	-5
345.157	1	-7
346.354	1	-10
347.552	1	5
348.749	1	4
349.946	1	9
351.143	1	-13
352.340	1	-1
353.537	1	-7
354.734	1	-7
355.931	1	-6
357.127	1	5
358.324	1	-6
359.521	1	-9
360.718	1	-9
361.914	1	-3
363.111	1	5
364.308	1	5
365.504	1	-5
366.701	1	-10
367.897	1	-3
369.093	1	0
370.290	1	-1
371.486	1	0
372.682	1	-6
373.879	1	5
375.075	1	7
376.271	1	0
377.467	1	0
378.663	1	-2
379.859	1	-3
381.055	1	1
382.251	1	15
383.447	1	6
384.643	1	-1
385.839	1	0
387.035	1	-2
388.230	1	6
389.426	1	5
390.622	1	1
391.817	1	-2
393.013	1	8
394.208	1	4
395.404	1	6
396.599	1	4
397.795	1	3
398.990	1	5
400.186	1	10
401.381	1	15
402.576	1	16
403.771	1	1
404.967	1	5
406.162	1	-6
407.357	1	6
408.552	1	-2
409.747	1	2
410.942	1	-4
412.137	1	14
413.332	1	-5
414.526	1	-11
415.721	1	2
416.916	1	-9
418.111	1	-11
419.305	1	-1
420.500	1	-4
421.695	1	1
422.889	1	5
424.084	1	5
425.278	1	-16
426.472	1	-8
427.667	1	8
428.861	1	1
430.055	1	3
431.250	1	-2
432.444	1	8
433.638	1	-3
434.832	1	-10
436.026	1	3
437.220	1	2
438.414	1	4
439.608	1	-3
440.802	1	-3
441.996	1	-3
443.190	1	-6
444.384	1	-5
445.578	1	7
446.771	1	-6
447.965	1	-8
449.159	1	3
450.352	1	7
451.546	1	0
452.739	1	3
453.933	1	0
455.126	1	-1
456.320	1	0
457.513	1	13
458.706	1	4
459.899	1	12
461.093	1	-1
462.286	1	0
463.479	1	8
464.672	1	0
465.865	1	6
467.058	1	3
468.251	1	-5
469.444	1	-15
470.637	1	13
471.830	1	14
473.023	1	-5
474.215	1	-7
475.408	1	7
476.601	1	-1
477.793	1	4
478.986	1	3
480.179	1	-3
481.371	1	1
482.564	1	-14
483.756	1	11
484.948	1	-7
486.141	1	-2
487.333	1	-2
488.525	1	-6
489.718	1	-1
490.910	1	-9
492.102	1	-5
493.294	1	9
494.486	1	-1
495.678	1	4
496.870	1	-8
498.062	1	-2
499.254	1	5
500.446	1	10
501.638	1	-1
502.829	1	-7
504.021	1	17
505.213	1	-1
506.404	1	-6
507.596	1	3
508.788	1	-5
509.979	1	3
511.171	1	3
512.362	1	-8
513.553	1	-8
514.745	1	-8
515.936	1	10
517.127	1	0
518.319	1	-3
519.510	1	1
520.701	1	7
521.892	1	-12
523.083	1	-3
524.274	1	-5
525.465	1	6
526.656	1	25
527.847	1	-2
529.038	1	10
530.229	1	7
531.419	1	3
532.610	1	4
533.801	1	3
534.991	1	-1
536.182	1	4
537.373	1	2
538.563	1	-8
539.754	1	-3
540.944	1	-5
542.134	1	6
543.325	1	-9
544.515	1	-1
545.705	1	8
546.896	1	-2
548.086	1	0
549.276	1	9
550.466	1	-6
551.656	1	-12
552.846	1	-1
554.036	1	-1
555.226	1	-15
556.416	1	2
557.606	1	-15
558.796	1	-1
559.986	1	-6
561.175	1	4
562.365	1	-8
563.555	1	-1
564.744	1	7
565.934	1	-2
567.123	1	11
568.313	1	-8
569.502	1	-2
570.692	1	0
571.881	1	-6
573.070	1	9
574.260	1	-5
575.449	1	4
576.638	1	4
577.827	1	10
579.016	1	10
580.205	1	5
581.394	1	0
582.583	1	-9
583.772	1	-3
584.961	1	6
586.150	1	-1
587.339	1	3
588.528	1	3
589.717	1	11
590.905	1	4
592.094	1	9
593.283	1	10
594.471	1	3
595.660	1	-6
596.848	1	9
598.037	1	7
599.225	1	-8
600.413	1	-4
601.602	1	0
602.790	1	-10
603.978	1	1
605.166	1	3
606.355	1	8
607.543	1	-2
608.731	1	-3
609.919	1	-12
611.107	1	4
612.295	1	0
613.483	1	7
614.671	1	10
615.858	1	3
617.046	1	-1
618.234	1	-4
619.422	1	5
620.609	1	-4
621.797	1	1
622.985	1	2
624.172	1	3
625.360	1	-2
626.547	1	-2
627.735	1	8
628.922	1	-5
630.109	1	-3
631.297	1	-7
632.484	1	0
633.671	1	-3
634.858	1	10
636.045	1	-6
637.232	1	-7
638.419	1	3
639.606	1	13
640.793	1	3
641.980	1	-5
643.167	1	9
644.354	1	-2
645.541	1	-15
646.728	1	-3
647.914	1	-8
649.101	1	1
650.288	1	-3
651.474	1	1
652.661	1	-6
653.847	1	-5
655.034	1	-6
656.220	1	1
657.406	1	4
658.593	1	-8
659.779	1	-2
660.965	1	11
662.152	1	-11
663.338	1	-11
664.524	1	-10
665.710	1	-2
666.896	1	-1
668.082	1	-2
669.268	1	0
670.454	1	5
671.640	1	-13
672.826	1	-12
674.011	1	2
675.197	1	1
676.383	1	3
677.569	1	-8
678.754	1	-1
679.940	1	-4
681.125	1	4
682.311	1	0
683.496	1	-5
684.682	1	2
685.867	1	7
687.053	1	8
688.238	1	-5
688.746	1	5

File: GaN_sample E_spot4_UVVIS_68 K_200um_200 ms 2x2mm1_725.txt
340.368	1	4
341.565	1	-21
342.763	1	-6
343.960	1	-6
345.157	1	6
346.354	1	-3
347.552	1	7
348.749	1	10
349.946	1	7
351.143	1	-8
352.340	1	-4
353.537	1	1
354.734	1	2
355.931	1	5
357.127	1	2
358.324	1	-3
359.521	1	3
360.718	1	2
361.914	1	-2
363.111	1	11
364.308	1	-3
365.504	1	-2
366.701	1	-4
367.897	1	-4
369.093	1	-5
370.290	1	4
371.486	1	9
372.682	1	-14
373.879	1	10
375.075	1	6
376.271	1	-2
377.467	1	-6
378.663	1	1
379.859	1	1
381.055	1	0
382.251	1	3
383.447	1	0
384.643	1	1
385.839	1	3
387.035	1	3
388.230	1	7
389.426	1	11
390.622	1	-3
391.817	1	3
393.013	1	9
394.208	1	10
395.404	1	3
396.599	1	-1
397.795	1	2
398.990	1	6
400.186	1	9
401.381	1	6
402.576	1	17
403.771	1	-3
404.967	1	8
406.162	1	-13
407.357	1	7
408.552	1	5
409.747	1	-9
410.942	1	2
412.137	1	6
413.332	1	-1
414.526	1	-5
415.721	1	-1
416.916	1	-12
418.111	1	4
419.305	1	4
420.500	1	-2
421.695	1	1
422.889	1	7
424.084	1	4
425.278	1	-8
426.472	1	-6
427.667	1	12
428.861	1	3
430.055	1	-5
431.250	1	-10
432.444	1	7
433.638	1	3
434.832	1	-2
436.026	1	-2
437.220	1	4
438.414	1	-1
439.608	1	7
440.802	1	3
441.996	1	3
443.190	1	-5
444.384	1	0
445.578	1	1
446.771	1	1
447.965	1	4
449.159	1	-7
450.352	1	6
451.546	1	8
452.739	1	-4
453.933	1	2
455.126	1	-3
456.320	1	-1
457.513	1	2
458.706	1	0
459.899	1	8
461.093	1	-7
462.286	1	9
463.479	1	9
464.672	1	-1
465.865	1	-4
467.058	1	4
468.251	1	-8
469.444	1	3
470.637	1	8
471.830	1	11
473.023	1	-4
474.215	1	-2
475.408	1	4
476.601	1	1
477.793	1	9
478.986	1	-3
480.179	1	1
481.371	1	6
482.564	1	-2
483.756	1	11
484.948	1	-3
486.141	1	-6
487.333	1	4
488.525	1	-6
489.718	1	6
490.910	1	-8
492.102	1	-4
493.294	1	4
494.486	1	0
495.678	1	6
496.870	1	2
498.062	1	-2
499.254	1	-2
500.446	1	11
501.638	1	-1
502.829	1	3
504.021	1	16
505.213	1	-2
506.404	1	-1
507.596	1	10
508.788	1	3
509.979	1	0
511.171	1	9
512.362	1	6
513.553	1	-2
514.745	1	1
515.936	1	7
517.127	1	0
518.319	1	0
519.510	1	-2
520.701	1	9
521.892	1	-15
523.083	1	-2
524.274	1	-14
525.465	1	-8
526.656	1	20
527.847	1	-5
529.038	1	6
530.229	1	1
531.419	1	13
532.610	1	2
533.801	1	4
534.991	1	-6
536.182	1	-1
537.373	1	-14
538.563	1	-1
539.754	1	-9
540.944	1	1
542.134	1	4
543.325	1	-2
544.515	1	7
545.705	1	12
546.896	1	2
548.086	1	-6
549.276	1	9
550.466	1	6
551.656	1	-10
552.846	1	0
554.036	1	-2
555.226	1	-3
556.416	1	2
557.606	1	-7
558.796	1	-1
559.986	1	-5
561.175	1	-6
562.365	1	-2
563.555	1	6
564.744	1	6
565.934	1	4
567.123	1	8
568.313	1	-11
569.502	1	-1
570.692	1	-6
571.881	1	7
573.070	1	9
574.260	1	0
575.449	1	-2
576.638	1	1
577.827	1	5
579.016	1	9
580.205	1	-5
581.394	1	-6
582.583	1	-7
583.772	1	-2
584.961	1	7
586.150	1	8
587.339	1	0
588.528	1	5
589.717	1	3
590.905	1	7
592.094	1	1
593.283	1	5
594.471	1	6
595.660	1	0
596.848	1	15
598.037	1	9
599.225	1	10
600.413	1	4
601.602	1	1
602.790	1	-3
603.978	1	-6
605.166	1	-5
606.355	1	18
607.543	1	-5
608.731	1	-10
609.919	1	-4
611.107	1	8
612.295	1	1
613.483	1	10
614.671	1	-1
615.858	1	-3
617.046	1	0
618.234	1	-5
619.422	1	4
620.609	1	-7
621.797	1	3
622.985	1	8
624.172	1	0
625.360	1	-7
626.547	1	1
627.735	1	6
628.922	1	0
630.109	1	-2
631.297	1	-1
632.484	1	0
633.671	1	6
634.858	1	1
636.045	1	-2
637.232	1	-2
638.419	1	4
639.606	1	5
640.793	1	-2
641.980	1	1
643.167	1	14
644.354	1	-6
645.541	1	-7
646.728	1	8
647.914	1	-8
649.101	1	1
650.288	1	-4
651.474	1	4
652.661	1	2
653.847	1	8
655.034	1	-3
656.220	1	3
657.406	1	-3
658.593	1	-6
659.779	1	-10
660.965	1	-5
662.152	1	1
663.338	1	-1
664.524	1	-9
665.710	1	-8
666.896	1	-9
668.082	1	0
669.268	1	-1
670.454	1	-5
671.640	1	-6
672.826	1	-7
674.011	1	7
675.197	1	-2
676.383	1	-2
677.569	1	-14
678.754	1	-1
679.940	1	-6
681.125	1	3
682.311	1	1
683.496	1	-3
684.682	1	-1
685.867	1	-4
687.053	1	-3
688.238	1	3
688.746	1	14