Folder: cryo-il_analysis/Analysis/GaN_68K_200ms (part 3)

File: GaN_sample E_spot4_UVVIS_68 K_200um_200 ms 2x2mm1_72.txt
340.368	1	2
341.565	1	6
342.763	1	2
343.960	1	2
345.157	1	1
346.354	1	2
347.552	1	-4
348.749	1	4
349.946	1	3
351.143	1	-12
352.340	1	-4
353.537	1	1
354.734	1	9
355.931	1	4
357.127	1	7
358.324	1	-9
359.521	1	1
360.718	1	2
361.914	1	-4
363.111	1	5
364.308	1	-2
365.504	1	3
366.701	1	-1
367.897	1	1
369.093	1	-3
370.290	1	2
371.486	1	11
372.682	1	1
373.879	1	10
375.075	1	7
376.271	1	-6
377.467	1	-4
378.663	1	-2
379.859	1	-7
381.055	1	1
382.251	1	12
383.447	1	4
384.643	1	4
385.839	1	4
387.035	1	-5
388.230	1	-5
389.426	1	3
390.622	1	-2
391.817	1	-4
393.013	1	9
394.208	1	3
395.404	1	9
396.599	1	1
397.795	1	8
398.990	1	5
400.186	1	10
401.381	1	2
402.576	1	3
403.771	1	5
404.967	1	3
406.162	1	-6
407.357	1	2
408.552	1	3
409.747	1	2
410.942	1	-1
412.137	1	11
413.332	1	-4
414.526	1	8
415.721	1	1
416.916	1	3
418.111	1	-2
419.305	1	-2
420.500	1	6
421.695	1	-4
422.889	1	8
424.084	1	4
425.278	1	-8
426.472	1	0
427.667	1	10
428.861	1	3
430.055	1	-2
431.250	1	-15
432.444	1	7
433.638	1	3
434.832	1	-1
436.026	1	3
437.220	1	8
438.414	1	10
439.608	1	-4
440.802	1	-2
441.996	1	4
443.190	1	-10
444.384	1	7
445.578	1	14
446.771	1	-5
447.965	1	-3
449.159	1	-1
450.352	1	4
451.546	1	-1
452.739	1	-8
453.933	1	11
455.126	1	-8
456.320	1	0
457.513	1	14
458.706	1	0
459.899	1	14
461.093	1	8
462.286	1	6
463.479	1	7
464.672	1	5
465.865	1	-15
467.058	1	4
468.251	1	6
469.444	1	-2
470.637	1	9
471.830	1	16
473.023	1	-3
474.215	1	3
475.408	1	0
476.601	1	0
477.793	1	8
478.986	1	-5
480.179	1	2
481.371	1	7
482.564	1	-4
483.756	1	6
484.948	1	-4
486.141	1	-6
487.333	1	4
488.525	1	0
489.718	1	-5
490.910	1	-2
492.102	1	-2
493.294	1	8
494.486	1	-3
495.678	1	2
496.870	1	-1
498.062	1	-3
499.254	1	3
500.446	1	2
501.638	1	7
502.829	1	-4
504.021	1	18
505.213	1	-2
506.404	1	-12
507.596	1	9
508.788	1	6
509.979	1	0
511.171	1	11
512.362	1	-1
513.553	1	-1
514.745	1	-1
515.936	1	9
517.127	1	3
518.319	1	-3
519.510	1	-3
520.701	1	8
521.892	1	-12
523.083	1	-3
524.274	1	-5
525.465	1	-6
526.656	1	13
527.847	1	-4
529.038	1	0
530.229	1	-1
531.419	1	7
532.610	1	5
533.801	1	2
534.991	1	-3
536.182	1	-8
537.373	1	-2
538.563	1	-4
539.754	1	-9
540.944	1	-11
542.134	1	14
543.325	1	6
544.515	1	0
545.705	1	7
546.896	1	1
548.086	1	7
549.276	1	3
550.466	1	-3
551.656	1	-5
552.846	1	7
554.036	1	-3
555.226	1	-4
556.416	1	2
557.606	1	-6
558.796	1	-1
559.986	1	-6
561.175	1	2
562.365	1	12
563.555	1	10
564.744	1	5
565.934	1	7
567.123	1	13
568.313	1	-6
569.502	1	13
570.692	1	6
571.881	1	2
573.070	1	9
574.260	1	-5
575.449	1	-3
576.638	1	-6
577.827	1	12
579.016	1	11
580.205	1	9
581.394	1	-4
582.583	1	-17
583.772	1	0
584.961	1	-3
586.150	1	1
587.339	1	11
588.528	1	4
589.717	1	7
590.905	1	16
592.094	1	-1
593.283	1	6
594.471	1	4
595.660	1	0
596.848	1	7
598.037	1	8
599.225	1	2
600.413	1	1
601.602	1	1
602.790	1	-5
603.978	1	7
605.166	1	-2
606.355	1	7
607.543	1	-1
608.731	1	-5
609.919	1	-3
611.107	1	6
612.295	1	-3
613.483	1	6
614.671	1	2
615.858	1	2
617.046	1	1
618.234	1	-1
619.422	1	-6
620.609	1	0
621.797	1	5
622.985	1	5
624.172	1	6
625.360	1	-10
626.547	1	4
627.735	1	-5
628.922	1	-2
630.109	1	1
631.297	1	-3
632.484	1	-2
633.671	1	6
634.858	1	2
636.045	1	8
637.232	1	3
638.419	1	3
639.606	1	9
640.793	1	10
641.980	1	-2
643.167	1	6
644.354	1	-13
645.541	1	-3
646.728	1	-5
647.914	1	-4
649.101	1	1
650.288	1	1
651.474	1	-1
652.661	1	1
653.847	1	6
655.034	1	5
656.220	1	4
657.406	1	9
658.593	1	-3
659.779	1	1
660.965	1	4
662.152	1	-2
663.338	1	5
664.524	1	-6
665.710	1	-5
666.896	1	0
668.082	1	4
669.268	1	1
670.454	1	6
671.640	1	-21
672.826	1	-10
674.011	1	9
675.197	1	2
676.383	1	-1
677.569	1	2
678.754	1	-2
679.940	1	2
681.125	1	10
682.311	1	-8
683.496	1	6
684.682	1	12
685.867	1	-1
687.053	1	6
688.238	1	-11
688.746	1	0

File: GaN_sample E_spot4_UVVIS_68 K_200um_200 ms 2x2mm1_73.txt
340.368	1	0
341.565	1	-6
342.763	1	1
343.960	1	-1
345.157	1	2
346.354	1	-7
347.552	1	-3
348.749	1	3
349.946	1	7
351.143	1	-8
352.340	1	3
353.537	1	-4
354.734	1	5
355.931	1	8
357.127	1	-11
358.324	1	0
359.521	1	-2
360.718	1	0
361.914	1	-3
363.111	1	4
364.308	1	-3
365.504	1	-6
366.701	1	-5
367.897	1	4
369.093	1	-9
370.290	1	0
371.486	1	11
372.682	1	-5
373.879	1	10
375.075	1	11
376.271	1	-3
377.467	1	0
378.663	1	1
379.859	1	2
381.055	1	6
382.251	1	10
383.447	1	-2
384.643	1	5
385.839	1	-2
387.035	1	-4
388.230	1	2
389.426	1	8
390.622	1	3
391.817	1	-8
393.013	1	10
394.208	1	7
395.404	1	-4
396.599	1	6
397.795	1	2
398.990	1	3
400.186	1	3
401.381	1	-1
402.576	1	4
403.771	1	5
404.967	1	2
406.162	1	-2
407.357	1	8
408.552	1	13
409.747	1	0
410.942	1	-2
412.137	1	5
413.332	1	-6
414.526	1	4
415.721	1	8
416.916	1	-1
418.111	1	6
419.305	1	-3
420.500	1	12
421.695	1	7
422.889	1	5
424.084	1	7
425.278	1	-3
426.472	1	-1
427.667	1	7
428.861	1	2
430.055	1	-9
431.250	1	-2
432.444	1	12
433.638	1	2
434.832	1	-4
436.026	1	2
437.220	1	3
438.414	1	-3
439.608	1	-4
440.802	1	13
441.996	1	14
443.190	1	1
444.384	1	3
445.578	1	15
446.771	1	-3
447.965	1	-10
449.159	1	1
450.352	1	3
451.546	1	13
452.739	1	4
453.933	1	-7
455.126	1	4
456.320	1	0
457.513	1	13
458.706	1	4
459.899	1	9
461.093	1	2
462.286	1	4
463.479	1	14
464.672	1	4
465.865	1	-4
467.058	1	7
468.251	1	-6
469.444	1	-5
470.637	1	10
471.830	1	11
473.023	1	-4
474.215	1	0
475.408	1	-1
476.601	1	1
477.793	1	7
478.986	1	2
480.179	1	-1
481.371	1	9
482.564	1	-11
483.756	1	10
484.948	1	-1
486.141	1	-5
487.333	1	6
488.525	1	-2
489.718	1	-7
490.910	1	5
492.102	1	-3
493.294	1	3
494.486	1	0
495.678	1	7
496.870	1	1
498.062	1	7
499.254	1	7
500.446	1	10
501.638	1	2
502.829	1	0
504.021	1	20
505.213	1	-4
506.404	1	-2
507.596	1	3
508.788	1	-6
509.979	1	-1
511.171	1	15
512.362	1	8
513.553	1	0
514.745	1	1
515.936	1	4
517.127	1	8
518.319	1	-3
519.510	1	-3
520.701	1	5
521.892	1	-8
523.083	1	-7
524.274	1	0
525.465	1	0
526.656	1	21
527.847	1	-2
529.038	1	8
530.229	1	7
531.419	1	9
532.610	1	-4
533.801	1	8
534.991	1	-1
536.182	1	5
537.373	1	-10
538.563	1	0
539.754	1	0
540.944	1	3
542.134	1	12
543.325	1	-7
544.515	1	-1
545.705	1	7
546.896	1	7
548.086	1	4
549.276	1	4
550.466	1	-5
551.656	1	-6
552.846	1	6
554.036	1	-1
555.226	1	-1
556.416	1	-1
557.606	1	-8
558.796	1	2
559.986	1	4
561.175	1	-7
562.365	1	7
563.555	1	4
564.744	1	7
565.934	1	5
567.123	1	14
568.313	1	1
569.502	1	8
570.692	1	9
571.881	1	12
573.070	1	0
574.260	1	-3
575.449	1	7
576.638	1	6
577.827	1	15
579.016	1	12
580.205	1	10
581.394	1	-4
582.583	1	-4
583.772	1	-4
584.961	1	-1
586.150	1	1
587.339	1	1
588.528	1	-1
589.717	1	2
590.905	1	10
592.094	1	2
593.283	1	6
594.471	1	6
595.660	1	4
596.848	1	5
598.037	1	5
599.225	1	-2
600.413	1	-5
601.602	1	1
602.790	1	3
603.978	1	3
605.166	1	6
606.355	1	6
607.543	1	-7
608.731	1	2
609.919	1	-5
611.107	1	10
612.295	1	-2
613.483	1	4
614.671	1	1
615.858	1	-1
617.046	1	-4
618.234	1	7
619.422	1	7
620.609	1	0
621.797	1	6
622.985	1	5
624.172	1	3
625.360	1	-5
626.547	1	3
627.735	1	8
628.922	1	5
630.109	1	1
631.297	1	0
632.484	1	-3
633.671	1	9
634.858	1	1
636.045	1	-3
637.232	1	-5
638.419	1	3
639.606	1	8
640.793	1	6
641.980	1	5
643.167	1	13
644.354	1	-4
645.541	1	-17
646.728	1	0
647.914	1	1
649.101	1	3
650.288	1	-3
651.474	1	8
652.661	1	0
653.847	1	7
655.034	1	2
656.220	1	6
657.406	1	-1
658.593	1	-1
659.779	1	-2
660.965	1	1
662.152	1	-2
663.338	1	-8
664.524	1	-8
665.710	1	-3
666.896	1	1
668.082	1	0
669.268	1	1
670.454	1	6
671.640	1	-16
672.826	1	-4
674.011	1	2
675.197	1	-2
676.383	1	-3
677.569	1	-12
678.754	1	-3
679.940	1	-4
681.125	1	14
682.311	1	2
683.496	1	-2
684.682	1	5
685.867	1	1
687.053	1	-2
688.238	1	-5
688.746	1	9

File: GaN_sample E_spot4_UVVIS_68 K_200um_200 ms 2x2mm1_78.txt
340.368	1	2
341.565	1	2
342.763	1	1
343.960	1	-5
345.157	1	2
346.354	1	-2
347.552	1	8
348.749	1	4
349.946	1	13
351.143	1	-10
352.340	1	3
353.537	1	-5
354.734	1	-3
355.931	1	2
357.127	1	7
358.324	1	-7
359.521	1	3
360.718	1	-4
361.914	1	1
363.111	1	11
364.308	1	0
365.504	1	-2
366.701	1	-3
367.897	1	-7
369.093	1	-3
370.290	1	1
371.486	1	11
372.682	1	-7
373.879	1	4
375.075	1	8
376.271	1	-5
377.467	1	-6
378.663	1	-13
379.859	1	1
381.055	1	3
382.251	1	9
383.447	1	11
384.643	1	7
385.839	1	7
387.035	1	1
388.230	1	-10
389.426	1	-1
390.622	1	-3
391.817	1	-1
393.013	1	3
394.208	1	9
395.404	1	10
396.599	1	0
397.795	1	10
398.990	1	-3
400.186	1	0
401.381	1	-1
402.576	1	13
403.771	1	-2
404.967	1	6
406.162	1	-8
407.357	1	-1
408.552	1	2
409.747	1	-2
410.942	1	1
412.137	1	6
413.332	1	6
414.526	1	3
415.721	1	4
416.916	1	0
418.111	1	0
419.305	1	6
420.500	1	5
421.695	1	6
422.889	1	1
424.084	1	5
425.278	1	-11
426.472	1	-4
427.667	1	5
428.861	1	-4
430.055	1	6
431.250	1	-13
432.444	1	6
433.638	1	8
434.832	1	-6
436.026	1	7
437.220	1	9
438.414	1	-1
439.608	1	0
440.802	1	12
441.996	1	-6
443.190	1	-6
444.384	1	-3
445.578	1	4
446.771	1	-4
447.965	1	-4
449.159	1	-7
450.352	1	2
451.546	1	9
452.739	1	8
453.933	1	15
455.126	1	-4
456.320	1	6
457.513	1	17
458.706	1	-2
459.899	1	7
461.093	1	1
462.286	1	13
463.479	1	7
464.672	1	4
465.865	1	-2
467.058	1	13
468.251	1	-1
469.444	1	3
470.637	1	14
471.830	1	18
473.023	1	-8
474.215	1	4
475.408	1	0
476.601	1	10
477.793	1	12
478.986	1	3
480.179	1	7
481.371	1	12
482.564	1	2
483.756	1	16
484.948	1	-5
486.141	1	-16
487.333	1	6
488.525	1	1
489.718	1	-3
490.910	1	-3
492.102	1	-1
493.294	1	4
494.486	1	8
495.678	1	6
496.870	1	11
498.062	1	-1
499.254	1	-3
500.446	1	3
501.638	1	3
502.829	1	4
504.021	1	25
505.213	1	6
506.404	1	-7
507.596	1	6
508.788	1	-3
509.979	1	-2
511.171	1	11
512.362	1	3
513.553	1	-18
514.745	1	4
515.936	1	2
517.127	1	9
518.319	1	-2
519.510	1	2
520.701	1	3
521.892	1	-3
523.083	1	2
524.274	1	-5
525.465	1	3
526.656	1	17
527.847	1	-13
529.038	1	7
530.229	1	1
531.419	1	2
532.610	1	2
533.801	1	-1
534.991	1	4
536.182	1	-1
537.373	1	-2
538.563	1	-6
539.754	1	2
540.944	1	5
542.134	1	2
543.325	1	-7
544.515	1	7
545.705	1	5
546.896	1	-7
548.086	1	9
549.276	1	2
550.466	1	1
551.656	1	-12
552.846	1	8
554.036	1	1
555.226	1	-3
556.416	1	6
557.606	1	-6
558.796	1	0
559.986	1	-5
561.175	1	4
562.365	1	0
563.555	1	8
564.744	1	5
565.934	1	1
567.123	1	21
568.313	1	0
569.502	1	4
570.692	1	2
571.881	1	6
573.070	1	11
574.260	1	-1
575.449	1	5
576.638	1	3
577.827	1	12
579.016	1	19
580.205	1	3
581.394	1	-4
582.583	1	-6
583.772	1	0
584.961	1	8
586.150	1	0
587.339	1	10
588.528	1	2
589.717	1	0
590.905	1	11
592.094	1	6
593.283	1	9
594.471	1	-3
595.660	1	-1
596.848	1	13
598.037	1	-2
599.225	1	5
600.413	1	-5
601.602	1	8
602.790	1	6
603.978	1	4
605.166	1	0
606.355	1	5
607.543	1	-7
608.731	1	4
609.919	1	-7
611.107	1	13
612.295	1	-3
613.483	1	5
614.671	1	2
615.858	1	7
617.046	1	-1
618.234	1	6
619.422	1	5
620.609	1	7
621.797	1	2
622.985	1	-2
624.172	1	6
625.360	1	-5
626.547	1	2
627.735	1	8
628.922	1	0
630.109	1	2
631.297	1	-11
632.484	1	-11
633.671	1	9
634.858	1	13
636.045	1	12
637.232	1	-9
638.419	1	4
639.606	1	8
640.793	1	12
641.980	1	-1
643.167	1	6
644.354	1	0
645.541	1	-15
646.728	1	4
647.914	1	2
649.101	1	-2
650.288	1	1
651.474	1	3
652.661	1	5
653.847	1	5
655.034	1	6
656.220	1	6
657.406	1	-1
658.593	1	-4
659.779	1	-2
660.965	1	-4
662.152	1	3
663.338	1	-5
664.524	1	-8
665.710	1	-12
666.896	1	-11
668.082	1	0
669.268	1	-2
670.454	1	1
671.640	1	-10
672.826	1	-9
674.011	1	8
675.197	1	-5
676.383	1	8
677.569	1	0
678.754	1	2
679.940	1	1
681.125	1	-2
682.311	1	-4
683.496	1	-4
684.682	1	9
685.867	1	2
687.053	1	9
688.238	1	1
688.746	1	5

File: GaN_sample E_spot4_UVVIS_68 K_200um_200 ms 2x2mm1_79.txt
340.368	1	-6
341.565	1	-3
342.763	1	1
343.960	1	-6
345.157	1	0
346.354	1	2
347.552	1	1
348.749	1	2
349.946	1	8
351.143	1	-6
352.340	1	2
353.537	1	1
354.734	1	4
355.931	1	3
357.127	1	6
358.324	1	6
359.521	1	-1
360.718	1	-5
361.914	1	1
363.111	1	-1
364.308	1	2
365.504	1	-1
366.701	1	-10
367.897	1	-1
369.093	1	-1
370.290	1	-2
371.486	1	13
372.682	1	2
373.879	1	1
375.075	1	-1
376.271	1	-2
377.467	1	3
378.663	1	4
379.859	1	0
381.055	1	6
382.251	1	6
383.447	1	5
384.643	1	14
385.839	1	4
387.035	1	-5
388.230	1	-1
389.426	1	15
390.622	1	-8
391.817	1	-4
393.013	1	10
394.208	1	11
395.404	1	4
396.599	1	5
397.795	1	8
398.990	1	8
400.186	1	9
401.381	1	13
402.576	1	14
403.771	1	2
404.967	1	3
406.162	1	-3
407.357	1	4
408.552	1	6
409.747	1	-1
410.942	1	0
412.137	1	2
413.332	1	-1
414.526	1	7
415.721	1	1
416.916	1	-13
418.111	1	3
419.305	1	0
420.500	1	7
421.695	1	-2
422.889	1	6
424.084	1	4
425.278	1	-7
426.472	1	-5
427.667	1	8
428.861	1	-9
430.055	1	4
431.250	1	-10
432.444	1	9
433.638	1	7
434.832	1	-9
436.026	1	4
437.220	1	5
438.414	1	1
439.608	1	6
440.802	1	-4
441.996	1	-2
443.190	1	-20
444.384	1	-1
445.578	1	9
446.771	1	-2
447.965	1	-9
449.159	1	-10
450.352	1	7
451.546	1	9
452.739	1	1
453.933	1	8
455.126	1	6
456.320	1	2
457.513	1	8
458.706	1	4
459.899	1	14
461.093	1	9
462.286	1	9
463.479	1	10
464.672	1	8
465.865	1	-5
467.058	1	10
468.251	1	-3
469.444	1	3
470.637	1	8
471.830	1	12
473.023	1	3
474.215	1	-5
475.408	1	10
476.601	1	0
477.793	1	10
478.986	1	-5
480.179	1	-3
481.371	1	4
482.564	1	-5
483.756	1	16
484.948	1	-11
486.141	1	-7
487.333	1	5
488.525	1	-3
489.718	1	-1
490.910	1	-8
492.102	1	-4
493.294	1	13
494.486	1	1
495.678	1	9
496.870	1	0
498.062	1	-1
499.254	1	1
500.446	1	8
501.638	1	0
502.829	1	9
504.021	1	12
505.213	1	-5
506.404	1	-2
507.596	1	2
508.788	1	2
509.979	1	-5
511.171	1	8
512.362	1	5
513.553	1	-3
514.745	1	3
515.936	1	-1
517.127	1	1
518.319	1	2
519.510	1	0
520.701	1	4
521.892	1	-6
523.083	1	6
524.274	1	0
525.465	1	1
526.656	1	9
527.847	1	-4
529.038	1	8
530.229	1	8
531.419	1	-6
532.610	1	10
533.801	1	9
534.991	1	1
536.182	1	-1
537.373	1	-2
538.563	1	0
539.754	1	1
540.944	1	-6
542.134	1	13
543.325	1	1
544.515	1	3
545.705	1	4
546.896	1	7
548.086	1	11
549.276	1	9
550.466	1	-6
551.656	1	-8
552.846	1	1
554.036	1	-1
555.226	1	-2
556.416	1	7
557.606	1	-3
558.796	1	0
559.986	1	2
561.175	1	-13
562.365	1	0
563.555	1	15
564.744	1	7
565.934	1	-1
567.123	1	14
568.313	1	2
569.502	1	6
570.692	1	1
571.881	1	7
573.070	1	8
574.260	1	3
575.449	1	7
576.638	1	11
577.827	1	8
579.016	1	6
580.205	1	-6
581.394	1	5
582.583	1	-11
583.772	1	0
584.961	1	4
586.150	1	14
587.339	1	7
588.528	1	4
589.717	1	9
590.905	1	14
592.094	1	14
593.283	1	1
594.471	1	4
595.660	1	3
596.848	1	7
598.037	1	14
599.225	1	1
600.413	1	-8
601.602	1	12
602.790	1	4
603.978	1	-2
605.166	1	-7
606.355	1	14
607.543	1	-7
608.731	1	-8
609.919	1	-1
611.107	1	8
612.295	1	7
613.483	1	6
614.671	1	0
615.858	1	5
617.046	1	15
618.234	1	4
619.422	1	-2
620.609	1	2
621.797	1	-3
622.985	1	2
624.172	1	13
625.360	1	-8
626.547	1	-4
627.735	1	13
628.922	1	-5
630.109	1	6
631.297	1	0
632.484	1	-6
633.671	1	5
634.858	1	6
636.045	1	4
637.232	1	4
638.419	1	3
639.606	1	17
640.793	1	6
641.980	1	-6
643.167	1	9
644.354	1	-6
645.541	1	-6
646.728	1	7
647.914	1	-5
649.101	1	2
650.288	1	-3
651.474	1	7
652.661	1	-1
653.847	1	-1
655.034	1	-2
656.220	1	3
657.406	1	1
658.593	1	-9
659.779	1	3
660.965	1	1
662.152	1	6
663.338	1	-2
664.524	1	-3
665.710	1	3
666.896	1	9
668.082	1	9
669.268	1	-4
670.454	1	3
671.640	1	-10
672.826	1	-12
674.011	1	13
675.197	1	4
676.383	1	3
677.569	1	0
678.754	1	-2
679.940	1	2
681.125	1	2
682.311	1	0
683.496	1	-6
684.682	1	9
685.867	1	0
687.053	1	7
688.238	1	5
688.746	1	9

File: GaN_sample E_spot4_UVVIS_68 K_200um_200 ms 2x2mm1_85.txt
340.368	1	-7
341.565	1	0
342.763	1	-6
343.960	1	3
345.157	1	2
346.354	1	-6
347.552	1	-10
348.749	1	7
349.946	1	11
351.143	1	-4
352.340	1	-2
353.537	1	-1
354.734	1	-1
355.931	1	-4
357.127	1	10
358.324	1	-2
359.521	1	-3
360.718	1	-9
361.914	1	6
363.111	1	11
364.308	1	3
365.504	1	-9
366.701	1	-4
367.897	1	7
369.093	1	-3
370.290	1	3
371.486	1	13
372.682	1	2
373.879	1	12
375.075	1	6
376.271	1	-9
377.467	1	0
378.663	1	-7
379.859	1	-5
381.055	1	2
382.251	1	7
383.447	1	7
384.643	1	3
385.839	1	-1
387.035	1	-3
388.230	1	1
389.426	1	4
390.622	1	-6
391.817	1	2
393.013	1	8
394.208	1	7
395.404	1	-3
396.599	1	-3
397.795	1	0
398.990	1	-7
400.186	1	12
401.381	1	14
402.576	1	10
403.771	1	11
404.967	1	5
406.162	1	-2
407.357	1	5
408.552	1	5
409.747	1	-3
410.942	1	3
412.137	1	10
413.332	1	8
414.526	1	-4
415.721	1	6
416.916	1	5
418.111	1	7
419.305	1	8
420.500	1	0
421.695	1	6
422.889	1	-1
424.084	1	-4
425.278	1	-6
426.472	1	-4
427.667	1	8
428.861	1	3
430.055	1	-2
431.250	1	-7
432.444	1	10
433.638	1	2
434.832	1	-1
436.026	1	6
437.220	1	10
438.414	1	2
439.608	1	-4
440.802	1	-1
441.996	1	-4
443.190	1	-14
444.384	1	-3
445.578	1	13
446.771	1	-1
447.965	1	-10
449.159	1	-9
450.352	1	3
451.546	1	7
452.739	1	7
453.933	1	12
455.126	1	1
456.320	1	1
457.513	1	11
458.706	1	2
459.899	1	5
461.093	1	8
462.286	1	4
463.479	1	17
464.672	1	4
465.865	1	-5
467.058	1	7
468.251	1	-8
469.444	1	-3
470.637	1	9
471.830	1	22
473.023	1	5
474.215	1	-9
475.408	1	6
476.601	1	1
477.793	1	12
478.986	1	4
480.179	1	6
481.371	1	4
482.564	1	-5
483.756	1	0
484.948	1	3
486.141	1	-7
487.333	1	3
488.525	1	1
489.718	1	-2
490.910	1	-2
492.102	1	-3
493.294	1	11
494.486	1	2
495.678	1	2
496.870	1	0
498.062	1	-1
499.254	1	2
500.446	1	6
501.638	1	8
502.829	1	1
504.021	1	18
505.213	1	9
506.404	1	-2
507.596	1	6
508.788	1	3
509.979	1	-1
511.171	1	7
512.362	1	-11
513.553	1	-7
514.745	1	-3
515.936	1	5
517.127	1	3
518.319	1	-6
519.510	1	3
520.701	1	10
521.892	1	-7
523.083	1	-12
524.274	1	-4
525.465	1	4
526.656	1	17
527.847	1	-7
529.038	1	4
530.229	1	-3
531.419	1	5
532.610	1	3
533.801	1	4
534.991	1	-2
536.182	1	-4
537.373	1	5
538.563	1	-1
539.754	1	-5
540.944	1	-4
542.134	1	10
543.325	1	-7
544.515	1	0
545.705	1	3
546.896	1	0
548.086	1	1
549.276	1	9
550.466	1	-6
551.656	1	-2
552.846	1	10
554.036	1	-2
555.226	1	2
556.416	1	2
557.606	1	-5
558.796	1	4
559.986	1	-9
561.175	1	-3
562.365	1	6
563.555	1	6
564.744	1	8
565.934	1	6
567.123	1	15
568.313	1	-7
569.502	1	-3
570.692	1	3
571.881	1	8
573.070	1	7
574.260	1	0
575.449	1	11
576.638	1	-3
577.827	1	4
579.016	1	10
580.205	1	7
581.394	1	1
582.583	1	-10
583.772	1	-6
584.961	1	-5
586.150	1	2
587.339	1	-2
588.528	1	10
589.717	1	2
590.905	1	0
592.094	1	-1
593.283	1	8
594.471	1	9
595.660	1	-2
596.848	1	3
598.037	1	-5
599.225	1	3
600.413	1	-2
601.602	1	5
602.790	1	4
603.978	1	8
605.166	1	-2
606.355	1	8
607.543	1	-7
608.731	1	-8
609.919	1	-4
611.107	1	9
612.295	1	2
613.483	1	12
614.671	1	9
615.858	1	10
617.046	1	10
618.234	1	10
619.422	1	0
620.609	1	0
621.797	1	7
622.985	1	3
624.172	1	6
625.360	1	-3
626.547	1	9
627.735	1	5
628.922	1	0
630.109	1	6
631.297	1	0
632.484	1	-4
633.671	1	-1
634.858	1	14
636.045	1	5
637.232	1	0
638.419	1	10
639.606	1	14
640.793	1	5
641.980	1	0
643.167	1	16
644.354	1	8
645.541	1	-6
646.728	1	-9
647.914	1	3
649.101	1	-2
650.288	1	5
651.474	1	6
652.661	1	4
653.847	1	4
655.034	1	0
656.220	1	3
657.406	1	0
658.593	1	-13
659.779	1	-3
660.965	1	-2
662.152	1	-5
663.338	1	-1
664.524	1	-2
665.710	1	-3
666.896	1	-5
668.082	1	0
669.268	1	0
670.454	1	-1
671.640	1	-15
672.826	1	-15
674.011	1	2
675.197	1	-7
676.383	1	-1
677.569	1	-8
678.754	1	1
679.940	1	-5
681.125	1	4
682.311	1	3
683.496	1	1
684.682	1	10
685.867	1	2
687.053	1	6
688.238	1	8
688.746	1	3

File: GaN_sample E_spot4_UVVIS_68 K_200um_200 ms 2x2mm1_96.txt
340.368	1	-4
341.565	1	-8
342.763	1	-3
343.960	1	5
345.157	1	18
346.354	1	-6
347.552	1	2
348.749	1	7
349.946	1	12
351.143	1	-7
352.340	1	3
353.537	1	5
354.734	1	10
355.931	1	5
357.127	1	2
358.324	1	-1
359.521	1	-4
360.718	1	2
361.914	1	2
363.111	1	12
364.308	1	-7
365.504	1	-5
366.701	1	1
367.897	1	0
369.093	1	1
370.290	1	1
371.486	1	2
372.682	1	4
373.879	1	8
375.075	1	6
376.271	1	-6
377.467	1	0
378.663	1	-1
379.859	1	-3
381.055	1	5
382.251	1	2
383.447	1	3
384.643	1	0
385.839	1	0
387.035	1	-12
388.230	1	-7
389.426	1	9
390.622	1	-3
391.817	1	4
393.013	1	10
394.208	1	5
395.404	1	-2
396.599	1	4
397.795	1	3
398.990	1	1
400.186	1	11
401.381	1	-1
402.576	1	8
403.771	1	-1
404.967	1	1
406.162	1	-4
407.357	1	0
408.552	1	1
409.747	1	6
410.942	1	9
412.137	1	6
413.332	1	6
414.526	1	6
415.721	1	1
416.916	1	5
418.111	1	6
419.305	1	6
420.500	1	3
421.695	1	3
422.889	1	1
424.084	1	7
425.278	1	-12
426.472	1	-4
427.667	1	11
428.861	1	7
430.055	1	1
431.250	1	-12
432.444	1	8
433.638	1	-4
434.832	1	-3
436.026	1	0
437.220	1	2
438.414	1	0
439.608	1	1
440.802	1	1
441.996	1	1
443.190	1	-8
444.384	1	2
445.578	1	11
446.771	1	-8
447.965	1	-8
449.159	1	-8
450.352	1	11
451.546	1	3
452.739	1	5
453.933	1	13
455.126	1	0
456.320	1	3
457.513	1	4
458.706	1	1
459.899	1	11
461.093	1	5
462.286	1	10
463.479	1	15
464.672	1	1
465.865	1	-9
467.058	1	15
468.251	1	-3
469.444	1	0
470.637	1	9
471.830	1	19
473.023	1	1
474.215	1	1
475.408	1	-1
476.601	1	0
477.793	1	7
478.986	1	15
480.179	1	-2
481.371	1	-1
482.564	1	-10
483.756	1	6
484.948	1	-6
486.141	1	-11
487.333	1	10
488.525	1	-5
489.718	1	-9
490.910	1	-8
492.102	1	-5
493.294	1	12
494.486	1	3
495.678	1	10
496.870	1	0
498.062	1	2
499.254	1	6
500.446	1	0
501.638	1	9
502.829	1	2
504.021	1	11
505.213	1	-2
506.404	1	-5
507.596	1	5
508.788	1	-5
509.979	1	-5
511.171	1	7
512.362	1	1
513.553	1	-1
514.745	1	-10
515.936	1	7
517.127	1	3
518.319	1	-4
519.510	1	5
520.701	1	-5
521.892	1	-11
523.083	1	-2
524.274	1	-9
525.465	1	5
526.656	1	17
527.847	1	-10
529.038	1	5
530.229	1	11
531.419	1	3
532.610	1	3
533.801	1	4
534.991	1	3
536.182	1	-5
537.373	1	-6
538.563	1	2
539.754	1	0
540.944	1	5
542.134	1	8
543.325	1	2
544.515	1	-1
545.705	1	3
546.896	1	0
548.086	1	2
549.276	1	6
550.466	1	-4
551.656	1	-9
552.846	1	0
554.036	1	0
555.226	1	-9
556.416	1	10
557.606	1	-1
558.796	1	-4
559.986	1	-5
561.175	1	-1
562.365	1	8
563.555	1	20
564.744	1	2
565.934	1	-2
567.123	1	9
568.313	1	1
569.502	1	4
570.692	1	9
571.881	1	6
573.070	1	10
574.260	1	-6
575.449	1	10
576.638	1	-2
577.827	1	1
579.016	1	10
580.205	1	1
581.394	1	2
582.583	1	-12
583.772	1	5
584.961	1	-1
586.150	1	1
587.339	1	-3
588.528	1	11
589.717	1	5
590.905	1	9
592.094	1	11
593.283	1	6
594.471	1	1
595.660	1	-3
596.848	1	9
598.037	1	-1
599.225	1	6
600.413	1	2
601.602	1	3
602.790	1	4
603.978	1	0
605.166	1	-5
606.355	1	7
607.543	1	-9
608.731	1	-10
609.919	1	-3
611.107	1	1
612.295	1	5
613.483	1	4
614.671	1	8
615.858	1	7
617.046	1	-2
618.234	1	5
619.422	1	5
620.609	1	5
621.797	1	-5
622.985	1	7
624.172	1	8
625.360	1	-2
626.547	1	5
627.735	1	12
628.922	1	2
630.109	1	3
631.297	1	-9
632.484	1	-7
633.671	1	1
634.858	1	5
636.045	1	-1
637.232	1	1
638.419	1	8
639.606	1	13
640.793	1	6
641.980	1	-4
643.167	1	17
644.354	1	1
645.541	1	-12
646.728	1	1
647.914	1	-6
649.101	1	2
650.288	1	-6
651.474	1	-4
652.661	1	0
653.847	1	6
655.034	1	4
656.220	1	6
657.406	1	5
658.593	1	2
659.779	1	-5
660.965	1	1
662.152	1	-2
663.338	1	0
664.524	1	-9
665.710	1	-3
666.896	1	-4
668.082	1	6
669.268	1	6
670.454	1	0
671.640	1	-18
672.826	1	-13
674.011	1	10
675.197	1	5
676.383	1	-2
677.569	1	-3
678.754	1	8
679.940	1	2
681.125	1	1
682.311	1	4
683.496	1	-6
684.682	1	6
685.867	1	7
687.053	1	-2
688.238	1	7
688.746	1	-4