Folder: cryo-il_analysis/Analysis/GaN_68K_200ms (part 18)

File: GaN_sample E_spot4_UVVIS_68 K_200um_200 ms 2x2mm1_360.txt
340.368	1	3
341.565	1	-3
342.763	1	6
343.960	1	10
345.157	1	9
346.354	1	2
347.552	1	-1
348.749	1	6
349.946	1	9
351.143	1	0
352.340	1	5
353.537	1	3
354.734	1	2
355.931	1	2
357.127	1	7
358.324	1	-5
359.521	1	-2
360.718	1	-1
361.914	1	-1
363.111	1	1
364.308	1	-3
365.504	1	-5
366.701	1	-4
367.897	1	5
369.093	1	4
370.290	1	1
371.486	1	15
372.682	1	-8
373.879	1	11
375.075	1	10
376.271	1	3
377.467	1	-1
378.663	1	-13
379.859	1	-1
381.055	1	-4
382.251	1	14
383.447	1	8
384.643	1	13
385.839	1	7
387.035	1	11
388.230	1	3
389.426	1	13
390.622	1	0
391.817	1	2
393.013	1	7
394.208	1	8
395.404	1	15
396.599	1	11
397.795	1	16
398.990	1	14
400.186	1	12
401.381	1	15
402.576	1	24
403.771	1	9
404.967	1	11
406.162	1	4
407.357	1	2
408.552	1	8
409.747	1	-2
410.942	1	10
412.137	1	13
413.332	1	-1
414.526	1	3
415.721	1	-1
416.916	1	7
418.111	1	7
419.305	1	14
420.500	1	12
421.695	1	7
422.889	1	14
424.084	1	3
425.278	1	-5
426.472	1	14
427.667	1	10
428.861	1	-2
430.055	1	1
431.250	1	-3
432.444	1	3
433.638	1	4
434.832	1	-3
436.026	1	-1
437.220	1	14
438.414	1	4
439.608	1	8
440.802	1	5
441.996	1	4
443.190	1	-3
444.384	1	6
445.578	1	13
446.771	1	-1
447.965	1	-6
449.159	1	-4
450.352	1	7
451.546	1	10
452.739	1	1
453.933	1	3
455.126	1	0
456.320	1	-1
457.513	1	11
458.706	1	16
459.899	1	10
461.093	1	12
462.286	1	13
463.479	1	15
464.672	1	2
465.865	1	-6
467.058	1	13
468.251	1	1
469.444	1	-1
470.637	1	13
471.830	1	21
473.023	1	-4
474.215	1	-11
475.408	1	2
476.601	1	-11
477.793	1	5
478.986	1	16
480.179	1	3
481.371	1	2
482.564	1	-15
483.756	1	3
484.948	1	-6
486.141	1	-5
487.333	1	1
488.525	1	7
489.718	1	-1
490.910	1	6
492.102	1	5
493.294	1	5
494.486	1	4
495.678	1	16
496.870	1	5
498.062	1	3
499.254	1	1
500.446	1	8
501.638	1	4
502.829	1	5
504.021	1	25
505.213	1	4
506.404	1	6
507.596	1	0
508.788	1	-7
509.979	1	0
511.171	1	11
512.362	1	8
513.553	1	-4
514.745	1	1
515.936	1	10
517.127	1	9
518.319	1	0
519.510	1	7
520.701	1	8
521.892	1	4
523.083	1	1
524.274	1	-2
525.465	1	3
526.656	1	19
527.847	1	-1
529.038	1	10
530.229	1	4
531.419	1	6
532.610	1	6
533.801	1	7
534.991	1	12
536.182	1	9
537.373	1	1
538.563	1	9
539.754	1	-9
540.944	1	1
542.134	1	6
543.325	1	1
544.515	1	6
545.705	1	4
546.896	1	2
548.086	1	6
549.276	1	2
550.466	1	-3
551.656	1	-2
552.846	1	7
554.036	1	9
555.226	1	3
556.416	1	10
557.606	1	-5
558.796	1	-5
559.986	1	-5
561.175	1	3
562.365	1	8
563.555	1	14
564.744	1	9
565.934	1	1
567.123	1	15
568.313	1	-2
569.502	1	1
570.692	1	-1
571.881	1	10
573.070	1	9
574.260	1	1
575.449	1	11
576.638	1	3
577.827	1	9
579.016	1	16
580.205	1	9
581.394	1	-5
582.583	1	-1
583.772	1	6
584.961	1	0
586.150	1	1
587.339	1	7
588.528	1	12
589.717	1	2
590.905	1	9
592.094	1	3
593.283	1	4
594.471	1	3
595.660	1	5
596.848	1	2
598.037	1	7
599.225	1	2
600.413	1	-3
601.602	1	9
602.790	1	2
603.978	1	1
605.166	1	1
606.355	1	-3
607.543	1	-5
608.731	1	3
609.919	1	-2
611.107	1	8
612.295	1	8
613.483	1	2
614.671	1	1
615.858	1	3
617.046	1	3
618.234	1	0
619.422	1	3
620.609	1	2
621.797	1	5
622.985	1	5
624.172	1	21
625.360	1	0
626.547	1	0
627.735	1	5
628.922	1	-2
630.109	1	-2
631.297	1	3
632.484	1	4
633.671	1	4
634.858	1	7
636.045	1	6
637.232	1	2
638.419	1	10
639.606	1	14
640.793	1	8
641.980	1	3
643.167	1	12
644.354	1	-1
645.541	1	-12
646.728	1	6
647.914	1	-1
649.101	1	1
650.288	1	-3
651.474	1	12
652.661	1	2
653.847	1	6
655.034	1	12
656.220	1	6
657.406	1	-1
658.593	1	-2
659.779	1	5
660.965	1	-1
662.152	1	6
663.338	1	10
664.524	1	-8
665.710	1	-1
666.896	1	6
668.082	1	-8
669.268	1	1
670.454	1	-3
671.640	1	-9
672.826	1	-13
674.011	1	8
675.197	1	-5
676.383	1	-11
677.569	1	-1
678.754	1	3
679.940	1	3
681.125	1	6
682.311	1	5
683.496	1	-7
684.682	1	9
685.867	1	-2
687.053	1	-1
688.238	1	1
688.746	1	3

File: GaN_sample E_spot4_UVVIS_68 K_200um_200 ms 2x2mm1_361.txt
340.368	1	3
341.565	1	-2
342.763	1	2
343.960	1	4
345.157	1	10
346.354	1	-6
347.552	1	10
348.749	1	10
349.946	1	6
351.143	1	-11
352.340	1	0
353.537	1	-9
354.734	1	1
355.931	1	7
357.127	1	2
358.324	1	7
359.521	1	-1
360.718	1	-1
361.914	1	3
363.111	1	10
364.308	1	1
365.504	1	0
366.701	1	3
367.897	1	8
369.093	1	9
370.290	1	8
371.486	1	10
372.682	1	9
373.879	1	6
375.075	1	5
376.271	1	-3
377.467	1	-3
378.663	1	0
379.859	1	-4
381.055	1	0
382.251	1	4
383.447	1	7
384.643	1	10
385.839	1	13
387.035	1	5
388.230	1	8
389.426	1	14
390.622	1	2
391.817	1	-1
393.013	1	8
394.208	1	19
395.404	1	13
396.599	1	5
397.795	1	13
398.990	1	10
400.186	1	13
401.381	1	15
402.576	1	14
403.771	1	9
404.967	1	6
406.162	1	3
407.357	1	8
408.552	1	9
409.747	1	-4
410.942	1	5
412.137	1	4
413.332	1	-4
414.526	1	7
415.721	1	4
416.916	1	0
418.111	1	-1
419.305	1	-1
420.500	1	8
421.695	1	8
422.889	1	6
424.084	1	2
425.278	1	-5
426.472	1	-1
427.667	1	10
428.861	1	1
430.055	1	0
431.250	1	-3
432.444	1	7
433.638	1	-3
434.832	1	-1
436.026	1	1
437.220	1	8
438.414	1	2
439.608	1	5
440.802	1	8
441.996	1	-3
443.190	1	-9
444.384	1	9
445.578	1	4
446.771	1	0
447.965	1	-1
449.159	1	-8
450.352	1	4
451.546	1	5
452.739	1	4
453.933	1	10
455.126	1	4
456.320	1	2
457.513	1	10
458.706	1	6
459.899	1	11
461.093	1	13
462.286	1	10
463.479	1	6
464.672	1	-1
465.865	1	0
467.058	1	10
468.251	1	-6
469.444	1	-4
470.637	1	11
471.830	1	17
473.023	1	-6
474.215	1	-2
475.408	1	3
476.601	1	0
477.793	1	13
478.986	1	2
480.179	1	4
481.371	1	9
482.564	1	-13
483.756	1	4
484.948	1	2
486.141	1	-6
487.333	1	7
488.525	1	-2
489.718	1	0
490.910	1	1
492.102	1	5
493.294	1	7
494.486	1	2
495.678	1	7
496.870	1	10
498.062	1	4
499.254	1	5
500.446	1	12
501.638	1	5
502.829	1	1
504.021	1	15
505.213	1	-2
506.404	1	-10
507.596	1	4
508.788	1	12
509.979	1	0
511.171	1	14
512.362	1	5
513.553	1	-9
514.745	1	6
515.936	1	10
517.127	1	9
518.319	1	-5
519.510	1	1
520.701	1	12
521.892	1	1
523.083	1	-1
524.274	1	-2
525.465	1	1
526.656	1	21
527.847	1	-9
529.038	1	12
530.229	1	12
531.419	1	12
532.610	1	3
533.801	1	7
534.991	1	7
536.182	1	3
537.373	1	-3
538.563	1	5
539.754	1	-2
540.944	1	-3
542.134	1	8
543.325	1	7
544.515	1	0
545.705	1	8
546.896	1	6
548.086	1	17
549.276	1	9
550.466	1	0
551.656	1	-7
552.846	1	12
554.036	1	9
555.226	1	4
556.416	1	6
557.606	1	-1
558.796	1	5
559.986	1	-4
561.175	1	-2
562.365	1	7
563.555	1	15
564.744	1	8
565.934	1	4
567.123	1	15
568.313	1	-3
569.502	1	0
570.692	1	9
571.881	1	10
573.070	1	3
574.260	1	-6
575.449	1	0
576.638	1	3
577.827	1	17
579.016	1	17
580.205	1	1
581.394	1	8
582.583	1	-6
583.772	1	-4
584.961	1	6
586.150	1	-1
587.339	1	-2
588.528	1	6
589.717	1	1
590.905	1	-1
592.094	1	7
593.283	1	-2
594.471	1	-2
595.660	1	3
596.848	1	2
598.037	1	4
599.225	1	3
600.413	1	3
601.602	1	6
602.790	1	1
603.978	1	7
605.166	1	-10
606.355	1	2
607.543	1	-4
608.731	1	-9
609.919	1	-10
611.107	1	12
612.295	1	-2
613.483	1	7
614.671	1	11
615.858	1	11
617.046	1	8
618.234	1	8
619.422	1	3
620.609	1	3
621.797	1	13
622.985	1	7
624.172	1	13
625.360	1	-3
626.547	1	2
627.735	1	9
628.922	1	6
630.109	1	0
631.297	1	-1
632.484	1	-4
633.671	1	0
634.858	1	9
636.045	1	4
637.232	1	-6
638.419	1	14
639.606	1	13
640.793	1	13
641.980	1	-3
643.167	1	2
644.354	1	-1
645.541	1	-3
646.728	1	9
647.914	1	-6
649.101	1	3
650.288	1	-5
651.474	1	3
652.661	1	10
653.847	1	1
655.034	1	-2
656.220	1	8
657.406	1	2
658.593	1	-4
659.779	1	1
660.965	1	-2
662.152	1	4
663.338	1	-2
664.524	1	-9
665.710	1	0
666.896	1	6
668.082	1	2
669.268	1	-9
670.454	1	-2
671.640	1	-11
672.826	1	-14
674.011	1	0
675.197	1	0
676.383	1	-2
677.569	1	1
678.754	1	-5
679.940	1	-3
681.125	1	7
682.311	1	-5
683.496	1	-2
684.682	1	-1
685.867	1	7
687.053	1	2
688.238	1	-5
688.746	1	0

File: GaN_sample E_spot4_UVVIS_68 K_200um_200 ms 2x2mm1_362.txt
340.368	1	3
341.565	1	-16
342.763	1	0
343.960	1	3
345.157	1	15
346.354	1	-5
347.552	1	5
348.749	1	13
349.946	1	2
351.143	1	-2
352.340	1	4
353.537	1	-3
354.734	1	-11
355.931	1	8
357.127	1	5
358.324	1	0
359.521	1	-3
360.718	1	3
361.914	1	4
363.111	1	20
364.308	1	-7
365.504	1	-6
366.701	1	-2
367.897	1	0
369.093	1	6
370.290	1	3
371.486	1	19
372.682	1	7
373.879	1	19
375.075	1	12
376.271	1	2
377.467	1	-5
378.663	1	2
379.859	1	-2
381.055	1	4
382.251	1	6
383.447	1	1
384.643	1	7
385.839	1	12
387.035	1	1
388.230	1	9
389.426	1	8
390.622	1	2
391.817	1	0
393.013	1	13
394.208	1	19
395.404	1	8
396.599	1	14
397.795	1	7
398.990	1	21
400.186	1	14
401.381	1	9
402.576	1	20
403.771	1	4
404.967	1	4
406.162	1	-3
407.357	1	5
408.552	1	4
409.747	1	-3
410.942	1	6
412.137	1	9
413.332	1	-2
414.526	1	7
415.721	1	3
416.916	1	-2
418.111	1	2
419.305	1	8
420.500	1	6
421.695	1	5
422.889	1	4
424.084	1	6
425.278	1	-3
426.472	1	-4
427.667	1	10
428.861	1	5
430.055	1	6
431.250	1	-6
432.444	1	7
433.638	1	-2
434.832	1	-4
436.026	1	5
437.220	1	9
438.414	1	-3
439.608	1	1
440.802	1	16
441.996	1	4
443.190	1	-9
444.384	1	9
445.578	1	11
446.771	1	-4
447.965	1	-4
449.159	1	2
450.352	1	16
451.546	1	3
452.739	1	2
453.933	1	7
455.126	1	1
456.320	1	0
457.513	1	16
458.706	1	1
459.899	1	9
461.093	1	1
462.286	1	4
463.479	1	13
464.672	1	-5
465.865	1	2
467.058	1	1
468.251	1	1
469.444	1	-9
470.637	1	13
471.830	1	10
473.023	1	-1
474.215	1	0
475.408	1	6
476.601	1	-3
477.793	1	6
478.986	1	3
480.179	1	3
481.371	1	4
482.564	1	-6
483.756	1	9
484.948	1	-1
486.141	1	-8
487.333	1	4
488.525	1	-2
489.718	1	6
490.910	1	1
492.102	1	1
493.294	1	5
494.486	1	4
495.678	1	17
496.870	1	-7
498.062	1	7
499.254	1	-1
500.446	1	5
501.638	1	6
502.829	1	2
504.021	1	18
505.213	1	4
506.404	1	-3
507.596	1	3
508.788	1	2
509.979	1	4
511.171	1	12
512.362	1	4
513.553	1	-6
514.745	1	6
515.936	1	10
517.127	1	9
518.319	1	0
519.510	1	2
520.701	1	9
521.892	1	-1
523.083	1	5
524.274	1	-4
525.465	1	8
526.656	1	19
527.847	1	2
529.038	1	12
530.229	1	11
531.419	1	12
532.610	1	8
533.801	1	11
534.991	1	7
536.182	1	4
537.373	1	-8
538.563	1	3
539.754	1	-2
540.944	1	1
542.134	1	15
543.325	1	-2
544.515	1	4
545.705	1	-2
546.896	1	9
548.086	1	12
549.276	1	13
550.466	1	1
551.656	1	-1
552.846	1	-3
554.036	1	1
555.226	1	1
556.416	1	-1
557.606	1	-5
558.796	1	-2
559.986	1	0
561.175	1	2
562.365	1	8
563.555	1	16
564.744	1	3
565.934	1	3
567.123	1	25
568.313	1	-8
569.502	1	-6
570.692	1	12
571.881	1	1
573.070	1	16
574.260	1	6
575.449	1	5
576.638	1	10
577.827	1	8
579.016	1	17
580.205	1	-3
581.394	1	-4
582.583	1	3
583.772	1	3
584.961	1	7
586.150	1	5
587.339	1	-3
588.528	1	11
589.717	1	8
590.905	1	8
592.094	1	10
593.283	1	8
594.471	1	3
595.660	1	1
596.848	1	9
598.037	1	-2
599.225	1	7
600.413	1	1
601.602	1	2
602.790	1	8
603.978	1	6
605.166	1	-8
606.355	1	12
607.543	1	-3
608.731	1	-4
609.919	1	-7
611.107	1	-2
612.295	1	1
613.483	1	14
614.671	1	-5
615.858	1	4
617.046	1	-1
618.234	1	-2
619.422	1	0
620.609	1	6
621.797	1	3
622.985	1	4
624.172	1	8
625.360	1	-4
626.547	1	1
627.735	1	0
628.922	1	8
630.109	1	-1
631.297	1	3
632.484	1	-5
633.671	1	11
634.858	1	3
636.045	1	-2
637.232	1	9
638.419	1	5
639.606	1	9
640.793	1	2
641.980	1	0
643.167	1	13
644.354	1	-3
645.541	1	-12
646.728	1	9
647.914	1	-5
649.101	1	-2
650.288	1	-2
651.474	1	4
652.661	1	7
653.847	1	4
655.034	1	5
656.220	1	11
657.406	1	4
658.593	1	-7
659.779	1	-5
660.965	1	9
662.152	1	5
663.338	1	1
664.524	1	-8
665.710	1	-5
666.896	1	-4
668.082	1	2
669.268	1	4
670.454	1	2
671.640	1	-13
672.826	1	-20
674.011	1	10
675.197	1	0
676.383	1	-4
677.569	1	-4
678.754	1	1
679.940	1	-2
681.125	1	-3
682.311	1	-5
683.496	1	-5
684.682	1	4
685.867	1	1
687.053	1	2
688.238	1	1
688.746	1	-2

File: GaN_sample E_spot4_UVVIS_68 K_200um_200 ms 2x2mm1_366.txt
340.368	1	-2
341.565	1	0
342.763	1	-1
343.960	1	-10
345.157	1	6
346.354	1	0
347.552	1	-5
348.749	1	11
349.946	1	11
351.143	1	-13
352.340	1	3
353.537	1	-10
354.734	1	6
355.931	1	5
357.127	1	-2
358.324	1	-1
359.521	1	3
360.718	1	2
361.914	1	-1
363.111	1	-2
364.308	1	-5
365.504	1	2
366.701	1	6
367.897	1	4
369.093	1	-5
370.290	1	-3
371.486	1	14
372.682	1	6
373.879	1	19
375.075	1	13
376.271	1	4
377.467	1	0
378.663	1	0
379.859	1	-2
381.055	1	1
382.251	1	5
383.447	1	11
384.643	1	18
385.839	1	4
387.035	1	1
388.230	1	1
389.426	1	8
390.622	1	-5
391.817	1	2
393.013	1	6
394.208	1	6
395.404	1	21
396.599	1	4
397.795	1	4
398.990	1	9
400.186	1	15
401.381	1	13
402.576	1	19
403.771	1	17
404.967	1	6
406.162	1	4
407.357	1	8
408.552	1	10
409.747	1	3
410.942	1	11
412.137	1	10
413.332	1	1
414.526	1	5
415.721	1	2
416.916	1	1
418.111	1	7
419.305	1	4
420.500	1	15
421.695	1	6
422.889	1	6
424.084	1	10
425.278	1	2
426.472	1	-7
427.667	1	17
428.861	1	-2
430.055	1	-4
431.250	1	-3
432.444	1	2
433.638	1	3
434.832	1	-1
436.026	1	4
437.220	1	2
438.414	1	9
439.608	1	7
440.802	1	-4
441.996	1	8
443.190	1	-9
444.384	1	11
445.578	1	16
446.771	1	0
447.965	1	-13
449.159	1	2
450.352	1	6
451.546	1	3
452.739	1	4
453.933	1	9
455.126	1	-3
456.320	1	5
457.513	1	9
458.706	1	6
459.899	1	8
461.093	1	13
462.286	1	11
463.479	1	5
464.672	1	0
465.865	1	1
467.058	1	15
468.251	1	-7
469.444	1	2
470.637	1	15
471.830	1	10
473.023	1	-5
474.215	1	-3
475.408	1	6
476.601	1	-16
477.793	1	8
478.986	1	-2
480.179	1	3
481.371	1	4
482.564	1	-2
483.756	1	9
484.948	1	0
486.141	1	-12
487.333	1	-3
488.525	1	-1
489.718	1	-5
490.910	1	-6
492.102	1	3
493.294	1	8
494.486	1	-1
495.678	1	10
496.870	1	0
498.062	1	10
499.254	1	2
500.446	1	5
501.638	1	6
502.829	1	8
504.021	1	19
505.213	1	5
506.404	1	-14
507.596	1	4
508.788	1	1
509.979	1	-1
511.171	1	13
512.362	1	0
513.553	1	-2
514.745	1	-9
515.936	1	18
517.127	1	8
518.319	1	5
519.510	1	-1
520.701	1	15
521.892	1	-3
523.083	1	5
524.274	1	0
525.465	1	-2
526.656	1	17
527.847	1	-4
529.038	1	1
530.229	1	7
531.419	1	17
532.610	1	6
533.801	1	6
534.991	1	8
536.182	1	3
537.373	1	-9
538.563	1	-5
539.754	1	4
540.944	1	-2
542.134	1	10
543.325	1	10
544.515	1	10
545.705	1	9
546.896	1	5
548.086	1	8
549.276	1	9
550.466	1	-1
551.656	1	-9
552.846	1	7
554.036	1	7
555.226	1	-4
556.416	1	10
557.606	1	-7
558.796	1	6
559.986	1	1
561.175	1	-6
562.365	1	4
563.555	1	18
564.744	1	7
565.934	1	11
567.123	1	15
568.313	1	-8
569.502	1	-4
570.692	1	5
571.881	1	8
573.070	1	8
574.260	1	-5
575.449	1	-4
576.638	1	-1
577.827	1	8
579.016	1	5
580.205	1	3
581.394	1	0
582.583	1	0
583.772	1	6
584.961	1	12
586.150	1	-3
587.339	1	4
588.528	1	5
589.717	1	-5
590.905	1	8
592.094	1	-5
593.283	1	11
594.471	1	2
595.660	1	-4
596.848	1	6
598.037	1	8
599.225	1	5
600.413	1	2
601.602	1	-1
602.790	1	4
603.978	1	-3
605.166	1	3
606.355	1	7
607.543	1	12
608.731	1	-13
609.919	1	-5
611.107	1	12
612.295	1	5
613.483	1	6
614.671	1	6
615.858	1	5
617.046	1	6
618.234	1	-2
619.422	1	0
620.609	1	3
621.797	1	4
622.985	1	-1
624.172	1	13
625.360	1	-6
626.547	1	-4
627.735	1	6
628.922	1	6
630.109	1	-5
631.297	1	-4
632.484	1	3
633.671	1	-3
634.858	1	13
636.045	1	-1
637.232	1	3
638.419	1	10
639.606	1	3
640.793	1	8
641.980	1	8
643.167	1	7
644.354	1	-4
645.541	1	-2
646.728	1	3
647.914	1	2
649.101	1	-8
650.288	1	-5
651.474	1	-1
652.661	1	9
653.847	1	4
655.034	1	1
656.220	1	7
657.406	1	0
658.593	1	-6
659.779	1	-6
660.965	1	12
662.152	1	5
663.338	1	-3
664.524	1	0
665.710	1	-1
666.896	1	-2
668.082	1	-1
669.268	1	16
670.454	1	5
671.640	1	-9
672.826	1	-22
674.011	1	4
675.197	1	1
676.383	1	-4
677.569	1	-3
678.754	1	-4
679.940	1	-3
681.125	1	5
682.311	1	4
683.496	1	-2
684.682	1	10
685.867	1	-4
687.053	1	-1
688.238	1	-1
688.746	1	0

File: GaN_sample E_spot4_UVVIS_68 K_200um_200 ms 2x2mm1_378.txt
340.368	1	10
341.565	1	-2
342.763	1	-5
343.960	1	-4
345.157	1	6
346.354	1	7
347.552	1	2
348.749	1	2
349.946	1	10
351.143	1	-7
352.340	1	0
353.537	1	3
354.734	1	4
355.931	1	4
357.127	1	1
358.324	1	-4
359.521	1	-5
360.718	1	-7
361.914	1	3
363.111	1	19
364.308	1	-9
365.504	1	0
366.701	1	-2
367.897	1	2
369.093	1	7
370.290	1	3
371.486	1	13
372.682	1	0
373.879	1	10
375.075	1	9
376.271	1	2
377.467	1	5
378.663	1	-4
379.859	1	2
381.055	1	3
382.251	1	5
383.447	1	18
384.643	1	4
385.839	1	10
387.035	1	7
388.230	1	-5
389.426	1	8
390.622	1	-3
391.817	1	-4
393.013	1	10
394.208	1	15
395.404	1	17
396.599	1	11
397.795	1	8
398.990	1	14
400.186	1	13
401.381	1	9
402.576	1	10
403.771	1	9
404.967	1	9
406.162	1	3
407.357	1	9
408.552	1	6
409.747	1	2
410.942	1	3
412.137	1	15
413.332	1	0
414.526	1	5
415.721	1	-1
416.916	1	-5
418.111	1	8
419.305	1	1
420.500	1	6
421.695	1	-4
422.889	1	8
424.084	1	0
425.278	1	0
426.472	1	-12
427.667	1	13
428.861	1	0
430.055	1	0
431.250	1	-10
432.444	1	7
433.638	1	9
434.832	1	-6
436.026	1	6
437.220	1	13
438.414	1	7
439.608	1	-1
440.802	1	3
441.996	1	2
443.190	1	-9
444.384	1	4
445.578	1	5
446.771	1	-3
447.965	1	-4
449.159	1	-9
450.352	1	4
451.546	1	-5
452.739	1	17
453.933	1	6
455.126	1	1
456.320	1	-5
457.513	1	-5
458.706	1	-1
459.899	1	8
461.093	1	1
462.286	1	13
463.479	1	4
464.672	1	-1
465.865	1	-3
467.058	1	15
468.251	1	1
469.444	1	-4
470.637	1	15
471.830	1	23
473.023	1	1
474.215	1	4
475.408	1	1
476.601	1	-2
477.793	1	5
478.986	1	1
480.179	1	-1
481.371	1	2
482.564	1	-10
483.756	1	12
484.948	1	-3
486.141	1	-2
487.333	1	2
488.525	1	-2
489.718	1	-7
490.910	1	-2
492.102	1	-1
493.294	1	0
494.486	1	11
495.678	1	16
496.870	1	3
498.062	1	1
499.254	1	4
500.446	1	17
501.638	1	7
502.829	1	8
504.021	1	19
505.213	1	4
506.404	1	-5
507.596	1	12
508.788	1	6
509.979	1	1
511.171	1	19
512.362	1	5
513.553	1	-2
514.745	1	-1
515.936	1	0
517.127	1	11
518.319	1	5
519.510	1	2
520.701	1	3
521.892	1	-3
523.083	1	8
524.274	1	-2
525.465	1	0
526.656	1	22
527.847	1	-10
529.038	1	7
530.229	1	7
531.419	1	8
532.610	1	9
533.801	1	2
534.991	1	8
536.182	1	2
537.373	1	5
538.563	1	1
539.754	1	8
540.944	1	-3
542.134	1	9
543.325	1	0
544.515	1	0
545.705	1	3
546.896	1	2
548.086	1	8
549.276	1	6
550.466	1	1
551.656	1	-1
552.846	1	9
554.036	1	1
555.226	1	-6
556.416	1	6
557.606	1	-5
558.796	1	2
559.986	1	0
561.175	1	0
562.365	1	0
563.555	1	11
564.744	1	-3
565.934	1	6
567.123	1	14
568.313	1	3
569.502	1	8
570.692	1	3
571.881	1	3
573.070	1	6
574.260	1	1
575.449	1	10
576.638	1	12
577.827	1	5
579.016	1	11
580.205	1	-3
581.394	1	-3
582.583	1	2
583.772	1	0
584.961	1	9
586.150	1	-2
587.339	1	11
588.528	1	3
589.717	1	7
590.905	1	0
592.094	1	5
593.283	1	9
594.471	1	11
595.660	1	-1
596.848	1	8
598.037	1	-1
599.225	1	2
600.413	1	0
601.602	1	1
602.790	1	-2
603.978	1	1
605.166	1	0
606.355	1	11
607.543	1	-5
608.731	1	-9
609.919	1	-2
611.107	1	6
612.295	1	3
613.483	1	-4
614.671	1	-1
615.858	1	7
617.046	1	6
618.234	1	-2
619.422	1	3
620.609	1	-5
621.797	1	5
622.985	1	-6
624.172	1	18
625.360	1	-9
626.547	1	2
627.735	1	5
628.922	1	-1
630.109	1	-4
631.297	1	-9
632.484	1	-5
633.671	1	3
634.858	1	13
636.045	1	2
637.232	1	2
638.419	1	3
639.606	1	8
640.793	1	9
641.980	1	-3
643.167	1	16
644.354	1	6
645.541	1	-8
646.728	1	3
647.914	1	-6
649.101	1	5
650.288	1	-6
651.474	1	9
652.661	1	8
653.847	1	0
655.034	1	-3
656.220	1	8
657.406	1	4
658.593	1	-7
659.779	1	1
660.965	1	-4
662.152	1	-2
663.338	1	-5
664.524	1	-9
665.710	1	1
666.896	1	7
668.082	1	-11
669.268	1	1
670.454	1	5
671.640	1	-16
672.826	1	-2
674.011	1	7
675.197	1	2
676.383	1	-2
677.569	1	-3
678.754	1	-8
679.940	1	-4
681.125	1	3
682.311	1	-2
683.496	1	-1
684.682	1	12
685.867	1	1
687.053	1	6
688.238	1	0
688.746	1	-1

File: GaN_sample E_spot4_UVVIS_68 K_200um_200 ms 2x2mm1_380.txt
340.368	1	7
341.565	1	-4
342.763	1	6
343.960	1	2
345.157	1	11
346.354	1	-1
347.552	1	11
348.749	1	1
349.946	1	14
351.143	1	-9
352.340	1	-3
353.537	1	3
354.734	1	-1
355.931	1	5
357.127	1	3
358.324	1	0
359.521	1	-2
360.718	1	1
361.914	1	-2
363.111	1	11
364.308	1	1
365.504	1	7
366.701	1	1
367.897	1	-1
369.093	1	0
370.290	1	0
371.486	1	6
372.682	1	5
373.879	1	9
375.075	1	1
376.271	1	2
377.467	1	1
378.663	1	-4
379.859	1	-3
381.055	1	-3
382.251	1	-2
383.447	1	14
384.643	1	11
385.839	1	6
387.035	1	8
388.230	1	12
389.426	1	13
390.622	1	2
391.817	1	4
393.013	1	4
394.208	1	12
395.404	1	7
396.599	1	8
397.795	1	8
398.990	1	3
400.186	1	13
401.381	1	3
402.576	1	15
403.771	1	9
404.967	1	10
406.162	1	8
407.357	1	2
408.552	1	7
409.747	1	0
410.942	1	7
412.137	1	15
413.332	1	-3
414.526	1	9
415.721	1	0
416.916	1	3
418.111	1	3
419.305	1	6
420.500	1	10
421.695	1	3
422.889	1	5
424.084	1	-1
425.278	1	4
426.472	1	1
427.667	1	8
428.861	1	-11
430.055	1	3
431.250	1	0
432.444	1	3
433.638	1	1
434.832	1	1
436.026	1	6
437.220	1	11
438.414	1	10
439.608	1	3
440.802	1	0
441.996	1	8
443.190	1	-8
444.384	1	10
445.578	1	11
446.771	1	-5
447.965	1	-6
449.159	1	-4
450.352	1	-1
451.546	1	3
452.739	1	8
453.933	1	1
455.126	1	-1
456.320	1	2
457.513	1	8
458.706	1	1
459.899	1	19
461.093	1	7
462.286	1	7
463.479	1	9
464.672	1	6
465.865	1	5
467.058	1	8
468.251	1	-5
469.444	1	-5
470.637	1	8
471.830	1	6
473.023	1	-8
474.215	1	-6
475.408	1	12
476.601	1	-1
477.793	1	4
478.986	1	-3
480.179	1	10
481.371	1	1
482.564	1	-10
483.756	1	8
484.948	1	6
486.141	1	-8
487.333	1	10
488.525	1	5
489.718	1	7
490.910	1	1
492.102	1	6
493.294	1	15
494.486	1	10
495.678	1	4
496.870	1	3
498.062	1	-5
499.254	1	6
500.446	1	7
501.638	1	1
502.829	1	10
504.021	1	12
505.213	1	5
506.404	1	-6
507.596	1	4
508.788	1	7
509.979	1	2
511.171	1	11
512.362	1	8
513.553	1	-2
514.745	1	-2
515.936	1	11
517.127	1	3
518.319	1	11
519.510	1	6
520.701	1	12
521.892	1	-9
523.083	1	13
524.274	1	-4
525.465	1	1
526.656	1	22
527.847	1	3
529.038	1	12
530.229	1	7
531.419	1	5
532.610	1	7
533.801	1	7
534.991	1	9
536.182	1	8
537.373	1	-2
538.563	1	9
539.754	1	-7
540.944	1	-6
542.134	1	12
543.325	1	0
544.515	1	4
545.705	1	3
546.896	1	6
548.086	1	0
549.276	1	8
550.466	1	-9
551.656	1	-5
552.846	1	5
554.036	1	1
555.226	1	-2
556.416	1	3
557.606	1	-11
558.796	1	8
559.986	1	4
561.175	1	-1
562.365	1	-2
563.555	1	14
564.744	1	15
565.934	1	10
567.123	1	18
568.313	1	-4
569.502	1	0
570.692	1	2
571.881	1	1
573.070	1	4
574.260	1	-3
575.449	1	9
576.638	1	-2
577.827	1	5
579.016	1	20
580.205	1	1
581.394	1	2
582.583	1	-5
583.772	1	6
584.961	1	3
586.150	1	4
587.339	1	2
588.528	1	4
589.717	1	6
590.905	1	5
592.094	1	13
593.283	1	11
594.471	1	0
595.660	1	-2
596.848	1	13
598.037	1	2
599.225	1	9
600.413	1	7
601.602	1	14
602.790	1	5
603.978	1	-6
605.166	1	-7
606.355	1	6
607.543	1	-7
608.731	1	-5
609.919	1	-2
611.107	1	14
612.295	1	3
613.483	1	11
614.671	1	0
615.858	1	8
617.046	1	12
618.234	1	2
619.422	1	-2
620.609	1	2
621.797	1	-6
622.985	1	1
624.172	1	8
625.360	1	-6
626.547	1	-3
627.735	1	6
628.922	1	1
630.109	1	2
631.297	1	-4
632.484	1	0
633.671	1	6
634.858	1	11
636.045	1	3
637.232	1	-1
638.419	1	8
639.606	1	7
640.793	1	7
641.980	1	3
643.167	1	4
644.354	1	-5
645.541	1	-5
646.728	1	1
647.914	1	-9
649.101	1	12
650.288	1	-4
651.474	1	2
652.661	1	1
653.847	1	1
655.034	1	4
656.220	1	21
657.406	1	6
658.593	1	-6
659.779	1	6
660.965	1	4
662.152	1	5
663.338	1	1
664.524	1	-5
665.710	1	-8
666.896	1	4
668.082	1	-3
669.268	1	3
670.454	1	1
671.640	1	-21
672.826	1	-10
674.011	1	2
675.197	1	-4
676.383	1	0
677.569	1	-2
678.754	1	2
679.940	1	-7
681.125	1	7
682.311	1	0
683.496	1	-11
684.682	1	13
685.867	1	6
687.053	1	9
688.238	1	-1
688.746	1	6