Folder: cryo-il_analysis/Analysis/GaN_68K_200ms (part 10)

File: GaN_sample E_spot4_UVVIS_68 K_200um_200 ms 2x2mm1_196.txt
340.368	1	2
341.565	1	-9
342.763	1	0
343.960	1	-5
345.157	1	7
346.354	1	-5
347.552	1	12
348.749	1	4
349.946	1	13
351.143	1	-3
352.340	1	4
353.537	1	2
354.734	1	4
355.931	1	10
357.127	1	5
358.324	1	6
359.521	1	9
360.718	1	-7
361.914	1	-5
363.111	1	11
364.308	1	15
365.504	1	11
366.701	1	17
367.897	1	16
369.093	1	15
370.290	1	8
371.486	1	25
372.682	1	5
373.879	1	18
375.075	1	7
376.271	1	3
377.467	1	12
378.663	1	11
379.859	1	3
381.055	1	21
382.251	1	5
383.447	1	22
384.643	1	18
385.839	1	22
387.035	1	23
388.230	1	25
389.426	1	22
390.622	1	21
391.817	1	17
393.013	1	21
394.208	1	16
395.404	1	28
396.599	1	18
397.795	1	23
398.990	1	30
400.186	1	24
401.381	1	17
402.576	1	30
403.771	1	21
404.967	1	23
406.162	1	12
407.357	1	17
408.552	1	16
409.747	1	2
410.942	1	18
412.137	1	18
413.332	1	8
414.526	1	16
415.721	1	19
416.916	1	11
418.111	1	20
419.305	1	20
420.500	1	12
421.695	1	9
422.889	1	20
424.084	1	14
425.278	1	10
426.472	1	8
427.667	1	22
428.861	1	8
430.055	1	17
431.250	1	-1
432.444	1	15
433.638	1	3
434.832	1	7
436.026	1	14
437.220	1	16
438.414	1	14
439.608	1	12
440.802	1	8
441.996	1	6
443.190	1	-7
444.384	1	14
445.578	1	17
446.771	1	2
447.965	1	2
449.159	1	-2
450.352	1	18
451.546	1	6
452.739	1	3
453.933	1	10
455.126	1	10
456.320	1	4
457.513	1	7
458.706	1	5
459.899	1	11
461.093	1	12
462.286	1	10
463.479	1	10
464.672	1	13
465.865	1	4
467.058	1	15
468.251	1	3
469.444	1	5
470.637	1	16
471.830	1	21
473.023	1	-2
474.215	1	5
475.408	1	6
476.601	1	5
477.793	1	8
478.986	1	5
480.179	1	14
481.371	1	4
482.564	1	-12
483.756	1	13
484.948	1	1
486.141	1	-11
487.333	1	2
488.525	1	2
489.718	1	-2
490.910	1	1
492.102	1	9
493.294	1	11
494.486	1	5
495.678	1	21
496.870	1	9
498.062	1	3
499.254	1	8
500.446	1	14
501.638	1	9
502.829	1	5
504.021	1	27
505.213	1	12
506.404	1	3
507.596	1	20
508.788	1	12
509.979	1	1
511.171	1	23
512.362	1	14
513.553	1	12
514.745	1	8
515.936	1	8
517.127	1	10
518.319	1	10
519.510	1	15
520.701	1	16
521.892	1	5
523.083	1	11
524.274	1	4
525.465	1	17
526.656	1	22
527.847	1	14
529.038	1	20
530.229	1	20
531.419	1	28
532.610	1	18
533.801	1	21
534.991	1	21
536.182	1	11
537.373	1	13
538.563	1	21
539.754	1	6
540.944	1	2
542.134	1	26
543.325	1	18
544.515	1	14
545.705	1	16
546.896	1	13
548.086	1	14
549.276	1	16
550.466	1	10
551.656	1	7
552.846	1	15
554.036	1	17
555.226	1	2
556.416	1	12
557.606	1	3
558.796	1	5
559.986	1	10
561.175	1	10
562.365	1	13
563.555	1	22
564.744	1	16
565.934	1	15
567.123	1	14
568.313	1	9
569.502	1	9
570.692	1	8
571.881	1	19
573.070	1	6
574.260	1	1
575.449	1	19
576.638	1	14
577.827	1	14
579.016	1	14
580.205	1	11
581.394	1	-3
582.583	1	4
583.772	1	7
584.961	1	8
586.150	1	-1
587.339	1	6
588.528	1	10
589.717	1	3
590.905	1	8
592.094	1	10
593.283	1	15
594.471	1	3
595.660	1	6
596.848	1	14
598.037	1	8
599.225	1	0
600.413	1	9
601.602	1	15
602.790	1	6
603.978	1	4
605.166	1	1
606.355	1	11
607.543	1	-4
608.731	1	1
609.919	1	2
611.107	1	6
612.295	1	19
613.483	1	5
614.671	1	10
615.858	1	14
617.046	1	7
618.234	1	-1
619.422	1	7
620.609	1	8
621.797	1	2
622.985	1	5
624.172	1	19
625.360	1	0
626.547	1	6
627.735	1	10
628.922	1	3
630.109	1	3
631.297	1	-4
632.484	1	-5
633.671	1	3
634.858	1	5
636.045	1	1
637.232	1	6
638.419	1	3
639.606	1	9
640.793	1	2
641.980	1	1
643.167	1	14
644.354	1	7
645.541	1	-13
646.728	1	7
647.914	1	0
649.101	1	-3
650.288	1	-6
651.474	1	8
652.661	1	-3
653.847	1	6
655.034	1	0
656.220	1	10
657.406	1	1
658.593	1	-11
659.779	1	7
660.965	1	8
662.152	1	-1
663.338	1	3
664.524	1	-4
665.710	1	10
666.896	1	3
668.082	1	3
669.268	1	14
670.454	1	6
671.640	1	-7
672.826	1	-10
674.011	1	6
675.197	1	1
676.383	1	-2
677.569	1	0
678.754	1	1
679.940	1	2
681.125	1	6
682.311	1	5
683.496	1	-3
684.682	1	8
685.867	1	0
687.053	1	13
688.238	1	9
688.746	1	9

File: GaN_sample E_spot4_UVVIS_68 K_200um_200 ms 2x2mm1_197.txt
340.368	1	1
341.565	1	0
342.763	1	6
343.960	1	-5
345.157	1	9
346.354	1	-2
347.552	1	6
348.749	1	6
349.946	1	3
351.143	1	-5
352.340	1	1
353.537	1	-4
354.734	1	3
355.931	1	16
357.127	1	12
358.324	1	-3
359.521	1	9
360.718	1	11
361.914	1	10
363.111	1	18
364.308	1	10
365.504	1	11
366.701	1	16
367.897	1	26
369.093	1	21
370.290	1	13
371.486	1	27
372.682	1	11
373.879	1	17
375.075	1	12
376.271	1	17
377.467	1	11
378.663	1	1
379.859	1	5
381.055	1	6
382.251	1	10
383.447	1	21
384.643	1	16
385.839	1	22
387.035	1	27
388.230	1	32
389.426	1	27
390.622	1	26
391.817	1	22
393.013	1	29
394.208	1	31
395.404	1	31
396.599	1	23
397.795	1	27
398.990	1	25
400.186	1	29
401.381	1	20
402.576	1	20
403.771	1	22
404.967	1	15
406.162	1	14
407.357	1	18
408.552	1	21
409.747	1	6
410.942	1	18
412.137	1	26
413.332	1	19
414.526	1	12
415.721	1	17
416.916	1	11
418.111	1	15
419.305	1	12
420.500	1	19
421.695	1	17
422.889	1	15
424.084	1	17
425.278	1	1
426.472	1	16
427.667	1	23
428.861	1	2
430.055	1	-3
431.250	1	0
432.444	1	12
433.638	1	9
434.832	1	0
436.026	1	14
437.220	1	13
438.414	1	6
439.608	1	2
440.802	1	13
441.996	1	4
443.190	1	-4
444.384	1	6
445.578	1	8
446.771	1	3
447.965	1	-5
449.159	1	-2
450.352	1	9
451.546	1	0
452.739	1	8
453.933	1	6
455.126	1	5
456.320	1	8
457.513	1	12
458.706	1	8
459.899	1	13
461.093	1	11
462.286	1	13
463.479	1	10
464.672	1	5
465.865	1	0
467.058	1	10
468.251	1	7
469.444	1	6
470.637	1	12
471.830	1	9
473.023	1	3
474.215	1	1
475.408	1	5
476.601	1	5
477.793	1	12
478.986	1	8
480.179	1	7
481.371	1	0
482.564	1	-7
483.756	1	6
484.948	1	-4
486.141	1	2
487.333	1	14
488.525	1	9
489.718	1	3
490.910	1	6
492.102	1	8
493.294	1	10
494.486	1	6
495.678	1	15
496.870	1	7
498.062	1	9
499.254	1	12
500.446	1	10
501.638	1	10
502.829	1	7
504.021	1	31
505.213	1	9
506.404	1	0
507.596	1	15
508.788	1	14
509.979	1	21
511.171	1	24
512.362	1	10
513.553	1	0
514.745	1	11
515.936	1	8
517.127	1	18
518.319	1	17
519.510	1	10
520.701	1	24
521.892	1	21
523.083	1	18
524.274	1	6
525.465	1	21
526.656	1	29
527.847	1	16
529.038	1	21
530.229	1	28
531.419	1	33
532.610	1	15
533.801	1	12
534.991	1	13
536.182	1	18
537.373	1	11
538.563	1	13
539.754	1	13
540.944	1	5
542.134	1	15
543.325	1	15
544.515	1	15
545.705	1	24
546.896	1	21
548.086	1	23
549.276	1	18
550.466	1	13
551.656	1	8
552.846	1	20
554.036	1	18
555.226	1	15
556.416	1	16
557.606	1	6
558.796	1	7
559.986	1	9
561.175	1	16
562.365	1	22
563.555	1	23
564.744	1	20
565.934	1	10
567.123	1	19
568.313	1	10
569.502	1	15
570.692	1	13
571.881	1	14
573.070	1	10
574.260	1	8
575.449	1	13
576.638	1	7
577.827	1	9
579.016	1	9
580.205	1	6
581.394	1	-6
582.583	1	7
583.772	1	3
584.961	1	9
586.150	1	13
587.339	1	8
588.528	1	4
589.717	1	14
590.905	1	10
592.094	1	11
593.283	1	12
594.471	1	16
595.660	1	2
596.848	1	15
598.037	1	6
599.225	1	-1
600.413	1	3
601.602	1	18
602.790	1	13
603.978	1	6
605.166	1	7
606.355	1	11
607.543	1	1
608.731	1	2
609.919	1	-1
611.107	1	13
612.295	1	10
613.483	1	8
614.671	1	4
615.858	1	9
617.046	1	4
618.234	1	7
619.422	1	16
620.609	1	2
621.797	1	2
622.985	1	4
624.172	1	17
625.360	1	-4
626.547	1	10
627.735	1	3
628.922	1	4
630.109	1	1
631.297	1	-7
632.484	1	6
633.671	1	11
634.858	1	12
636.045	1	6
637.232	1	7
638.419	1	10
639.606	1	12
640.793	1	4
641.980	1	8
643.167	1	8
644.354	1	3
645.541	1	-1
646.728	1	1
647.914	1	-7
649.101	1	13
650.288	1	2
651.474	1	15
652.661	1	9
653.847	1	19
655.034	1	4
656.220	1	13
657.406	1	4
658.593	1	-8
659.779	1	4
660.965	1	11
662.152	1	7
663.338	1	4
664.524	1	-5
665.710	1	0
666.896	1	3
668.082	1	9
669.268	1	-3
670.454	1	4
671.640	1	-9
672.826	1	-8
674.011	1	5
675.197	1	7
676.383	1	-3
677.569	1	1
678.754	1	4
679.940	1	0
681.125	1	2
682.311	1	3
683.496	1	2
684.682	1	2
685.867	1	-1
687.053	1	11
688.238	1	4
688.746	1	6

File: GaN_sample E_spot4_UVVIS_68 K_200um_200 ms 2x2mm1_198.txt
340.368	1	3
341.565	1	-6
342.763	1	7
343.960	1	1
345.157	1	7
346.354	1	6
347.552	1	3
348.749	1	2
349.946	1	11
351.143	1	-2
352.340	1	1
353.537	1	-4
354.734	1	0
355.931	1	6
357.127	1	5
358.324	1	13
359.521	1	6
360.718	1	9
361.914	1	8
363.111	1	18
364.308	1	12
365.504	1	4
366.701	1	17
367.897	1	19
369.093	1	20
370.290	1	14
371.486	1	25
372.682	1	6
373.879	1	15
375.075	1	25
376.271	1	11
377.467	1	4
378.663	1	2
379.859	1	6
381.055	1	17
382.251	1	16
383.447	1	19
384.643	1	28
385.839	1	24
387.035	1	16
388.230	1	26
389.426	1	29
390.622	1	24
391.817	1	18
393.013	1	24
394.208	1	26
395.404	1	29
396.599	1	27
397.795	1	27
398.990	1	28
400.186	1	30
401.381	1	21
402.576	1	27
403.771	1	19
404.967	1	19
406.162	1	11
407.357	1	19
408.552	1	20
409.747	1	12
410.942	1	16
412.137	1	21
413.332	1	10
414.526	1	15
415.721	1	13
416.916	1	13
418.111	1	8
419.305	1	4
420.500	1	10
421.695	1	13
422.889	1	25
424.084	1	15
425.278	1	-5
426.472	1	-1
427.667	1	21
428.861	1	4
430.055	1	16
431.250	1	-4
432.444	1	19
433.638	1	11
434.832	1	5
436.026	1	9
437.220	1	9
438.414	1	1
439.608	1	1
440.802	1	11
441.996	1	9
443.190	1	-2
444.384	1	9
445.578	1	21
446.771	1	7
447.965	1	-2
449.159	1	1
450.352	1	10
451.546	1	3
452.739	1	0
453.933	1	13
455.126	1	7
456.320	1	8
457.513	1	13
458.706	1	8
459.899	1	10
461.093	1	11
462.286	1	15
463.479	1	19
464.672	1	3
465.865	1	-1
467.058	1	4
468.251	1	8
469.444	1	4
470.637	1	18
471.830	1	10
473.023	1	-1
474.215	1	1
475.408	1	2
476.601	1	0
477.793	1	13
478.986	1	6
480.179	1	11
481.371	1	3
482.564	1	-7
483.756	1	4
484.948	1	5
486.141	1	-2
487.333	1	7
488.525	1	9
489.718	1	10
490.910	1	2
492.102	1	3
493.294	1	14
494.486	1	15
495.678	1	10
496.870	1	9
498.062	1	3
499.254	1	8
500.446	1	13
501.638	1	13
502.829	1	15
504.021	1	26
505.213	1	12
506.404	1	10
507.596	1	10
508.788	1	6
509.979	1	18
511.171	1	14
512.362	1	15
513.553	1	8
514.745	1	10
515.936	1	6
517.127	1	17
518.319	1	13
519.510	1	11
520.701	1	13
521.892	1	9
523.083	1	18
524.274	1	11
525.465	1	16
526.656	1	35
527.847	1	9
529.038	1	22
530.229	1	11
531.419	1	25
532.610	1	14
533.801	1	16
534.991	1	13
536.182	1	17
537.373	1	10
538.563	1	20
539.754	1	6
540.944	1	13
542.134	1	17
543.325	1	22
544.515	1	15
545.705	1	20
546.896	1	9
548.086	1	17
549.276	1	15
550.466	1	9
551.656	1	5
552.846	1	7
554.036	1	25
555.226	1	-1
556.416	1	13
557.606	1	10
558.796	1	7
559.986	1	5
561.175	1	7
562.365	1	9
563.555	1	17
564.744	1	20
565.934	1	19
567.123	1	26
568.313	1	8
569.502	1	6
570.692	1	10
571.881	1	14
573.070	1	9
574.260	1	6
575.449	1	4
576.638	1	6
577.827	1	9
579.016	1	21
580.205	1	12
581.394	1	1
582.583	1	-5
583.772	1	9
584.961	1	14
586.150	1	9
587.339	1	10
588.528	1	7
589.717	1	7
590.905	1	6
592.094	1	8
593.283	1	10
594.471	1	-1
595.660	1	7
596.848	1	3
598.037	1	10
599.225	1	9
600.413	1	4
601.602	1	7
602.790	1	1
603.978	1	4
605.166	1	3
606.355	1	13
607.543	1	-3
608.731	1	-1
609.919	1	-5
611.107	1	12
612.295	1	11
613.483	1	6
614.671	1	6
615.858	1	8
617.046	1	11
618.234	1	0
619.422	1	-4
620.609	1	2
621.797	1	12
622.985	1	9
624.172	1	14
625.360	1	0
626.547	1	-2
627.735	1	8
628.922	1	0
630.109	1	-5
631.297	1	-2
632.484	1	5
633.671	1	9
634.858	1	16
636.045	1	7
637.232	1	8
638.419	1	18
639.606	1	7
640.793	1	12
641.980	1	-4
643.167	1	17
644.354	1	-6
645.541	1	-5
646.728	1	2
647.914	1	4
649.101	1	2
650.288	1	5
651.474	1	2
652.661	1	5
653.847	1	6
655.034	1	2
656.220	1	6
657.406	1	13
658.593	1	-2
659.779	1	3
660.965	1	5
662.152	1	11
663.338	1	5
664.524	1	-8
665.710	1	-7
666.896	1	7
668.082	1	-2
669.268	1	4
670.454	1	9
671.640	1	-14
672.826	1	-12
674.011	1	11
675.197	1	-1
676.383	1	2
677.569	1	5
678.754	1	2
679.940	1	-1
681.125	1	13
682.311	1	-3
683.496	1	0
684.682	1	8
685.867	1	0
687.053	1	5
688.238	1	0
688.746	1	2

File: GaN_sample E_spot4_UVVIS_68 K_200um_200 ms 2x2mm1_204.txt
340.368	1	-2
341.565	1	-3
342.763	1	-1
343.960	1	-3
345.157	1	1
346.354	1	0
347.552	1	6
348.749	1	3
349.946	1	12
351.143	1	-8
352.340	1	0
353.537	1	4
354.734	1	7
355.931	1	11
357.127	1	1
358.324	1	13
359.521	1	5
360.718	1	-1
361.914	1	5
363.111	1	21
364.308	1	4
365.504	1	15
366.701	1	14
367.897	1	14
369.093	1	16
370.290	1	17
371.486	1	12
372.682	1	6
373.879	1	24
375.075	1	11
376.271	1	4
377.467	1	3
378.663	1	5
379.859	1	-1
381.055	1	11
382.251	1	14
383.447	1	23
384.643	1	25
385.839	1	28
387.035	1	24
388.230	1	19
389.426	1	21
390.622	1	17
391.817	1	24
393.013	1	29
394.208	1	22
395.404	1	23
396.599	1	33
397.795	1	20
398.990	1	30
400.186	1	34
401.381	1	14
402.576	1	27
403.771	1	16
404.967	1	22
406.162	1	6
407.357	1	19
408.552	1	20
409.747	1	11
410.942	1	21
412.137	1	17
413.332	1	19
414.526	1	15
415.721	1	8
416.916	1	5
418.111	1	11
419.305	1	4
420.500	1	16
421.695	1	20
422.889	1	13
424.084	1	11
425.278	1	6
426.472	1	1
427.667	1	12
428.861	1	10
430.055	1	10
431.250	1	1
432.444	1	12
433.638	1	5
434.832	1	11
436.026	1	12
437.220	1	5
438.414	1	16
439.608	1	14
440.802	1	0
441.996	1	8
443.190	1	-10
444.384	1	2
445.578	1	18
446.771	1	2
447.965	1	-6
449.159	1	-4
450.352	1	14
451.546	1	11
452.739	1	4
453.933	1	8
455.126	1	12
456.320	1	-1
457.513	1	16
458.706	1	12
459.899	1	19
461.093	1	11
462.286	1	16
463.479	1	8
464.672	1	4
465.865	1	6
467.058	1	15
468.251	1	3
469.444	1	-4
470.637	1	21
471.830	1	13
473.023	1	-6
474.215	1	5
475.408	1	1
476.601	1	6
477.793	1	8
478.986	1	7
480.179	1	7
481.371	1	15
482.564	1	-8
483.756	1	24
484.948	1	-3
486.141	1	-1
487.333	1	8
488.525	1	12
489.718	1	-4
490.910	1	4
492.102	1	-3
493.294	1	11
494.486	1	13
495.678	1	20
496.870	1	7
498.062	1	9
499.254	1	12
500.446	1	19
501.638	1	16
502.829	1	14
504.021	1	24
505.213	1	9
506.404	1	5
507.596	1	14
508.788	1	11
509.979	1	19
511.171	1	17
512.362	1	7
513.553	1	3
514.745	1	10
515.936	1	19
517.127	1	17
518.319	1	12
519.510	1	21
520.701	1	15
521.892	1	6
523.083	1	7
524.274	1	11
525.465	1	10
526.656	1	27
527.847	1	16
529.038	1	20
530.229	1	16
531.419	1	30
532.610	1	15
533.801	1	21
534.991	1	19
536.182	1	20
537.373	1	13
538.563	1	11
539.754	1	9
540.944	1	12
542.134	1	22
543.325	1	15
544.515	1	19
545.705	1	19
546.896	1	15
548.086	1	20
549.276	1	25
550.466	1	6
551.656	1	4
552.846	1	13
554.036	1	7
555.226	1	2
556.416	1	7
557.606	1	1
558.796	1	7
559.986	1	13
561.175	1	12
562.365	1	10
563.555	1	15
564.744	1	12
565.934	1	17
567.123	1	18
568.313	1	6
569.502	1	8
570.692	1	13
571.881	1	6
573.070	1	14
574.260	1	6
575.449	1	5
576.638	1	12
577.827	1	19
579.016	1	21
580.205	1	11
581.394	1	-6
582.583	1	-1
583.772	1	9
584.961	1	12
586.150	1	10
587.339	1	8
588.528	1	14
589.717	1	1
590.905	1	2
592.094	1	6
593.283	1	9
594.471	1	5
595.660	1	0
596.848	1	14
598.037	1	-1
599.225	1	3
600.413	1	12
601.602	1	11
602.790	1	2
603.978	1	0
605.166	1	-3
606.355	1	15
607.543	1	1
608.731	1	-5
609.919	1	4
611.107	1	14
612.295	1	1
613.483	1	7
614.671	1	13
615.858	1	8
617.046	1	5
618.234	1	5
619.422	1	4
620.609	1	6
621.797	1	9
622.985	1	2
624.172	1	16
625.360	1	-7
626.547	1	3
627.735	1	12
628.922	1	2
630.109	1	4
631.297	1	5
632.484	1	1
633.671	1	1
634.858	1	15
636.045	1	4
637.232	1	0
638.419	1	13
639.606	1	19
640.793	1	14
641.980	1	2
643.167	1	11
644.354	1	-7
645.541	1	1
646.728	1	5
647.914	1	1
649.101	1	1
650.288	1	1
651.474	1	7
652.661	1	6
653.847	1	6
655.034	1	6
656.220	1	10
657.406	1	11
658.593	1	5
659.779	1	-2
660.965	1	0
662.152	1	10
663.338	1	2
664.524	1	-7
665.710	1	-5
666.896	1	5
668.082	1	2
669.268	1	6
670.454	1	6
671.640	1	-3
672.826	1	-6
674.011	1	4
675.197	1	6
676.383	1	0
677.569	1	0
678.754	1	-1
679.940	1	-3
681.125	1	4
682.311	1	8
683.496	1	0
684.682	1	17
685.867	1	3
687.053	1	5
688.238	1	8
688.746	1	6

File: GaN_sample E_spot4_UVVIS_68 K_200um_200 ms 2x2mm1_206.txt
340.368	1	-2
341.565	1	-8
342.763	1	-5
343.960	1	-1
345.157	1	2
346.354	1	4
347.552	1	14
348.749	1	6
349.946	1	15
351.143	1	1
352.340	1	5
353.537	1	2
354.734	1	-1
355.931	1	-3
357.127	1	2
358.324	1	4
359.521	1	6
360.718	1	3
361.914	1	7
363.111	1	25
364.308	1	15
365.504	1	5
366.701	1	15
367.897	1	17
369.093	1	16
370.290	1	12
371.486	1	19
372.682	1	8
373.879	1	26
375.075	1	17
376.271	1	11
377.467	1	8
378.663	1	9
379.859	1	0
381.055	1	4
382.251	1	10
383.447	1	24
384.643	1	18
385.839	1	19
387.035	1	21
388.230	1	14
389.426	1	28
390.622	1	20
391.817	1	15
393.013	1	27
394.208	1	24
395.404	1	20
396.599	1	19
397.795	1	17
398.990	1	12
400.186	1	30
401.381	1	19
402.576	1	36
403.771	1	21
404.967	1	12
406.162	1	4
407.357	1	18
408.552	1	12
409.747	1	10
410.942	1	12
412.137	1	21
413.332	1	7
414.526	1	13
415.721	1	7
416.916	1	8
418.111	1	14
419.305	1	8
420.500	1	16
421.695	1	10
422.889	1	13
424.084	1	8
425.278	1	4
426.472	1	0
427.667	1	11
428.861	1	15
430.055	1	9
431.250	1	-2
432.444	1	8
433.638	1	2
434.832	1	6
436.026	1	10
437.220	1	7
438.414	1	10
439.608	1	7
440.802	1	9
441.996	1	1
443.190	1	-9
444.384	1	16
445.578	1	19
446.771	1	15
447.965	1	1
449.159	1	8
450.352	1	15
451.546	1	10
452.739	1	9
453.933	1	15
455.126	1	7
456.320	1	7
457.513	1	18
458.706	1	0
459.899	1	8
461.093	1	6
462.286	1	12
463.479	1	11
464.672	1	3
465.865	1	2
467.058	1	10
468.251	1	6
469.444	1	3
470.637	1	16
471.830	1	19
473.023	1	1
474.215	1	6
475.408	1	9
476.601	1	-4
477.793	1	15
478.986	1	0
480.179	1	11
481.371	1	8
482.564	1	2
483.756	1	13
484.948	1	-4
486.141	1	3
487.333	1	13
488.525	1	1
489.718	1	-6
490.910	1	-1
492.102	1	-1
493.294	1	11
494.486	1	10
495.678	1	12
496.870	1	8
498.062	1	4
499.254	1	6
500.446	1	10
501.638	1	12
502.829	1	12
504.021	1	25
505.213	1	2
506.404	1	6
507.596	1	15
508.788	1	7
509.979	1	8
511.171	1	21
512.362	1	12
513.553	1	1
514.745	1	12
515.936	1	14
517.127	1	6
518.319	1	12
519.510	1	9
520.701	1	19
521.892	1	2
523.083	1	12
524.274	1	12
525.465	1	17
526.656	1	31
527.847	1	12
529.038	1	16
530.229	1	20
531.419	1	25
532.610	1	16
533.801	1	11
534.991	1	26
536.182	1	16
537.373	1	9
538.563	1	20
539.754	1	10
540.944	1	7
542.134	1	25
543.325	1	1
544.515	1	8
545.705	1	22
546.896	1	5
548.086	1	10
549.276	1	25
550.466	1	3
551.656	1	6
552.846	1	12
554.036	1	16
555.226	1	1
556.416	1	3
557.606	1	2
558.796	1	6
559.986	1	7
561.175	1	11
562.365	1	17
563.555	1	17
564.744	1	10
565.934	1	19
567.123	1	20
568.313	1	3
569.502	1	8
570.692	1	4
571.881	1	7
573.070	1	6
574.260	1	11
575.449	1	11
576.638	1	11
577.827	1	17
579.016	1	22
580.205	1	16
581.394	1	-6
582.583	1	-3
583.772	1	11
584.961	1	7
586.150	1	4
587.339	1	9
588.528	1	16
589.717	1	13
590.905	1	4
592.094	1	-2
593.283	1	10
594.471	1	10
595.660	1	0
596.848	1	14
598.037	1	3
599.225	1	13
600.413	1	11
601.602	1	9
602.790	1	5
603.978	1	7
605.166	1	1
606.355	1	9
607.543	1	-6
608.731	1	-6
609.919	1	-3
611.107	1	7
612.295	1	1
613.483	1	14
614.671	1	13
615.858	1	12
617.046	1	6
618.234	1	5
619.422	1	2
620.609	1	-7
621.797	1	8
622.985	1	4
624.172	1	22
625.360	1	-4
626.547	1	6
627.735	1	7
628.922	1	5
630.109	1	3
631.297	1	5
632.484	1	0
633.671	1	0
634.858	1	10
636.045	1	4
637.232	1	0
638.419	1	9
639.606	1	10
640.793	1	3
641.980	1	1
643.167	1	11
644.354	1	5
645.541	1	-2
646.728	1	4
647.914	1	-1
649.101	1	3
650.288	1	5
651.474	1	7
652.661	1	6
653.847	1	6
655.034	1	9
656.220	1	9
657.406	1	17
658.593	1	-6
659.779	1	11
660.965	1	1
662.152	1	4
663.338	1	-5
664.524	1	3
665.710	1	-6
666.896	1	-1
668.082	1	3
669.268	1	1
670.454	1	15
671.640	1	-5
672.826	1	-11
674.011	1	16
675.197	1	4
676.383	1	-4
677.569	1	3
678.754	1	4
679.940	1	-3
681.125	1	5
682.311	1	10
683.496	1	-2
684.682	1	13
685.867	1	9
687.053	1	3
688.238	1	6
688.746	1	4

File: GaN_sample E_spot4_UVVIS_68 K_200um_200 ms 2x2mm1_208.txt
340.368	1	8
341.565	1	-5
342.763	1	4
343.960	1	-7
345.157	1	11
346.354	1	3
347.552	1	2
348.749	1	-1
349.946	1	16
351.143	1	-9
352.340	1	3
353.537	1	5
354.734	1	-6
355.931	1	-2
357.127	1	2
358.324	1	4
359.521	1	-2
360.718	1	9
361.914	1	6
363.111	1	15
364.308	1	12
365.504	1	15
366.701	1	12
367.897	1	16
369.093	1	25
370.290	1	12
371.486	1	13
372.682	1	2
373.879	1	11
375.075	1	20
376.271	1	12
377.467	1	7
378.663	1	2
379.859	1	12
381.055	1	13
382.251	1	12
383.447	1	20
384.643	1	23
385.839	1	18
387.035	1	19
388.230	1	22
389.426	1	26
390.622	1	11
391.817	1	20
393.013	1	14
394.208	1	27
395.404	1	28
396.599	1	23
397.795	1	21
398.990	1	25
400.186	1	28
401.381	1	18
402.576	1	24
403.771	1	9
404.967	1	16
406.162	1	7
407.357	1	14
408.552	1	24
409.747	1	2
410.942	1	16
412.137	1	22
413.332	1	9
414.526	1	20
415.721	1	9
416.916	1	4
418.111	1	14
419.305	1	14
420.500	1	24
421.695	1	11
422.889	1	14
424.084	1	15
425.278	1	1
426.472	1	12
427.667	1	17
428.861	1	8
430.055	1	12
431.250	1	-6
432.444	1	17
433.638	1	4
434.832	1	7
436.026	1	15
437.220	1	14
438.414	1	12
439.608	1	10
440.802	1	5
441.996	1	8
443.190	1	0
444.384	1	9
445.578	1	10
446.771	1	6
447.965	1	2
449.159	1	-2
450.352	1	7
451.546	1	5
452.739	1	7
453.933	1	9
455.126	1	9
456.320	1	8
457.513	1	12
458.706	1	7
459.899	1	18
461.093	1	12
462.286	1	18
463.479	1	14
464.672	1	2
465.865	1	5
467.058	1	11
468.251	1	0
469.444	1	12
470.637	1	13
471.830	1	21
473.023	1	-6
474.215	1	-1
475.408	1	21
476.601	1	4
477.793	1	8
478.986	1	-3
480.179	1	13
481.371	1	5
482.564	1	1
483.756	1	17
484.948	1	-1
486.141	1	2
487.333	1	1
488.525	1	7
489.718	1	0
490.910	1	6
492.102	1	-1
493.294	1	11
494.486	1	16
495.678	1	14
496.870	1	11
498.062	1	6
499.254	1	6
500.446	1	20
501.638	1	9
502.829	1	6
504.021	1	26
505.213	1	1
506.404	1	0
507.596	1	14
508.788	1	12
509.979	1	12
511.171	1	20
512.362	1	9
513.553	1	2
514.745	1	10
515.936	1	7
517.127	1	10
518.319	1	17
519.510	1	14
520.701	1	16
521.892	1	3
523.083	1	8
524.274	1	15
525.465	1	21
526.656	1	33
527.847	1	0
529.038	1	10
530.229	1	27
531.419	1	16
532.610	1	19
533.801	1	13
534.991	1	11
536.182	1	14
537.373	1	1
538.563	1	14
539.754	1	11
540.944	1	13
542.134	1	22
543.325	1	5
544.515	1	12
545.705	1	17
546.896	1	17
548.086	1	17
549.276	1	12
550.466	1	9
551.656	1	9
552.846	1	21
554.036	1	14
555.226	1	3
556.416	1	10
557.606	1	12
558.796	1	13
559.986	1	2
561.175	1	5
562.365	1	13
563.555	1	10
564.744	1	14
565.934	1	11
567.123	1	24
568.313	1	4
569.502	1	12
570.692	1	9
571.881	1	14
573.070	1	7
574.260	1	5
575.449	1	13
576.638	1	9
577.827	1	13
579.016	1	16
580.205	1	11
581.394	1	0
582.583	1	2
583.772	1	7
584.961	1	9
586.150	1	0
587.339	1	3
588.528	1	-1
589.717	1	1
590.905	1	10
592.094	1	5
593.283	1	15
594.471	1	5
595.660	1	2
596.848	1	10
598.037	1	5
599.225	1	12
600.413	1	0
601.602	1	13
602.790	1	3
603.978	1	5
605.166	1	-6
606.355	1	11
607.543	1	4
608.731	1	3
609.919	1	-4
611.107	1	2
612.295	1	10
613.483	1	5
614.671	1	6
615.858	1	13
617.046	1	9
618.234	1	-2
619.422	1	5
620.609	1	2
621.797	1	6
622.985	1	13
624.172	1	8
625.360	1	0
626.547	1	8
627.735	1	11
628.922	1	9
630.109	1	-5
631.297	1	-1
632.484	1	5
633.671	1	4
634.858	1	8
636.045	1	0
637.232	1	4
638.419	1	7
639.606	1	15
640.793	1	7
641.980	1	8
643.167	1	8
644.354	1	6
645.541	1	-2
646.728	1	7
647.914	1	5
649.101	1	10
650.288	1	1
651.474	1	3
652.661	1	-3
653.847	1	4
655.034	1	3
656.220	1	9
657.406	1	3
658.593	1	-2
659.779	1	6
660.965	1	2
662.152	1	2
663.338	1	3
664.524	1	-4
665.710	1	0
666.896	1	2
668.082	1	-4
669.268	1	1
670.454	1	9
671.640	1	-13
672.826	1	-12
674.011	1	1
675.197	1	3
676.383	1	10
677.569	1	-4
678.754	1	8
679.940	1	1
681.125	1	13
682.311	1	4
683.496	1	5
684.682	1	8
685.867	1	8
687.053	1	10
688.238	1	-1
688.746	1	9