Folder: cryo-il_analysis/Analysis/GaN_68K_200ms (part 29)

File: GaN_sample E_spot4_UVVIS_68 K_200um_200 ms 2x2mm1_685.txt
340.368	1	-7
341.565	1	0
342.763	1	6
343.960	1	-5
345.157	1	7
346.354	1	-1
347.552	1	-1
348.749	1	0
349.946	1	13
351.143	1	-14
352.340	1	-10
353.537	1	5
354.734	1	-2
355.931	1	5
357.127	1	-2
358.324	1	-1
359.521	1	1
360.718	1	3
361.914	1	-7
363.111	1	8
364.308	1	-8
365.504	1	-7
366.701	1	-12
367.897	1	-3
369.093	1	-8
370.290	1	-4
371.486	1	3
372.682	1	-6
373.879	1	2
375.075	1	7
376.271	1	1
377.467	1	0
378.663	1	0
379.859	1	-2
381.055	1	-6
382.251	1	-3
383.447	1	6
384.643	1	-3
385.839	1	10
387.035	1	-7
388.230	1	0
389.426	1	9
390.622	1	0
391.817	1	-2
393.013	1	5
394.208	1	15
395.404	1	3
396.599	1	-2
397.795	1	4
398.990	1	1
400.186	1	4
401.381	1	14
402.576	1	10
403.771	1	4
404.967	1	-3
406.162	1	-9
407.357	1	2
408.552	1	3
409.747	1	0
410.942	1	-1
412.137	1	15
413.332	1	-5
414.526	1	5
415.721	1	-4
416.916	1	-2
418.111	1	5
419.305	1	1
420.500	1	1
421.695	1	1
422.889	1	8
424.084	1	2
425.278	1	-5
426.472	1	-5
427.667	1	1
428.861	1	-6
430.055	1	-6
431.250	1	-13
432.444	1	10
433.638	1	-2
434.832	1	-8
436.026	1	2
437.220	1	8
438.414	1	-7
439.608	1	-3
440.802	1	-9
441.996	1	-10
443.190	1	-11
444.384	1	3
445.578	1	2
446.771	1	1
447.965	1	-18
449.159	1	-8
450.352	1	14
451.546	1	4
452.739	1	-3
453.933	1	11
455.126	1	4
456.320	1	8
457.513	1	3
458.706	1	5
459.899	1	7
461.093	1	13
462.286	1	14
463.479	1	-1
464.672	1	4
465.865	1	1
467.058	1	7
468.251	1	-6
469.444	1	-6
470.637	1	10
471.830	1	8
473.023	1	-1
474.215	1	1
475.408	1	3
476.601	1	-1
477.793	1	1
478.986	1	-5
480.179	1	-3
481.371	1	2
482.564	1	-12
483.756	1	2
484.948	1	2
486.141	1	-6
487.333	1	-4
488.525	1	-6
489.718	1	-8
490.910	1	-9
492.102	1	0
493.294	1	8
494.486	1	7
495.678	1	4
496.870	1	-1
498.062	1	-7
499.254	1	1
500.446	1	6
501.638	1	3
502.829	1	4
504.021	1	15
505.213	1	-10
506.404	1	-2
507.596	1	-1
508.788	1	2
509.979	1	1
511.171	1	20
512.362	1	-6
513.553	1	-1
514.745	1	5
515.936	1	1
517.127	1	2
518.319	1	-12
519.510	1	-3
520.701	1	2
521.892	1	-14
523.083	1	4
524.274	1	-7
525.465	1	0
526.656	1	16
527.847	1	2
529.038	1	3
530.229	1	5
531.419	1	4
532.610	1	11
533.801	1	5
534.991	1	1
536.182	1	1
537.373	1	-3
538.563	1	1
539.754	1	1
540.944	1	4
542.134	1	5
543.325	1	-11
544.515	1	1
545.705	1	2
546.896	1	4
548.086	1	9
549.276	1	2
550.466	1	-6
551.656	1	-1
552.846	1	4
554.036	1	4
555.226	1	2
556.416	1	7
557.606	1	-14
558.796	1	-3
559.986	1	-3
561.175	1	-3
562.365	1	0
563.555	1	13
564.744	1	3
565.934	1	-1
567.123	1	8
568.313	1	-4
569.502	1	0
570.692	1	4
571.881	1	-2
573.070	1	11
574.260	1	-2
575.449	1	14
576.638	1	2
577.827	1	10
579.016	1	6
580.205	1	-4
581.394	1	-2
582.583	1	-6
583.772	1	1
584.961	1	0
586.150	1	-3
587.339	1	5
588.528	1	1
589.717	1	-6
590.905	1	0
592.094	1	2
593.283	1	-1
594.471	1	-3
595.660	1	0
596.848	1	5
598.037	1	-4
599.225	1	4
600.413	1	-4
601.602	1	4
602.790	1	4
603.978	1	-2
605.166	1	-6
606.355	1	1
607.543	1	-6
608.731	1	-6
609.919	1	-4
611.107	1	11
612.295	1	3
613.483	1	2
614.671	1	0
615.858	1	2
617.046	1	8
618.234	1	3
619.422	1	4
620.609	1	-14
621.797	1	-4
622.985	1	4
624.172	1	2
625.360	1	-8
626.547	1	4
627.735	1	6
628.922	1	-3
630.109	1	1
631.297	1	-7
632.484	1	3
633.671	1	8
634.858	1	13
636.045	1	-1
637.232	1	-3
638.419	1	5
639.606	1	12
640.793	1	3
641.980	1	6
643.167	1	10
644.354	1	-2
645.541	1	-12
646.728	1	5
647.914	1	-1
649.101	1	-2
650.288	1	-3
651.474	1	2
652.661	1	0
653.847	1	-9
655.034	1	5
656.220	1	-2
657.406	1	4
658.593	1	-5
659.779	1	2
660.965	1	0
662.152	1	0
663.338	1	-3
664.524	1	-8
665.710	1	-4
666.896	1	-3
668.082	1	-6
669.268	1	4
670.454	1	3
671.640	1	-17
672.826	1	-6
674.011	1	5
675.197	1	-7
676.383	1	-1
677.569	1	-2
678.754	1	-10
679.940	1	0
681.125	1	5
682.311	1	-4
683.496	1	-11
684.682	1	7
685.867	1	-4
687.053	1	-1
688.238	1	1
688.746	1	1

File: GaN_sample E_spot4_UVVIS_68 K_200um_200 ms 2x2mm1_686.txt
340.368	1	-1
341.565	1	-8
342.763	1	-3
343.960	1	-9
345.157	1	1
346.354	1	1
347.552	1	-4
348.749	1	-1
349.946	1	2
351.143	1	-11
352.340	1	0
353.537	1	1
354.734	1	-1
355.931	1	11
357.127	1	3
358.324	1	-3
359.521	1	-3
360.718	1	4
361.914	1	-3
363.111	1	6
364.308	1	-2
365.504	1	2
366.701	1	0
367.897	1	-8
369.093	1	-1
370.290	1	-8
371.486	1	4
372.682	1	0
373.879	1	18
375.075	1	0
376.271	1	-5
377.467	1	0
378.663	1	-8
379.859	1	-7
381.055	1	7
382.251	1	-5
383.447	1	0
384.643	1	14
385.839	1	7
387.035	1	8
388.230	1	2
389.426	1	3
390.622	1	-2
391.817	1	-3
393.013	1	3
394.208	1	7
395.404	1	-1
396.599	1	0
397.795	1	7
398.990	1	-3
400.186	1	2
401.381	1	17
402.576	1	25
403.771	1	2
404.967	1	7
406.162	1	-3
407.357	1	-3
408.552	1	-3
409.747	1	2
410.942	1	5
412.137	1	10
413.332	1	-1
414.526	1	0
415.721	1	7
416.916	1	-6
418.111	1	-1
419.305	1	-3
420.500	1	1
421.695	1	8
422.889	1	4
424.084	1	3
425.278	1	-14
426.472	1	-5
427.667	1	5
428.861	1	-2
430.055	1	2
431.250	1	-12
432.444	1	5
433.638	1	-3
434.832	1	-11
436.026	1	15
437.220	1	6
438.414	1	-3
439.608	1	-2
440.802	1	3
441.996	1	0
443.190	1	-7
444.384	1	5
445.578	1	-3
446.771	1	5
447.965	1	-8
449.159	1	-10
450.352	1	15
451.546	1	0
452.739	1	-4
453.933	1	0
455.126	1	-3
456.320	1	-1
457.513	1	7
458.706	1	-5
459.899	1	7
461.093	1	5
462.286	1	4
463.479	1	4
464.672	1	7
465.865	1	-5
467.058	1	15
468.251	1	-6
469.444	1	-11
470.637	1	16
471.830	1	-1
473.023	1	-2
474.215	1	-3
475.408	1	9
476.601	1	4
477.793	1	1
478.986	1	0
480.179	1	4
481.371	1	3
482.564	1	-12
483.756	1	12
484.948	1	-5
486.141	1	-7
487.333	1	2
488.525	1	-3
489.718	1	-13
490.910	1	-8
492.102	1	-7
493.294	1	13
494.486	1	-4
495.678	1	17
496.870	1	-5
498.062	1	-6
499.254	1	1
500.446	1	5
501.638	1	2
502.829	1	0
504.021	1	13
505.213	1	2
506.404	1	-3
507.596	1	10
508.788	1	-6
509.979	1	-4
511.171	1	19
512.362	1	-3
513.553	1	-5
514.745	1	-2
515.936	1	-6
517.127	1	6
518.319	1	-8
519.510	1	3
520.701	1	2
521.892	1	-6
523.083	1	1
524.274	1	-8
525.465	1	-2
526.656	1	12
527.847	1	-7
529.038	1	8
530.229	1	3
531.419	1	10
532.610	1	6
533.801	1	3
534.991	1	1
536.182	1	-5
537.373	1	-1
538.563	1	10
539.754	1	-2
540.944	1	-6
542.134	1	4
543.325	1	1
544.515	1	7
545.705	1	4
546.896	1	3
548.086	1	2
549.276	1	10
550.466	1	2
551.656	1	-16
552.846	1	1
554.036	1	5
555.226	1	-8
556.416	1	5
557.606	1	-6
558.796	1	0
559.986	1	-5
561.175	1	0
562.365	1	2
563.555	1	11
564.744	1	-1
565.934	1	1
567.123	1	12
568.313	1	-6
569.502	1	-3
570.692	1	6
571.881	1	6
573.070	1	6
574.260	1	2
575.449	1	2
576.638	1	6
577.827	1	4
579.016	1	8
580.205	1	-2
581.394	1	-1
582.583	1	-7
583.772	1	-2
584.961	1	-2
586.150	1	1
587.339	1	0
588.528	1	4
589.717	1	3
590.905	1	5
592.094	1	3
593.283	1	3
594.471	1	0
595.660	1	-1
596.848	1	7
598.037	1	-5
599.225	1	-4
600.413	1	-6
601.602	1	0
602.790	1	-5
603.978	1	-3
605.166	1	-12
606.355	1	5
607.543	1	-4
608.731	1	-13
609.919	1	-21
611.107	1	2
612.295	1	1
613.483	1	2
614.671	1	2
615.858	1	2
617.046	1	-2
618.234	1	6
619.422	1	7
620.609	1	2
621.797	1	-3
622.985	1	7
624.172	1	4
625.360	1	-2
626.547	1	3
627.735	1	1
628.922	1	0
630.109	1	-1
631.297	1	-5
632.484	1	-4
633.671	1	-7
634.858	1	9
636.045	1	-5
637.232	1	8
638.419	1	11
639.606	1	10
640.793	1	6
641.980	1	1
643.167	1	4
644.354	1	2
645.541	1	-15
646.728	1	2
647.914	1	-16
649.101	1	4
650.288	1	-3
651.474	1	1
652.661	1	1
653.847	1	2
655.034	1	-7
656.220	1	2
657.406	1	15
658.593	1	-10
659.779	1	-6
660.965	1	7
662.152	1	-7
663.338	1	4
664.524	1	-7
665.710	1	-4
666.896	1	-9
668.082	1	-2
669.268	1	-2
670.454	1	-3
671.640	1	-10
672.826	1	-19
674.011	1	-1
675.197	1	-4
676.383	1	-5
677.569	1	-6
678.754	1	-5
679.940	1	1
681.125	1	1
682.311	1	0
683.496	1	3
684.682	1	1
685.867	1	1
687.053	1	-2
688.238	1	0
688.746	1	2

File: GaN_sample E_spot4_UVVIS_68 K_200um_200 ms 2x2mm1_696.txt
340.368	1	9
341.565	1	-4
342.763	1	-8
343.960	1	-6
345.157	1	8
346.354	1	-7
347.552	1	2
348.749	1	4
349.946	1	6
351.143	1	-9
352.340	1	-1
353.537	1	-1
354.734	1	-1
355.931	1	1
357.127	1	4
358.324	1	-14
359.521	1	0
360.718	1	-8
361.914	1	-1
363.111	1	12
364.308	1	-9
365.504	1	1
366.701	1	-7
367.897	1	7
369.093	1	10
370.290	1	4
371.486	1	4
372.682	1	0
373.879	1	6
375.075	1	2
376.271	1	-4
377.467	1	-4
378.663	1	-6
379.859	1	0
381.055	1	1
382.251	1	0
383.447	1	8
384.643	1	6
385.839	1	8
387.035	1	-2
388.230	1	-2
389.426	1	4
390.622	1	-2
391.817	1	-5
393.013	1	6
394.208	1	11
395.404	1	-1
396.599	1	8
397.795	1	1
398.990	1	4
400.186	1	12
401.381	1	8
402.576	1	9
403.771	1	0
404.967	1	-3
406.162	1	-6
407.357	1	0
408.552	1	16
409.747	1	-9
410.942	1	5
412.137	1	9
413.332	1	4
414.526	1	10
415.721	1	5
416.916	1	-6
418.111	1	-1
419.305	1	-10
420.500	1	4
421.695	1	0
422.889	1	9
424.084	1	3
425.278	1	-7
426.472	1	1
427.667	1	3
428.861	1	5
430.055	1	0
431.250	1	-14
432.444	1	8
433.638	1	-5
434.832	1	-4
436.026	1	-4
437.220	1	-2
438.414	1	4
439.608	1	2
440.802	1	0
441.996	1	-5
443.190	1	-13
444.384	1	3
445.578	1	10
446.771	1	-13
447.965	1	-13
449.159	1	-8
450.352	1	10
451.546	1	-4
452.739	1	-1
453.933	1	7
455.126	1	3
456.320	1	0
457.513	1	6
458.706	1	-5
459.899	1	3
461.093	1	1
462.286	1	9
463.479	1	14
464.672	1	2
465.865	1	-3
467.058	1	9
468.251	1	4
469.444	1	-2
470.637	1	7
471.830	1	14
473.023	1	-9
474.215	1	-1
475.408	1	-1
476.601	1	3
477.793	1	9
478.986	1	-4
480.179	1	9
481.371	1	2
482.564	1	-8
483.756	1	1
484.948	1	-3
486.141	1	-6
487.333	1	11
488.525	1	0
489.718	1	-1
490.910	1	-5
492.102	1	-2
493.294	1	7
494.486	1	14
495.678	1	2
496.870	1	-6
498.062	1	1
499.254	1	-1
500.446	1	3
501.638	1	10
502.829	1	-7
504.021	1	17
505.213	1	-4
506.404	1	4
507.596	1	-2
508.788	1	-3
509.979	1	3
511.171	1	6
512.362	1	6
513.553	1	-13
514.745	1	-2
515.936	1	5
517.127	1	4
518.319	1	-2
519.510	1	-2
520.701	1	0
521.892	1	-9
523.083	1	-1
524.274	1	4
525.465	1	-3
526.656	1	10
527.847	1	0
529.038	1	2
530.229	1	3
531.419	1	9
532.610	1	5
533.801	1	8
534.991	1	1
536.182	1	3
537.373	1	0
538.563	1	0
539.754	1	0
540.944	1	-5
542.134	1	5
543.325	1	-4
544.515	1	3
545.705	1	0
546.896	1	-8
548.086	1	12
549.276	1	3
550.466	1	3
551.656	1	1
552.846	1	-4
554.036	1	5
555.226	1	-8
556.416	1	-1
557.606	1	-7
558.796	1	-2
559.986	1	-8
561.175	1	-5
562.365	1	-1
563.555	1	11
564.744	1	6
565.934	1	0
567.123	1	11
568.313	1	-2
569.502	1	5
570.692	1	3
571.881	1	0
573.070	1	7
574.260	1	-1
575.449	1	-7
576.638	1	-5
577.827	1	3
579.016	1	5
580.205	1	4
581.394	1	-7
582.583	1	0
583.772	1	-6
584.961	1	-2
586.150	1	0
587.339	1	7
588.528	1	2
589.717	1	-3
590.905	1	6
592.094	1	4
593.283	1	-5
594.471	1	2
595.660	1	-4
596.848	1	6
598.037	1	0
599.225	1	6
600.413	1	-8
601.602	1	14
602.790	1	-1
603.978	1	1
605.166	1	-13
606.355	1	4
607.543	1	-6
608.731	1	-7
609.919	1	-10
611.107	1	2
612.295	1	1
613.483	1	10
614.671	1	-2
615.858	1	6
617.046	1	2
618.234	1	-4
619.422	1	-8
620.609	1	4
621.797	1	1
622.985	1	4
624.172	1	7
625.360	1	-9
626.547	1	4
627.735	1	8
628.922	1	-5
630.109	1	13
631.297	1	-5
632.484	1	-5
633.671	1	-2
634.858	1	1
636.045	1	0
637.232	1	-4
638.419	1	-1
639.606	1	12
640.793	1	6
641.980	1	-5
643.167	1	14
644.354	1	4
645.541	1	-8
646.728	1	-5
647.914	1	-6
649.101	1	-5
650.288	1	-9
651.474	1	-2
652.661	1	1
653.847	1	0
655.034	1	-4
656.220	1	0
657.406	1	-2
658.593	1	-11
659.779	1	1
660.965	1	0
662.152	1	-4
663.338	1	1
664.524	1	-2
665.710	1	-6
666.896	1	-2
668.082	1	-3
669.268	1	0
670.454	1	-6
671.640	1	-17
672.826	1	-18
674.011	1	4
675.197	1	-6
676.383	1	-6
677.569	1	-7
678.754	1	-4
679.940	1	10
681.125	1	1
682.311	1	-2
683.496	1	-10
684.682	1	2
685.867	1	9
687.053	1	7
688.238	1	3
688.746	1	4

File: GaN_sample E_spot4_UVVIS_68 K_200um_200 ms 2x2mm1_699.txt
340.368	1	0
341.565	1	-6
342.763	1	2
343.960	1	0
345.157	1	3
346.354	1	4
347.552	1	7
348.749	1	0
349.946	1	3
351.143	1	-8
352.340	1	-4
353.537	1	-1
354.734	1	-7
355.931	1	8
357.127	1	7
358.324	1	-9
359.521	1	-2
360.718	1	-3
361.914	1	1
363.111	1	10
364.308	1	-3
365.504	1	-6
366.701	1	-15
367.897	1	-3
369.093	1	5
370.290	1	-10
371.486	1	12
372.682	1	-3
373.879	1	5
375.075	1	6
376.271	1	-6
377.467	1	-9
378.663	1	0
379.859	1	-1
381.055	1	3
382.251	1	-1
383.447	1	7
384.643	1	-1
385.839	1	3
387.035	1	-2
388.230	1	-5
389.426	1	5
390.622	1	-7
391.817	1	-2
393.013	1	4
394.208	1	3
395.404	1	8
396.599	1	0
397.795	1	1
398.990	1	8
400.186	1	16
401.381	1	-1
402.576	1	7
403.771	1	14
404.967	1	-2
406.162	1	-8
407.357	1	-5
408.552	1	10
409.747	1	-4
410.942	1	-1
412.137	1	6
413.332	1	1
414.526	1	0
415.721	1	-1
416.916	1	3
418.111	1	1
419.305	1	2
420.500	1	11
421.695	1	-3
422.889	1	17
424.084	1	5
425.278	1	-3
426.472	1	-9
427.667	1	-2
428.861	1	-1
430.055	1	-7
431.250	1	-7
432.444	1	5
433.638	1	-3
434.832	1	-9
436.026	1	-6
437.220	1	8
438.414	1	2
439.608	1	7
440.802	1	8
441.996	1	-1
443.190	1	-13
444.384	1	5
445.578	1	-1
446.771	1	-3
447.965	1	-13
449.159	1	-5
450.352	1	6
451.546	1	2
452.739	1	-3
453.933	1	10
455.126	1	3
456.320	1	-2
457.513	1	7
458.706	1	1
459.899	1	5
461.093	1	-1
462.286	1	0
463.479	1	14
464.672	1	0
465.865	1	-1
467.058	1	15
468.251	1	-6
469.444	1	-5
470.637	1	8
471.830	1	14
473.023	1	1
474.215	1	-6
475.408	1	-5
476.601	1	-9
477.793	1	5
478.986	1	0
480.179	1	-7
481.371	1	-2
482.564	1	-6
483.756	1	6
484.948	1	-3
486.141	1	-17
487.333	1	-1
488.525	1	-5
489.718	1	0
490.910	1	3
492.102	1	-7
493.294	1	3
494.486	1	-3
495.678	1	7
496.870	1	-5
498.062	1	2
499.254	1	-3
500.446	1	10
501.638	1	1
502.829	1	-2
504.021	1	20
505.213	1	-1
506.404	1	2
507.596	1	4
508.788	1	-4
509.979	1	-11
511.171	1	3
512.362	1	2
513.553	1	-10
514.745	1	-14
515.936	1	5
517.127	1	8
518.319	1	-1
519.510	1	-2
520.701	1	-2
521.892	1	-7
523.083	1	9
524.274	1	-10
525.465	1	3
526.656	1	16
527.847	1	-6
529.038	1	-4
530.229	1	8
531.419	1	10
532.610	1	7
533.801	1	2
534.991	1	8
536.182	1	-8
537.373	1	-7
538.563	1	0
539.754	1	8
540.944	1	-5
542.134	1	3
543.325	1	-4
544.515	1	-8
545.705	1	9
546.896	1	-3
548.086	1	5
549.276	1	3
550.466	1	8
551.656	1	-3
552.846	1	-2
554.036	1	-4
555.226	1	-8
556.416	1	7
557.606	1	-5
558.796	1	-4
559.986	1	-1
561.175	1	-3
562.365	1	-1
563.555	1	4
564.744	1	6
565.934	1	2
567.123	1	16
568.313	1	-2
569.502	1	4
570.692	1	5
571.881	1	4
573.070	1	7
574.260	1	1
575.449	1	1
576.638	1	0
577.827	1	-3
579.016	1	11
580.205	1	7
581.394	1	-1
582.583	1	-8
583.772	1	-5
584.961	1	13
586.150	1	-1
587.339	1	0
588.528	1	0
589.717	1	5
590.905	1	4
592.094	1	-2
593.283	1	-1
594.471	1	3
595.660	1	-6
596.848	1	9
598.037	1	4
599.225	1	-6
600.413	1	1
601.602	1	-5
602.790	1	-2
603.978	1	5
605.166	1	4
606.355	1	9
607.543	1	-12
608.731	1	-5
609.919	1	-2
611.107	1	9
612.295	1	2
613.483	1	9
614.671	1	1
615.858	1	6
617.046	1	-2
618.234	1	-3
619.422	1	-1
620.609	1	-10
621.797	1	1
622.985	1	1
624.172	1	-3
625.360	1	-8
626.547	1	3
627.735	1	-4
628.922	1	-8
630.109	1	0
631.297	1	-4
632.484	1	-4
633.671	1	1
634.858	1	5
636.045	1	-1
637.232	1	3
638.419	1	3
639.606	1	8
640.793	1	3
641.980	1	-5
643.167	1	16
644.354	1	3
645.541	1	-4
646.728	1	6
647.914	1	-5
649.101	1	7
650.288	1	0
651.474	1	2
652.661	1	0
653.847	1	-7
655.034	1	-3
656.220	1	5
657.406	1	0
658.593	1	-9
659.779	1	1
660.965	1	-3
662.152	1	-5
663.338	1	-12
664.524	1	-8
665.710	1	-1
666.896	1	-13
668.082	1	-7
669.268	1	-1
670.454	1	-5
671.640	1	-26
672.826	1	-8
674.011	1	7
675.197	1	-2
676.383	1	-3
677.569	1	-1
678.754	1	2
679.940	1	-6
681.125	1	0
682.311	1	-2
683.496	1	-15
684.682	1	3
685.867	1	2
687.053	1	-5
688.238	1	-6
688.746	1	3

File: GaN_sample E_spot4_UVVIS_68 K_200um_200 ms 2x2mm1_702.txt
340.368	1	5
341.565	1	-11
342.763	1	-1
343.960	1	1
345.157	1	-1
346.354	1	-5
347.552	1	-7
348.749	1	7
349.946	1	1
351.143	1	-9
352.340	1	5
353.537	1	-3
354.734	1	12
355.931	1	2
357.127	1	-3
358.324	1	-1
359.521	1	-2
360.718	1	-1
361.914	1	-4
363.111	1	10
364.308	1	1
365.504	1	-10
366.701	1	-11
367.897	1	-7
369.093	1	4
370.290	1	0
371.486	1	6
372.682	1	-2
373.879	1	10
375.075	1	11
376.271	1	0
377.467	1	1
378.663	1	-1
379.859	1	2
381.055	1	-5
382.251	1	-6
383.447	1	9
384.643	1	8
385.839	1	3
387.035	1	-6
388.230	1	1
389.426	1	-1
390.622	1	-5
391.817	1	-1
393.013	1	12
394.208	1	0
395.404	1	5
396.599	1	6
397.795	1	5
398.990	1	9
400.186	1	9
401.381	1	5
402.576	1	6
403.771	1	5
404.967	1	-6
406.162	1	-5
407.357	1	0
408.552	1	3
409.747	1	3
410.942	1	4
412.137	1	-1
413.332	1	6
414.526	1	8
415.721	1	0
416.916	1	2
418.111	1	3
419.305	1	-3
420.500	1	10
421.695	1	-3
422.889	1	3
424.084	1	2
425.278	1	-7
426.472	1	-1
427.667	1	1
428.861	1	0
430.055	1	-3
431.250	1	-2
432.444	1	5
433.638	1	1
434.832	1	-5
436.026	1	8
437.220	1	6
438.414	1	-2
439.608	1	-4
440.802	1	4
441.996	1	-3
443.190	1	-3
444.384	1	-4
445.578	1	4
446.771	1	5
447.965	1	-12
449.159	1	-10
450.352	1	-5
451.546	1	-1
452.739	1	-3
453.933	1	9
455.126	1	2
456.320	1	-2
457.513	1	10
458.706	1	1
459.899	1	3
461.093	1	12
462.286	1	3
463.479	1	16
464.672	1	-1
465.865	1	-18
467.058	1	1
468.251	1	-3
469.444	1	2
470.637	1	9
471.830	1	13
473.023	1	-3
474.215	1	-2
475.408	1	-3
476.601	1	4
477.793	1	3
478.986	1	8
480.179	1	-2
481.371	1	2
482.564	1	-9
483.756	1	7
484.948	1	0
486.141	1	-1
487.333	1	4
488.525	1	0
489.718	1	-10
490.910	1	-11
492.102	1	-13
493.294	1	0
494.486	1	4
495.678	1	5
496.870	1	3
498.062	1	-9
499.254	1	-2
500.446	1	6
501.638	1	-7
502.829	1	1
504.021	1	17
505.213	1	-5
506.404	1	-9
507.596	1	9
508.788	1	-9
509.979	1	12
511.171	1	9
512.362	1	-3
513.553	1	-9
514.745	1	-1
515.936	1	2
517.127	1	5
518.319	1	-1
519.510	1	-5
520.701	1	6
521.892	1	-6
523.083	1	-1
524.274	1	-9
525.465	1	-4
526.656	1	5
527.847	1	-5
529.038	1	10
530.229	1	1
531.419	1	12
532.610	1	4
533.801	1	9
534.991	1	-1
536.182	1	-4
537.373	1	-1
538.563	1	2
539.754	1	-2
540.944	1	-4
542.134	1	9
543.325	1	-3
544.515	1	3
545.705	1	10
546.896	1	-2
548.086	1	6
549.276	1	11
550.466	1	-1
551.656	1	-4
552.846	1	1
554.036	1	1
555.226	1	-9
556.416	1	-4
557.606	1	-13
558.796	1	0
559.986	1	1
561.175	1	2
562.365	1	1
563.555	1	0
564.744	1	5
565.934	1	9
567.123	1	17
568.313	1	-1
569.502	1	0
570.692	1	-2
571.881	1	3
573.070	1	4
574.260	1	2
575.449	1	7
576.638	1	5
577.827	1	2
579.016	1	19
580.205	1	-2
581.394	1	-1
582.583	1	-9
583.772	1	-11
584.961	1	-3
586.150	1	3
587.339	1	-2
588.528	1	5
589.717	1	-2
590.905	1	0
592.094	1	-3
593.283	1	6
594.471	1	0
595.660	1	2
596.848	1	9
598.037	1	2
599.225	1	0
600.413	1	3
601.602	1	6
602.790	1	5
603.978	1	-5
605.166	1	-2
606.355	1	5
607.543	1	-9
608.731	1	-11
609.919	1	-5
611.107	1	9
612.295	1	-5
613.483	1	8
614.671	1	4
615.858	1	5
617.046	1	1
618.234	1	1
619.422	1	4
620.609	1	-5
621.797	1	4
622.985	1	-1
624.172	1	12
625.360	1	-5
626.547	1	8
627.735	1	3
628.922	1	-5
630.109	1	-4
631.297	1	-2
632.484	1	-7
633.671	1	-3
634.858	1	4
636.045	1	13
637.232	1	-1
638.419	1	-1
639.606	1	16
640.793	1	9
641.980	1	-5
643.167	1	2
644.354	1	-4
645.541	1	-5
646.728	1	3
647.914	1	-8
649.101	1	-5
650.288	1	3
651.474	1	-7
652.661	1	-10
653.847	1	2
655.034	1	1
656.220	1	0
657.406	1	4
658.593	1	-5
659.779	1	-9
660.965	1	-3
662.152	1	-10
663.338	1	-1
664.524	1	-15
665.710	1	0
666.896	1	-7
668.082	1	-3
669.268	1	0
670.454	1	11
671.640	1	-7
672.826	1	-19
674.011	1	5
675.197	1	-12
676.383	1	-4
677.569	1	-8
678.754	1	-5
679.940	1	-3
681.125	1	2
682.311	1	2
683.496	1	1
684.682	1	1
685.867	1	2
687.053	1	6
688.238	1	3
688.746	1	5

File: GaN_sample E_spot4_UVVIS_68 K_200um_200 ms 2x2mm1_704.txt
340.368	1	3
341.565	1	-16
342.763	1	-7
343.960	1	4
345.157	1	1
346.354	1	-7
347.552	1	1
348.749	1	6
349.946	1	4
351.143	1	-5
352.340	1	-7
353.537	1	-6
354.734	1	-4
355.931	1	9
357.127	1	0
358.324	1	-5
359.521	1	-6
360.718	1	1
361.914	1	1
363.111	1	6
364.308	1	0
365.504	1	-7
366.701	1	0
367.897	1	-1
369.093	1	-6
370.290	1	-5
371.486	1	6
372.682	1	-1
373.879	1	7
375.075	1	5
376.271	1	2
377.467	1	0
378.663	1	-10
379.859	1	-1
381.055	1	0
382.251	1	0
383.447	1	3
384.643	1	2
385.839	1	-4
387.035	1	-5
388.230	1	4
389.426	1	8
390.622	1	-5
391.817	1	-2
393.013	1	4
394.208	1	0
395.404	1	8
396.599	1	4
397.795	1	9
398.990	1	0
400.186	1	7
401.381	1	6
402.576	1	17
403.771	1	-2
404.967	1	10
406.162	1	4
407.357	1	-7
408.552	1	5
409.747	1	-4
410.942	1	-3
412.137	1	7
413.332	1	-4
414.526	1	3
415.721	1	3
416.916	1	-3
418.111	1	0
419.305	1	7
420.500	1	2
421.695	1	-4
422.889	1	7
424.084	1	0
425.278	1	-2
426.472	1	1
427.667	1	2
428.861	1	-1
430.055	1	5
431.250	1	-7
432.444	1	12
433.638	1	-8
434.832	1	0
436.026	1	4
437.220	1	-2
438.414	1	9
439.608	1	-5
440.802	1	1
441.996	1	-6
443.190	1	-5
444.384	1	0
445.578	1	8
446.771	1	-3
447.965	1	-11
449.159	1	-4
450.352	1	7
451.546	1	5
452.739	1	1
453.933	1	15
455.126	1	-5
456.320	1	-4
457.513	1	2
458.706	1	0
459.899	1	4
461.093	1	4
462.286	1	5
463.479	1	12
464.672	1	6
465.865	1	1
467.058	1	6
468.251	1	-3
469.444	1	3
470.637	1	17
471.830	1	10
473.023	1	-10
474.215	1	0
475.408	1	-2
476.601	1	0
477.793	1	8
478.986	1	-3
480.179	1	0
481.371	1	1
482.564	1	-4
483.756	1	7
484.948	1	3
486.141	1	-8
487.333	1	0
488.525	1	-5
489.718	1	1
490.910	1	-6
492.102	1	0
493.294	1	11
494.486	1	4
495.678	1	8
496.870	1	-6
498.062	1	-4
499.254	1	2
500.446	1	2
501.638	1	8
502.829	1	-1
504.021	1	16
505.213	1	0
506.404	1	-4
507.596	1	-4
508.788	1	7
509.979	1	2
511.171	1	11
512.362	1	1
513.553	1	-9
514.745	1	-3
515.936	1	3
517.127	1	8
518.319	1	0
519.510	1	0
520.701	1	3
521.892	1	-2
523.083	1	-3
524.274	1	-11
525.465	1	3
526.656	1	16
527.847	1	-7
529.038	1	11
530.229	1	1
531.419	1	4
532.610	1	0
533.801	1	3
534.991	1	-1
536.182	1	-4
537.373	1	-6
538.563	1	6
539.754	1	-10
540.944	1	-8
542.134	1	3
543.325	1	3
544.515	1	3
545.705	1	6
546.896	1	-6
548.086	1	2
549.276	1	4
550.466	1	-6
551.656	1	-6
552.846	1	-2
554.036	1	0
555.226	1	0
556.416	1	1
557.606	1	-6
558.796	1	-4
559.986	1	-11
561.175	1	0
562.365	1	1
563.555	1	8
564.744	1	1
565.934	1	0
567.123	1	17
568.313	1	-6
569.502	1	6
570.692	1	1
571.881	1	3
573.070	1	4
574.260	1	-2
575.449	1	-1
576.638	1	-3
577.827	1	9
579.016	1	6
580.205	1	0
581.394	1	-8
582.583	1	-11
583.772	1	6
584.961	1	-4
586.150	1	-1
587.339	1	-1
588.528	1	4
589.717	1	-6
590.905	1	3
592.094	1	12
593.283	1	6
594.471	1	0
595.660	1	2
596.848	1	1
598.037	1	2
599.225	1	1
600.413	1	3
601.602	1	4
602.790	1	4
603.978	1	-5
605.166	1	-12
606.355	1	16
607.543	1	-9
608.731	1	-10
609.919	1	-6
611.107	1	11
612.295	1	1
613.483	1	9
614.671	1	2
615.858	1	-1
617.046	1	-1
618.234	1	6
619.422	1	-1
620.609	1	-1
621.797	1	-7
622.985	1	-2
624.172	1	10
625.360	1	-13
626.547	1	1
627.735	1	2
628.922	1	-7
630.109	1	-9
631.297	1	-7
632.484	1	-7
633.671	1	4
634.858	1	9
636.045	1	-4
637.232	1	-5
638.419	1	3
639.606	1	3
640.793	1	5
641.980	1	1
643.167	1	-2
644.354	1	-1
645.541	1	-3
646.728	1	-1
647.914	1	-3
649.101	1	-3
650.288	1	-1
651.474	1	6
652.661	1	3
653.847	1	1
655.034	1	1
656.220	1	3
657.406	1	4
658.593	1	-13
659.779	1	-2
660.965	1	9
662.152	1	4
663.338	1	-7
664.524	1	-9
665.710	1	-1
666.896	1	-5
668.082	1	0
669.268	1	-2
670.454	1	0
671.640	1	-13
672.826	1	-15
674.011	1	9
675.197	1	-6
676.383	1	-2
677.569	1	-1
678.754	1	-9
679.940	1	-1
681.125	1	1
682.311	1	-3
683.496	1	-4
684.682	1	1
685.867	1	-5
687.053	1	5
688.238	1	5
688.746	1	4