Folder: cryo-il_analysis/Analysis/GaN_68K_200ms (part 8)

File: GaN_sample E_spot4_UVVIS_68 K_200um_200 ms 2x2mm1_176.txt
340.368	1	2
341.565	1	-6
342.763	1	1
343.960	1	1
345.157	1	-3
346.354	1	3
347.552	1	5
348.749	1	5
349.946	1	13
351.143	1	-8
352.340	1	4
353.537	1	6
354.734	1	7
355.931	1	7
357.127	1	12
358.324	1	7
359.521	1	15
360.718	1	6
361.914	1	21
363.111	1	18
364.308	1	12
365.504	1	31
366.701	1	10
367.897	1	38
369.093	1	34
370.290	1	26
371.486	1	27
372.682	1	9
373.879	1	28
375.075	1	18
376.271	1	10
377.467	1	8
378.663	1	8
379.859	1	6
381.055	1	21
382.251	1	20
383.447	1	22
384.643	1	29
385.839	1	40
387.035	1	46
388.230	1	34
389.426	1	43
390.622	1	35
391.817	1	41
393.013	1	49
394.208	1	52
395.404	1	39
396.599	1	35
397.795	1	39
398.990	1	53
400.186	1	45
401.381	1	38
402.576	1	36
403.771	1	15
404.967	1	37
406.162	1	23
407.357	1	25
408.552	1	30
409.747	1	15
410.942	1	22
412.137	1	25
413.332	1	22
414.526	1	20
415.721	1	19
416.916	1	17
418.111	1	19
419.305	1	24
420.500	1	19
421.695	1	10
422.889	1	17
424.084	1	22
425.278	1	5
426.472	1	8
427.667	1	25
428.861	1	16
430.055	1	12
431.250	1	-1
432.444	1	13
433.638	1	6
434.832	1	8
436.026	1	16
437.220	1	23
438.414	1	20
439.608	1	13
440.802	1	8
441.996	1	2
443.190	1	2
444.384	1	7
445.578	1	17
446.771	1	4
447.965	1	0
449.159	1	2
450.352	1	13
451.546	1	15
452.739	1	8
453.933	1	17
455.126	1	13
456.320	1	10
457.513	1	20
458.706	1	4
459.899	1	11
461.093	1	8
462.286	1	8
463.479	1	16
464.672	1	6
465.865	1	10
467.058	1	7
468.251	1	6
469.444	1	2
470.637	1	22
471.830	1	22
473.023	1	3
474.215	1	-2
475.408	1	12
476.601	1	6
477.793	1	13
478.986	1	0
480.179	1	-1
481.371	1	12
482.564	1	-3
483.756	1	18
484.948	1	2
486.141	1	-5
487.333	1	11
488.525	1	8
489.718	1	6
490.910	1	6
492.102	1	16
493.294	1	9
494.486	1	15
495.678	1	19
496.870	1	5
498.062	1	12
499.254	1	12
500.446	1	20
501.638	1	11
502.829	1	13
504.021	1	28
505.213	1	15
506.404	1	10
507.596	1	16
508.788	1	10
509.979	1	15
511.171	1	28
512.362	1	13
513.553	1	16
514.745	1	16
515.936	1	25
517.127	1	26
518.319	1	24
519.510	1	18
520.701	1	31
521.892	1	11
523.083	1	16
524.274	1	5
525.465	1	22
526.656	1	41
527.847	1	26
529.038	1	32
530.229	1	31
531.419	1	31
532.610	1	24
533.801	1	14
534.991	1	30
536.182	1	32
537.373	1	24
538.563	1	15
539.754	1	17
540.944	1	20
542.134	1	32
543.325	1	19
544.515	1	25
545.705	1	25
546.896	1	19
548.086	1	27
549.276	1	28
550.466	1	16
551.656	1	19
552.846	1	26
554.036	1	28
555.226	1	10
556.416	1	24
557.606	1	9
558.796	1	23
559.986	1	13
561.175	1	17
562.365	1	9
563.555	1	23
564.744	1	24
565.934	1	22
567.123	1	23
568.313	1	13
569.502	1	15
570.692	1	11
571.881	1	11
573.070	1	17
574.260	1	9
575.449	1	18
576.638	1	15
577.827	1	9
579.016	1	19
580.205	1	7
581.394	1	13
582.583	1	14
583.772	1	14
584.961	1	11
586.150	1	8
587.339	1	16
588.528	1	15
589.717	1	3
590.905	1	17
592.094	1	7
593.283	1	11
594.471	1	14
595.660	1	7
596.848	1	12
598.037	1	5
599.225	1	9
600.413	1	8
601.602	1	11
602.790	1	6
603.978	1	9
605.166	1	-2
606.355	1	15
607.543	1	-3
608.731	1	4
609.919	1	5
611.107	1	9
612.295	1	3
613.483	1	10
614.671	1	13
615.858	1	14
617.046	1	8
618.234	1	8
619.422	1	7
620.609	1	4
621.797	1	0
622.985	1	5
624.172	1	13
625.360	1	7
626.547	1	9
627.735	1	6
628.922	1	7
630.109	1	-1
631.297	1	-1
632.484	1	7
633.671	1	5
634.858	1	8
636.045	1	5
637.232	1	1
638.419	1	10
639.606	1	16
640.793	1	7
641.980	1	4
643.167	1	8
644.354	1	7
645.541	1	-1
646.728	1	6
647.914	1	-1
649.101	1	7
650.288	1	-3
651.474	1	10
652.661	1	9
653.847	1	8
655.034	1	9
656.220	1	11
657.406	1	4
658.593	1	-6
659.779	1	-1
660.965	1	3
662.152	1	5
663.338	1	2
664.524	1	5
665.710	1	2
666.896	1	5
668.082	1	6
669.268	1	-2
670.454	1	2
671.640	1	-13
672.826	1	-6
674.011	1	2
675.197	1	0
676.383	1	6
677.569	1	5
678.754	1	4
679.940	1	-7
681.125	1	10
682.311	1	-2
683.496	1	-7
684.682	1	5
685.867	1	1
687.053	1	15
688.238	1	5
688.746	1	9

File: GaN_sample E_spot4_UVVIS_68 K_200um_200 ms 2x2mm1_177.txt
340.368	1	0
341.565	1	-8
342.763	1	4
343.960	1	2
345.157	1	13
346.354	1	3
347.552	1	-1
348.749	1	7
349.946	1	4
351.143	1	-4
352.340	1	-4
353.537	1	5
354.734	1	4
355.931	1	1
357.127	1	12
358.324	1	14
359.521	1	5
360.718	1	9
361.914	1	4
363.111	1	21
364.308	1	18
365.504	1	16
366.701	1	22
367.897	1	25
369.093	1	19
370.290	1	9
371.486	1	21
372.682	1	13
373.879	1	26
375.075	1	20
376.271	1	9
377.467	1	17
378.663	1	10
379.859	1	11
381.055	1	14
382.251	1	22
383.447	1	26
384.643	1	27
385.839	1	23
387.035	1	26
388.230	1	18
389.426	1	27
390.622	1	21
391.817	1	14
393.013	1	28
394.208	1	29
395.404	1	27
396.599	1	27
397.795	1	33
398.990	1	35
400.186	1	21
401.381	1	22
402.576	1	29
403.771	1	34
404.967	1	17
406.162	1	12
407.357	1	21
408.552	1	17
409.747	1	14
410.942	1	18
412.137	1	25
413.332	1	16
414.526	1	21
415.721	1	2
416.916	1	10
418.111	1	11
419.305	1	10
420.500	1	16
421.695	1	23
422.889	1	8
424.084	1	8
425.278	1	6
426.472	1	3
427.667	1	14
428.861	1	14
430.055	1	8
431.250	1	3
432.444	1	18
433.638	1	2
434.832	1	6
436.026	1	24
437.220	1	21
438.414	1	12
439.608	1	8
440.802	1	19
441.996	1	12
443.190	1	-3
444.384	1	4
445.578	1	12
446.771	1	5
447.965	1	8
449.159	1	-3
450.352	1	15
451.546	1	16
452.739	1	2
453.933	1	12
455.126	1	10
456.320	1	9
457.513	1	16
458.706	1	9
459.899	1	17
461.093	1	9
462.286	1	13
463.479	1	10
464.672	1	10
465.865	1	5
467.058	1	12
468.251	1	-4
469.444	1	10
470.637	1	16
471.830	1	15
473.023	1	3
474.215	1	-5
475.408	1	8
476.601	1	6
477.793	1	13
478.986	1	10
480.179	1	5
481.371	1	10
482.564	1	3
483.756	1	9
484.948	1	1
486.141	1	1
487.333	1	1
488.525	1	8
489.718	1	-3
490.910	1	9
492.102	1	5
493.294	1	14
494.486	1	14
495.678	1	23
496.870	1	8
498.062	1	7
499.254	1	6
500.446	1	18
501.638	1	6
502.829	1	12
504.021	1	25
505.213	1	10
506.404	1	3
507.596	1	16
508.788	1	20
509.979	1	14
511.171	1	28
512.362	1	16
513.553	1	10
514.745	1	13
515.936	1	18
517.127	1	22
518.319	1	12
519.510	1	14
520.701	1	22
521.892	1	8
523.083	1	22
524.274	1	16
525.465	1	16
526.656	1	32
527.847	1	5
529.038	1	36
530.229	1	21
531.419	1	24
532.610	1	16
533.801	1	20
534.991	1	18
536.182	1	15
537.373	1	17
538.563	1	21
539.754	1	9
540.944	1	15
542.134	1	26
543.325	1	12
544.515	1	17
545.705	1	20
546.896	1	14
548.086	1	31
549.276	1	17
550.466	1	10
551.656	1	9
552.846	1	19
554.036	1	13
555.226	1	4
556.416	1	20
557.606	1	2
558.796	1	15
559.986	1	3
561.175	1	13
562.365	1	18
563.555	1	13
564.744	1	9
565.934	1	24
567.123	1	28
568.313	1	2
569.502	1	10
570.692	1	16
571.881	1	15
573.070	1	8
574.260	1	-2
575.449	1	10
576.638	1	5
577.827	1	28
579.016	1	15
580.205	1	11
581.394	1	9
582.583	1	-2
583.772	1	9
584.961	1	9
586.150	1	8
587.339	1	16
588.528	1	9
589.717	1	6
590.905	1	6
592.094	1	13
593.283	1	6
594.471	1	5
595.660	1	2
596.848	1	7
598.037	1	3
599.225	1	6
600.413	1	1
601.602	1	13
602.790	1	-1
603.978	1	6
605.166	1	-2
606.355	1	17
607.543	1	-2
608.731	1	11
609.919	1	-2
611.107	1	13
612.295	1	11
613.483	1	18
614.671	1	4
615.858	1	14
617.046	1	9
618.234	1	9
619.422	1	-1
620.609	1	3
621.797	1	11
622.985	1	5
624.172	1	19
625.360	1	-4
626.547	1	7
627.735	1	18
628.922	1	-2
630.109	1	-3
631.297	1	3
632.484	1	-3
633.671	1	4
634.858	1	12
636.045	1	10
637.232	1	12
638.419	1	15
639.606	1	11
640.793	1	14
641.980	1	2
643.167	1	11
644.354	1	-1
645.541	1	-1
646.728	1	5
647.914	1	-3
649.101	1	6
650.288	1	0
651.474	1	11
652.661	1	1
653.847	1	6
655.034	1	4
656.220	1	10
657.406	1	7
658.593	1	-1
659.779	1	5
660.965	1	7
662.152	1	-7
663.338	1	-7
664.524	1	-5
665.710	1	0
666.896	1	0
668.082	1	7
669.268	1	4
670.454	1	12
671.640	1	-8
672.826	1	-9
674.011	1	10
675.197	1	2
676.383	1	4
677.569	1	-1
678.754	1	-1
679.940	1	-2
681.125	1	10
682.311	1	3
683.496	1	-4
684.682	1	14
685.867	1	-3
687.053	1	1
688.238	1	4
688.746	1	10

File: GaN_sample E_spot4_UVVIS_68 K_200um_200 ms 2x2mm1_182.txt
340.368	1	7
341.565	1	-13
342.763	1	5
343.960	1	0
345.157	1	12
346.354	1	3
347.552	1	3
348.749	1	14
349.946	1	17
351.143	1	-8
352.340	1	5
353.537	1	8
354.734	1	0
355.931	1	4
357.127	1	12
358.324	1	5
359.521	1	6
360.718	1	4
361.914	1	15
363.111	1	23
364.308	1	15
365.504	1	12
366.701	1	26
367.897	1	28
369.093	1	20
370.290	1	19
371.486	1	30
372.682	1	7
373.879	1	19
375.075	1	15
376.271	1	17
377.467	1	4
378.663	1	3
379.859	1	9
381.055	1	10
382.251	1	19
383.447	1	26
384.643	1	34
385.839	1	29
387.035	1	22
388.230	1	28
389.426	1	40
390.622	1	30
391.817	1	32
393.013	1	29
394.208	1	36
395.404	1	22
396.599	1	32
397.795	1	29
398.990	1	33
400.186	1	40
401.381	1	21
402.576	1	31
403.771	1	26
404.967	1	27
406.162	1	18
407.357	1	24
408.552	1	21
409.747	1	15
410.942	1	12
412.137	1	22
413.332	1	3
414.526	1	21
415.721	1	5
416.916	1	19
418.111	1	14
419.305	1	12
420.500	1	18
421.695	1	18
422.889	1	14
424.084	1	21
425.278	1	0
426.472	1	11
427.667	1	21
428.861	1	15
430.055	1	20
431.250	1	8
432.444	1	9
433.638	1	3
434.832	1	-3
436.026	1	8
437.220	1	10
438.414	1	10
439.608	1	15
440.802	1	12
441.996	1	7
443.190	1	0
444.384	1	11
445.578	1	9
446.771	1	7
447.965	1	2
449.159	1	0
450.352	1	17
451.546	1	9
452.739	1	2
453.933	1	14
455.126	1	2
456.320	1	-3
457.513	1	12
458.706	1	18
459.899	1	8
461.093	1	11
462.286	1	10
463.479	1	7
464.672	1	5
465.865	1	3
467.058	1	14
468.251	1	2
469.444	1	8
470.637	1	15
471.830	1	15
473.023	1	0
474.215	1	3
475.408	1	5
476.601	1	-3
477.793	1	18
478.986	1	9
480.179	1	6
481.371	1	3
482.564	1	-2
483.756	1	14
484.948	1	1
486.141	1	-1
487.333	1	10
488.525	1	6
489.718	1	10
490.910	1	1
492.102	1	12
493.294	1	12
494.486	1	10
495.678	1	17
496.870	1	2
498.062	1	18
499.254	1	0
500.446	1	14
501.638	1	11
502.829	1	11
504.021	1	17
505.213	1	20
506.404	1	13
507.596	1	16
508.788	1	13
509.979	1	15
511.171	1	21
512.362	1	14
513.553	1	9
514.745	1	12
515.936	1	22
517.127	1	17
518.319	1	16
519.510	1	13
520.701	1	29
521.892	1	8
523.083	1	11
524.274	1	15
525.465	1	26
526.656	1	36
527.847	1	23
529.038	1	28
530.229	1	30
531.419	1	25
532.610	1	17
533.801	1	26
534.991	1	28
536.182	1	16
537.373	1	12
538.563	1	14
539.754	1	19
540.944	1	8
542.134	1	20
543.325	1	21
544.515	1	20
545.705	1	23
546.896	1	12
548.086	1	25
549.276	1	37
550.466	1	18
551.656	1	10
552.846	1	20
554.036	1	24
555.226	1	10
556.416	1	7
557.606	1	12
558.796	1	11
559.986	1	18
561.175	1	6
562.365	1	15
563.555	1	16
564.744	1	16
565.934	1	16
567.123	1	26
568.313	1	0
569.502	1	6
570.692	1	10
571.881	1	17
573.070	1	16
574.260	1	9
575.449	1	6
576.638	1	11
577.827	1	13
579.016	1	17
580.205	1	20
581.394	1	4
582.583	1	4
583.772	1	-1
584.961	1	14
586.150	1	14
587.339	1	10
588.528	1	9
589.717	1	4
590.905	1	17
592.094	1	0
593.283	1	5
594.471	1	2
595.660	1	2
596.848	1	17
598.037	1	1
599.225	1	2
600.413	1	4
601.602	1	9
602.790	1	9
603.978	1	8
605.166	1	-2
606.355	1	4
607.543	1	-10
608.731	1	5
609.919	1	-8
611.107	1	8
612.295	1	9
613.483	1	6
614.671	1	13
615.858	1	6
617.046	1	12
618.234	1	8
619.422	1	16
620.609	1	4
621.797	1	15
622.985	1	9
624.172	1	12
625.360	1	3
626.547	1	6
627.735	1	9
628.922	1	2
630.109	1	-2
631.297	1	-7
632.484	1	-3
633.671	1	4
634.858	1	-2
636.045	1	6
637.232	1	11
638.419	1	18
639.606	1	15
640.793	1	16
641.980	1	4
643.167	1	16
644.354	1	7
645.541	1	-4
646.728	1	14
647.914	1	-1
649.101	1	1
650.288	1	3
651.474	1	5
652.661	1	1
653.847	1	7
655.034	1	5
656.220	1	7
657.406	1	5
658.593	1	0
659.779	1	6
660.965	1	2
662.152	1	8
663.338	1	-5
664.524	1	1
665.710	1	-3
666.896	1	-6
668.082	1	-4
669.268	1	13
670.454	1	3
671.640	1	1
672.826	1	-12
674.011	1	0
675.197	1	7
676.383	1	4
677.569	1	5
678.754	1	3
679.940	1	-3
681.125	1	9
682.311	1	10
683.496	1	3
684.682	1	8
685.867	1	1
687.053	1	4
688.238	1	9
688.746	1	8

File: GaN_sample E_spot4_UVVIS_68 K_200um_200 ms 2x2mm1_184.txt
340.368	1	6
341.565	1	-3
342.763	1	-3
343.960	1	5
345.157	1	12
346.354	1	-4
347.552	1	8
348.749	1	6
349.946	1	8
351.143	1	-1
352.340	1	3
353.537	1	6
354.734	1	9
355.931	1	3
357.127	1	5
358.324	1	6
359.521	1	6
360.718	1	1
361.914	1	6
363.111	1	26
364.308	1	15
365.504	1	30
366.701	1	17
367.897	1	13
369.093	1	28
370.290	1	19
371.486	1	25
372.682	1	4
373.879	1	22
375.075	1	18
376.271	1	13
377.467	1	12
378.663	1	9
379.859	1	3
381.055	1	9
382.251	1	19
383.447	1	29
384.643	1	32
385.839	1	39
387.035	1	25
388.230	1	37
389.426	1	41
390.622	1	20
391.817	1	26
393.013	1	35
394.208	1	33
395.404	1	31
396.599	1	28
397.795	1	25
398.990	1	34
400.186	1	27
401.381	1	29
402.576	1	24
403.771	1	18
404.967	1	26
406.162	1	22
407.357	1	22
408.552	1	25
409.747	1	10
410.942	1	26
412.137	1	26
413.332	1	19
414.526	1	16
415.721	1	22
416.916	1	15
418.111	1	11
419.305	1	12
420.500	1	19
421.695	1	10
422.889	1	9
424.084	1	25
425.278	1	-1
426.472	1	9
427.667	1	21
428.861	1	5
430.055	1	15
431.250	1	0
432.444	1	14
433.638	1	4
434.832	1	6
436.026	1	2
437.220	1	7
438.414	1	17
439.608	1	12
440.802	1	12
441.996	1	11
443.190	1	-3
444.384	1	11
445.578	1	8
446.771	1	15
447.965	1	13
449.159	1	4
450.352	1	11
451.546	1	2
452.739	1	3
453.933	1	9
455.126	1	12
456.320	1	10
457.513	1	10
458.706	1	10
459.899	1	17
461.093	1	16
462.286	1	2
463.479	1	12
464.672	1	10
465.865	1	5
467.058	1	11
468.251	1	1
469.444	1	5
470.637	1	18
471.830	1	18
473.023	1	-2
474.215	1	9
475.408	1	7
476.601	1	2
477.793	1	6
478.986	1	7
480.179	1	6
481.371	1	6
482.564	1	-1
483.756	1	17
484.948	1	4
486.141	1	1
487.333	1	9
488.525	1	-1
489.718	1	2
490.910	1	6
492.102	1	7
493.294	1	25
494.486	1	15
495.678	1	11
496.870	1	16
498.062	1	6
499.254	1	12
500.446	1	23
501.638	1	10
502.829	1	11
504.021	1	32
505.213	1	12
506.404	1	2
507.596	1	24
508.788	1	12
509.979	1	14
511.171	1	22
512.362	1	11
513.553	1	8
514.745	1	18
515.936	1	15
517.127	1	24
518.319	1	17
519.510	1	25
520.701	1	22
521.892	1	14
523.083	1	14
524.274	1	14
525.465	1	24
526.656	1	42
527.847	1	7
529.038	1	23
530.229	1	14
531.419	1	23
532.610	1	22
533.801	1	25
534.991	1	20
536.182	1	30
537.373	1	19
538.563	1	20
539.754	1	25
540.944	1	18
542.134	1	25
543.325	1	12
544.515	1	27
545.705	1	18
546.896	1	21
548.086	1	24
549.276	1	26
550.466	1	12
551.656	1	9
552.846	1	20
554.036	1	14
555.226	1	13
556.416	1	23
557.606	1	0
558.796	1	12
559.986	1	6
561.175	1	2
562.365	1	17
563.555	1	17
564.744	1	21
565.934	1	13
567.123	1	26
568.313	1	4
569.502	1	14
570.692	1	10
571.881	1	7
573.070	1	12
574.260	1	4
575.449	1	14
576.638	1	11
577.827	1	21
579.016	1	21
580.205	1	11
581.394	1	1
582.583	1	4
583.772	1	13
584.961	1	13
586.150	1	12
587.339	1	4
588.528	1	8
589.717	1	8
590.905	1	10
592.094	1	15
593.283	1	7
594.471	1	13
595.660	1	-1
596.848	1	6
598.037	1	3
599.225	1	5
600.413	1	4
601.602	1	16
602.790	1	22
603.978	1	1
605.166	1	10
606.355	1	9
607.543	1	-1
608.731	1	-2
609.919	1	-4
611.107	1	4
612.295	1	5
613.483	1	11
614.671	1	12
615.858	1	4
617.046	1	9
618.234	1	7
619.422	1	3
620.609	1	10
621.797	1	9
622.985	1	2
624.172	1	11
625.360	1	-3
626.547	1	16
627.735	1	7
628.922	1	3
630.109	1	8
631.297	1	1
632.484	1	-1
633.671	1	3
634.858	1	12
636.045	1	11
637.232	1	7
638.419	1	10
639.606	1	16
640.793	1	9
641.980	1	4
643.167	1	10
644.354	1	6
645.541	1	-5
646.728	1	11
647.914	1	-6
649.101	1	6
650.288	1	0
651.474	1	8
652.661	1	9
653.847	1	11
655.034	1	6
656.220	1	0
657.406	1	7
658.593	1	-3
659.779	1	1
660.965	1	5
662.152	1	3
663.338	1	3
664.524	1	-5
665.710	1	3
666.896	1	4
668.082	1	8
669.268	1	-2
670.454	1	-1
671.640	1	-8
672.826	1	-12
674.011	1	12
675.197	1	4
676.383	1	2
677.569	1	-1
678.754	1	3
679.940	1	2
681.125	1	7
682.311	1	1
683.496	1	-3
684.682	1	2
685.867	1	2
687.053	1	12
688.238	1	1
688.746	1	6

File: GaN_sample E_spot4_UVVIS_68 K_200um_200 ms 2x2mm1_185.txt
340.368	1	-1
341.565	1	2
342.763	1	1
343.960	1	-2
345.157	1	12
346.354	1	6
347.552	1	5
348.749	1	1
349.946	1	13
351.143	1	3
352.340	1	3
353.537	1	9
354.734	1	7
355.931	1	11
357.127	1	5
358.324	1	-3
359.521	1	13
360.718	1	7
361.914	1	11
363.111	1	29
364.308	1	13
365.504	1	12
366.701	1	12
367.897	1	36
369.093	1	27
370.290	1	15
371.486	1	21
372.682	1	7
373.879	1	18
375.075	1	20
376.271	1	10
377.467	1	6
378.663	1	2
379.859	1	5
381.055	1	18
382.251	1	17
383.447	1	22
384.643	1	22
385.839	1	35
387.035	1	37
388.230	1	24
389.426	1	18
390.622	1	28
391.817	1	25
393.013	1	21
394.208	1	26
395.404	1	27
396.599	1	26
397.795	1	24
398.990	1	34
400.186	1	33
401.381	1	21
402.576	1	32
403.771	1	25
404.967	1	16
406.162	1	21
407.357	1	17
408.552	1	24
409.747	1	17
410.942	1	25
412.137	1	22
413.332	1	16
414.526	1	8
415.721	1	11
416.916	1	10
418.111	1	12
419.305	1	10
420.500	1	23
421.695	1	11
422.889	1	17
424.084	1	16
425.278	1	2
426.472	1	14
427.667	1	21
428.861	1	6
430.055	1	9
431.250	1	0
432.444	1	15
433.638	1	9
434.832	1	4
436.026	1	17
437.220	1	8
438.414	1	15
439.608	1	7
440.802	1	3
441.996	1	6
443.190	1	-1
444.384	1	15
445.578	1	18
446.771	1	5
447.965	1	4
449.159	1	-3
450.352	1	11
451.546	1	0
452.739	1	6
453.933	1	27
455.126	1	1
456.320	1	3
457.513	1	7
458.706	1	12
459.899	1	17
461.093	1	10
462.286	1	12
463.479	1	20
464.672	1	10
465.865	1	5
467.058	1	15
468.251	1	6
469.444	1	-1
470.637	1	25
471.830	1	5
473.023	1	-5
474.215	1	6
475.408	1	7
476.601	1	6
477.793	1	18
478.986	1	2
480.179	1	11
481.371	1	2
482.564	1	4
483.756	1	18
484.948	1	7
486.141	1	-1
487.333	1	11
488.525	1	-2
489.718	1	3
490.910	1	8
492.102	1	2
493.294	1	18
494.486	1	5
495.678	1	25
496.870	1	5
498.062	1	10
499.254	1	8
500.446	1	11
501.638	1	10
502.829	1	9
504.021	1	32
505.213	1	14
506.404	1	4
507.596	1	25
508.788	1	17
509.979	1	7
511.171	1	25
512.362	1	23
513.553	1	9
514.745	1	20
515.936	1	21
517.127	1	15
518.319	1	13
519.510	1	19
520.701	1	21
521.892	1	7
523.083	1	13
524.274	1	13
525.465	1	19
526.656	1	25
527.847	1	17
529.038	1	23
530.229	1	28
531.419	1	30
532.610	1	26
533.801	1	22
534.991	1	29
536.182	1	25
537.373	1	11
538.563	1	22
539.754	1	17
540.944	1	18
542.134	1	24
543.325	1	14
544.515	1	18
545.705	1	20
546.896	1	12
548.086	1	22
549.276	1	26
550.466	1	16
551.656	1	1
552.846	1	16
554.036	1	14
555.226	1	4
556.416	1	19
557.606	1	2
558.796	1	13
559.986	1	2
561.175	1	16
562.365	1	17
563.555	1	16
564.744	1	10
565.934	1	6
567.123	1	23
568.313	1	10
569.502	1	7
570.692	1	14
571.881	1	11
573.070	1	18
574.260	1	6
575.449	1	13
576.638	1	10
577.827	1	17
579.016	1	19
580.205	1	4
581.394	1	0
582.583	1	7
583.772	1	7
584.961	1	15
586.150	1	9
587.339	1	6
588.528	1	5
589.717	1	7
590.905	1	0
592.094	1	4
593.283	1	8
594.471	1	9
595.660	1	-1
596.848	1	7
598.037	1	5
599.225	1	5
600.413	1	3
601.602	1	9
602.790	1	4
603.978	1	4
605.166	1	-7
606.355	1	16
607.543	1	1
608.731	1	-5
609.919	1	2
611.107	1	10
612.295	1	5
613.483	1	14
614.671	1	5
615.858	1	19
617.046	1	7
618.234	1	4
619.422	1	2
620.609	1	14
621.797	1	5
622.985	1	-4
624.172	1	9
625.360	1	-6
626.547	1	12
627.735	1	3
628.922	1	11
630.109	1	3
631.297	1	-9
632.484	1	-2
633.671	1	4
634.858	1	10
636.045	1	3
637.232	1	6
638.419	1	2
639.606	1	16
640.793	1	12
641.980	1	-1
643.167	1	13
644.354	1	5
645.541	1	-5
646.728	1	1
647.914	1	1
649.101	1	3
650.288	1	-3
651.474	1	10
652.661	1	13
653.847	1	3
655.034	1	0
656.220	1	1
657.406	1	10
658.593	1	-9
659.779	1	-1
660.965	1	6
662.152	1	-4
663.338	1	1
664.524	1	-15
665.710	1	2
666.896	1	0
668.082	1	1
669.268	1	6
670.454	1	8
671.640	1	-18
672.826	1	-9
674.011	1	5
675.197	1	-2
676.383	1	2
677.569	1	10
678.754	1	-3
679.940	1	-1
681.125	1	13
682.311	1	7
683.496	1	-3
684.682	1	7
685.867	1	3
687.053	1	14
688.238	1	5
688.746	1	4

File: GaN_sample E_spot4_UVVIS_68 K_200um_200 ms 2x2mm1_188.txt
340.368	1	0
341.565	1	-1
342.763	1	-5
343.960	1	-5
345.157	1	8
346.354	1	-2
347.552	1	6
348.749	1	6
349.946	1	13
351.143	1	-6
352.340	1	8
353.537	1	2
354.734	1	-1
355.931	1	10
357.127	1	3
358.324	1	1
359.521	1	9
360.718	1	4
361.914	1	10
363.111	1	22
364.308	1	23
365.504	1	26
366.701	1	16
367.897	1	22
369.093	1	20
370.290	1	17
371.486	1	21
372.682	1	9
373.879	1	16
375.075	1	15
376.271	1	17
377.467	1	3
378.663	1	8
379.859	1	5
381.055	1	2
382.251	1	26
383.447	1	29
384.643	1	30
385.839	1	33
387.035	1	32
388.230	1	36
389.426	1	26
390.622	1	27
391.817	1	28
393.013	1	33
394.208	1	37
395.404	1	28
396.599	1	36
397.795	1	33
398.990	1	31
400.186	1	39
401.381	1	21
402.576	1	32
403.771	1	20
404.967	1	26
406.162	1	16
407.357	1	27
408.552	1	15
409.747	1	14
410.942	1	17
412.137	1	28
413.332	1	24
414.526	1	17
415.721	1	16
416.916	1	16
418.111	1	18
419.305	1	17
420.500	1	16
421.695	1	11
422.889	1	14
424.084	1	15
425.278	1	1
426.472	1	15
427.667	1	13
428.861	1	11
430.055	1	17
431.250	1	5
432.444	1	14
433.638	1	3
434.832	1	13
436.026	1	8
437.220	1	21
438.414	1	10
439.608	1	16
440.802	1	11
441.996	1	11
443.190	1	0
444.384	1	0
445.578	1	13
446.771	1	6
447.965	1	-5
449.159	1	0
450.352	1	8
451.546	1	6
452.739	1	4
453.933	1	2
455.126	1	4
456.320	1	8
457.513	1	9
458.706	1	7
459.899	1	17
461.093	1	16
462.286	1	22
463.479	1	12
464.672	1	1
465.865	1	4
467.058	1	14
468.251	1	3
469.444	1	0
470.637	1	20
471.830	1	14
473.023	1	3
474.215	1	-1
475.408	1	5
476.601	1	1
477.793	1	17
478.986	1	2
480.179	1	10
481.371	1	10
482.564	1	-6
483.756	1	20
484.948	1	-7
486.141	1	-5
487.333	1	11
488.525	1	0
489.718	1	4
490.910	1	6
492.102	1	-3
493.294	1	10
494.486	1	13
495.678	1	15
496.870	1	5
498.062	1	6
499.254	1	11
500.446	1	17
501.638	1	9
502.829	1	14
504.021	1	22
505.213	1	9
506.404	1	2
507.596	1	15
508.788	1	13
509.979	1	1
511.171	1	26
512.362	1	21
513.553	1	2
514.745	1	9
515.936	1	14
517.127	1	30
518.319	1	24
519.510	1	16
520.701	1	22
521.892	1	9
523.083	1	17
524.274	1	18
525.465	1	27
526.656	1	40
527.847	1	10
529.038	1	23
530.229	1	20
531.419	1	29
532.610	1	22
533.801	1	27
534.991	1	31
536.182	1	17
537.373	1	14
538.563	1	31
539.754	1	7
540.944	1	13
542.134	1	23
543.325	1	15
544.515	1	21
545.705	1	20
546.896	1	15
548.086	1	24
549.276	1	27
550.466	1	13
551.656	1	12
552.846	1	12
554.036	1	15
555.226	1	12
556.416	1	12
557.606	1	3
558.796	1	14
559.986	1	4
561.175	1	13
562.365	1	13
563.555	1	18
564.744	1	16
565.934	1	15
567.123	1	21
568.313	1	4
569.502	1	7
570.692	1	17
571.881	1	16
573.070	1	15
574.260	1	10
575.449	1	10
576.638	1	2
577.827	1	8
579.016	1	20
580.205	1	9
581.394	1	8
582.583	1	-4
583.772	1	12
584.961	1	10
586.150	1	4
587.339	1	5
588.528	1	8
589.717	1	8
590.905	1	15
592.094	1	11
593.283	1	6
594.471	1	5
595.660	1	7
596.848	1	0
598.037	1	16
599.225	1	9
600.413	1	13
601.602	1	11
602.790	1	8
603.978	1	8
605.166	1	4
606.355	1	12
607.543	1	8
608.731	1	-2
609.919	1	4
611.107	1	13
612.295	1	8
613.483	1	14
614.671	1	8
615.858	1	12
617.046	1	1
618.234	1	7
619.422	1	7
620.609	1	10
621.797	1	1
622.985	1	8
624.172	1	19
625.360	1	-5
626.547	1	1
627.735	1	12
628.922	1	-4
630.109	1	8
631.297	1	4
632.484	1	7
633.671	1	1
634.858	1	14
636.045	1	5
637.232	1	4
638.419	1	12
639.606	1	12
640.793	1	11
641.980	1	2
643.167	1	19
644.354	1	1
645.541	1	-6
646.728	1	11
647.914	1	-5
649.101	1	14
650.288	1	-1
651.474	1	5
652.661	1	8
653.847	1	12
655.034	1	5
656.220	1	8
657.406	1	8
658.593	1	-2
659.779	1	5
660.965	1	11
662.152	1	-5
663.338	1	4
664.524	1	-3
665.710	1	4
666.896	1	-5
668.082	1	2
669.268	1	-4
670.454	1	9
671.640	1	-9
672.826	1	-14
674.011	1	3
675.197	1	4
676.383	1	8
677.569	1	1
678.754	1	2
679.940	1	6
681.125	1	5
682.311	1	-3
683.496	1	0
684.682	1	1
685.867	1	5
687.053	1	6
688.238	1	4
688.746	1	3